File: Edgar/20240503/20240503/electrodeposition_pulsed_potential_20240503_A/pulses_1000_to_2000.txt
Time (s)	WE(1).Potential (V)	WE(1).Current (A)
1506.23	-0.69754	-0.0170593
1507.11	0.582214	-5.98145e-06
1508.01	0.582275	3.35693e-06
1508.87	-0.697937	-0.0103516
1509.75	0.582245	-5.85937e-06
1510.65	0.582214	1.31226e-06
1511.53	0.000894165	0.0100311
1512.39	0.582245	-5.46265e-06
1513.29	0.582245	1.43433e-06
1514.17	0.00118408	0.00510559
1515.03	0.582214	-6.073e-06
1515.93	0.582275	-4.57764e-07
1516.83	0.582306	0.00751953
1517.67	0.582275	-7.14111e-06
1518.57	0.582275	-6.40869e-07
1519.47	0.582336	0.000114349
1520.31	0.582245	-6.22559e-06
1521.21	0.582275	-2.71606e-06
1522.11	0.582275	5.33142e-05
1522.95	0.582275	-6.37817e-06
1523.85	0.582275	-3.54004e-06
1524.75	0.582214	3.05176e-05
1525.59	0.582275	-5.7373e-06
1526.49	0.582245	-3.23486e-06
1527.39	0.582275	1.828e-05
1528.23	0.582184	-5.21851e-06
1529.13	0.582245	-3.63159e-06
1530.03	0.582275	1.37024e-05
1530.87	0.582275	-5.64575e-06
1531.77	0.582245	-3.72314e-06
1532.67	0.582245	8.36182e-06
1533.53	-0.697479	-0.0169952
1534.41	0.582336	-5.18799e-06
1535.31	0.582245	6.71387e-06
1536.17	-0.697937	-0.0103912
1537.05	0.582306	-4.73022e-06
1537.95	0.582306	5.21851e-06
1538.83	0.000878906	0.0100983
1539.69	0.582275	-4.97437e-06
1540.59	0.582306	2.53296e-06
1541.47	0.00114136	0.00520966
1542.33	0.582245	-5.40161e-06
1543.23	0.582275	1.98364e-06
1544.13	0.582092	0.00850525
1544.97	0.582275	-5.00488e-06
1545.87	0.582275	1.83105e-06
1546.77	0.582245	0.000119263
1547.61	0.582184	-7.44629e-06
1548.51	0.582275	-4.27246e-07
1549.41	0.582245	5.45044e-05
1550.25	0.582214	-6.46973e-06
1551.15	0.582275	-1.67847e-06
1552.05	0.582245	3.03345e-05
1552.89	0.582275	-7.17163e-06
1553.79	0.582306	-1.2207e-06
1554.69	0.582245	2.05078e-05
1555.53	0.582275	-5.76782e-06
1556.43	0.582214	-2.83813e-06
1557.33	0.582336	1.35498e-05
1558.17	0.582245	-6.50024e-06
1559.07	0.582336	-3.11279e-06
1559.97	0.582245	9.70459e-06
1560.83	-0.69754	-0.0171112
1561.71	0.582306	-5.00488e-06
1562.61	0.582367	7.2937e-06
1563.47	-0.697906	-0.010495
1564.35	0.582214	-5.21851e-06
1565.25	0.582214	4.05884e-06
1566.13	0.000894165	0.0101044
1566.99	0.582245	-5.0354e-06
1567.89	0.582275	1.70898e-06
1568.77	0.00114441	0.00525879
1569.63	0.582275	-3.23486e-06
1570.53	0.582306	1.61743e-06
1571.43	0.582062	0.00913391
1572.27	0.582245	-4.69971e-06
1573.17	0.582214	3.35693e-07
1574.07	0.582245	0.000123199
1574.91	0.582245	-5.15747e-06
1575.81	0.582214	-2.31934e-06
1576.71	0.582275	5.69763e-05
1577.55	0.582275	-4.27246e-06
1578.45	0.582245	-3.96729e-07
1579.35	0.582245	3.22266e-05
1580.19	0.582275	-5.49316e-06
1581.09	0.582245	-1.34277e-06
1581.99	0.582245	2.11792e-05
1582.83	0.582245	-5.06592e-06
1583.73	0.582214	-2.89917e-06
1584.63	0.582184	1.35803e-05
1585.47	0.582306	-5.79834e-06
1586.37	0.582275	-4.08936e-06
1587.27	0.582306	1.04065e-05
1588.13	-0.697571	-0.0172272
1589.01	0.582214	-3.44849e-06
1589.91	0.582184	6.34766e-06
1590.77	-0.697906	-0.010611
1591.65	0.582214	-3.72314e-06
1592.55	0.582245	5.85937e-06
1593.43	0.000869751	0.0100891
1594.29	0.582306	-4.18091e-06
1595.19	0.582245	2.38037e-06
1596.07	0.00118713	0.00529755
1596.93	0.582306	-5.43213e-06
1597.83	0.582245	2.74658e-07
1598.73	0.58197	0.00962219
1599.57	0.582245	-4.85229e-06
1600.47	0.582245	5.49316e-07
1601.37	0.582245	0.000128174
1602.21	0.582214	-4.79126e-06
1603.11	0.582184	-7.62939e-07
1604.01	0.582245	5.78003e-05
1604.85	0.582275	-6.98853e-06
1605.75	0.582275	-2.2583e-06
1606.65	0.582245	3.37524e-05
1607.49	0.582245	-6.65283e-06
1608.39	0.582214	-3.41797e-06
1609.29	0.582275	2.16064e-05
1610.13	0.582275	-7.72095e-06
1611.03	0.582275	-3.35693e-06
1611.93	0.582306	1.53198e-05
1612.77	0.582306	-6.89697e-06
1613.67	0.582245	-2.19727e-06
1614.57	0.582245	1.10168e-05
1615.43	-0.69751	-0.0173309
1616.31	0.582245	-4.5166e-06
1617.21	0.582214	7.17163e-06
1618.07	-0.697906	-0.0107269
1618.95	0.582214	-3.38745e-06
1619.85	0.582275	4.5166e-06
1620.73	0.000888062	0.0100708
1621.59	0.582245	-5.37109e-06
1622.49	0.582275	2.89917e-06
1623.37	0.00115051	0.00533539
1624.23	0.582275	-3.90625e-06
1625.13	0.582275	1.34277e-06
1626.03	0.581879	0.0100555
1626.87	0.582245	-4.82178e-06
1627.77	0.582214	9.15527e-07
1628.67	0.582214	0.000130768
1629.51	0.582275	-4.57764e-06
1630.41	0.582184	-1.52588e-07
1631.31	0.582214	5.87463e-05
1632.15	0.582245	-5.61523e-06
1633.05	0.582245	-1.86157e-06
1633.95	0.582245	3.46985e-05
1634.79	0.582275	-6.68335e-06
1635.69	0.582275	-2.74658e-06
1636.59	0.582275	2.20947e-05
1637.43	0.582275	-6.50024e-06
1638.33	0.582214	-1.06812e-06
1639.23	0.582245	1.69373e-05
1640.07	0.582245	-5.85937e-06
1640.97	0.582275	-3.14331e-06
1641.87	0.582275	1.00098e-05
1642.73	-0.69754	-0.01745
1643.61	0.582275	-2.89917e-06
1644.51	0.582245	8.78906e-06
1645.37	-0.697876	-0.0108398
1646.25	0.582245	-3.60107e-06
1647.15	0.582245	4.79126e-06
1648.03	0.000863647	0.0100494
1648.89	0.582214	-3.57056e-06
1649.79	0.582306	3.60107e-06
1650.67	0.00115051	0.00536499
1651.53	0.582367	-3.66211e-06
1652.43	0.582275	1.64795e-06
1653.33	0.581879	0.0104156
1654.17	0.582245	-4.5166e-06
1655.07	0.582275	1.00708e-06
1655.97	0.582214	0.000136475
1656.81	0.582214	-5.52368e-06
1657.71	0.582245	-6.10352e-08
1658.61	0.582275	5.93872e-05
1659.45	0.582275	-4.57764e-06
1660.35	0.582306	-1.67847e-06
1661.25	0.582245	3.5553e-05
1662.09	0.582275	-5.49316e-06
1662.99	0.582245	-1.80054e-06
1663.89	0.582275	2.23999e-05
1664.73	0.582306	-5.21851e-06
1665.63	0.582306	-1.98364e-06
1666.53	0.582214	1.47705e-05
1667.37	0.582245	-6.62231e-06
1668.27	0.582275	-2.71606e-06
1669.17	0.582306	1.04065e-05
1670.03	-0.69754	-0.0175629
1670.91	0.582245	-2.74658e-06
1671.81	0.582245	7.26318e-06
1672.67	-0.697876	-0.0109528
1673.55	0.582275	-2.53296e-06
1674.45	0.582184	6.40869e-06
1675.33	0.000863647	0.0100281
1676.19	0.582306	-4.27246e-06
1677.09	0.582245	3.41797e-06
1677.97	0.00114746	0.00539368
1678.83	0.582306	-3.44849e-06
1679.73	0.582214	1.00708e-06
1680.63	0.581848	0.0107361
1681.47	0.582275	-5.52368e-06
1682.37	0.582275	-2.74658e-07
1683.27	0.582245	0.000140411
1684.11	0.582245	-5.76782e-06
1685.01	0.582245	-2.2583e-06
1685.91	0.582214	6.23779e-05
1686.75	0.582306	-6.16455e-06
1687.65	0.582275	-1.0376e-06
1688.55	0.582306	3.68652e-05
1689.39	0.582184	-6.68335e-06
1690.29	0.582245	-2.01416e-06
1691.19	0.582275	2.45361e-05
1692.03	0.582275	-5.85937e-06
1692.93	0.582245	-3.32642e-06
1693.83	0.582214	1.8158e-05
1694.67	0.582306	-5.49316e-06
1695.57	0.582214	-2.80762e-06
1696.47	0.582275	1.23291e-05
1697.33	-0.697449	-0.0176758
1698.21	0.582245	-4.42505e-06
1699.11	0.582214	7.23267e-06
1699.97	-0.697906	-0.0110626
1700.85	0.582245	-3.8147e-06
1701.75	0.582153	5.92041e-06
1702.63	0.000866699	0.0100006
1703.49	0.582245	-5.67627e-06
1704.39	0.582245	4.88281e-06
1705.27	0.00110779	0.00541809
1706.13	0.582214	-4.5166e-06
1707.03	0.582275	2.47192e-06
1707.93	0.581818	0.0110352
1708.77	0.582214	-4.79126e-06
1709.67	0.582214	1.5564e-06
1710.57	0.582214	0.000143799
1711.41	0.582245	-5.27954e-06
1712.31	0.582245	2.44141e-07
1713.21	0.582184	6.35986e-05
1714.05	0.582306	-5.79834e-06
1714.95	0.582306	-4.88281e-07
1715.85	0.582275	3.68042e-05
1716.69	0.582245	-5.85937e-06
1717.59	0.582214	-1.09863e-06
1718.49	0.582245	2.45361e-05
1719.33	0.582275	-5.46265e-06
1720.23	0.582275	-1.43433e-06
1721.13	0.582275	1.69983e-05
1721.97	0.582245	-7.65991e-06
1722.87	0.582275	-3.23486e-06
1723.77	0.582275	1.24207e-05
1724.63	-0.69751	-0.0177856
1725.51	0.582275	-3.50952e-06
1726.41	0.582214	7.56836e-06
1727.27	-0.697845	-0.0111755
1728.15	0.582306	-1.89209e-06
1729.05	0.582275	5.88989e-06
1729.93	0.000848389	0.0099762
1730.79	0.582275	-4.05884e-06
1731.69	0.582275	3.84521e-06
1732.57	0.001171875	0.00543701
1733.43	0.582214	-4.82178e-06
1734.33	0.582275	1.28174e-06
1735.23	0.581909	0.0113159
1736.07	0.582214	-2.01416e-06
1736.97	0.582184	1.7395e-06
1737.87	0.582275	0.000148529
1738.71	0.582275	-4.94385e-06
1739.61	0.582275	2.74658e-07
1740.51	0.582214	6.34155e-05
1741.35	0.582245	-4.36401e-06
1742.25	0.582245	-1.49536e-06
1743.15	0.582245	3.75366e-05
1743.99	0.582275	-5.79834e-06
1744.89	0.582275	-2.22778e-06
1745.79	0.582184	2.40173e-05
1746.63	0.582245	-5.31006e-06
1747.53	0.582245	-2.41089e-06
1748.43	0.582214	1.79443e-05
1749.27	0.582245	-5.15747e-06
1750.17	0.582275	-3.11279e-06
1751.07	0.582275	1.25732e-05
1751.93	-0.69754	-0.0178986
1752.81	0.582306	-2.92969e-06
1753.71	0.582214	8.45337e-06
1754.57	-0.697876	-0.0112885
1755.45	0.582214	-4.11987e-06
1756.35	0.582275	6.37817e-06
1757.23	0.000878906	0.00993958
1758.09	0.582306	-2.74658e-06
1758.99	0.582245	2.92969e-06
1759.87	0.00116882	0.00545837
1760.73	0.582306	-3.41797e-06
1761.63	0.582245	2.0752e-06
1762.53	0.581879	0.0115784
1763.37	0.582306	-4.54712e-06
1764.27	0.582214	1.31226e-06
1765.17	0.582245	0.000154053
1766.01	0.582214	-4.97437e-06
1766.91	0.582275	7.62939e-07
1767.81	0.582184	6.63757e-05
1768.65	0.582214	-4.57764e-06
1769.55	0.582275	-7.01904e-07
1770.45	0.582245	3.9032e-05
1771.29	0.582245	-4.5166e-06
1772.19	0.582306	-8.54492e-07
1773.09	0.582275	2.39868e-05
1773.93	0.582306	-4.82178e-06
1774.83	0.582275	-2.10571e-06
1775.73	0.582245	1.67542e-05
1776.57	0.582275	-5.34058e-06
1777.47	0.582275	-2.86865e-06
1778.37	0.582275	1.41602e-05
1779.23	-0.697479	-0.0180054
1780.11	0.582306	-2.50244e-06
1781.01	0.582184	8.97217e-06
1781.87	-0.697845	-0.0114044
1782.75	0.582245	-4.5166e-06
1783.65	0.582184	6.98853e-06
1784.53	0.000854492	0.00990601
1785.39	0.582245	-4.21143e-06
1786.29	0.582245	5.34058e-06
1787.17	0.0011322	0.00547455
1788.03	0.582245	-5.24902e-06
1788.93	0.582184	2.01416e-06
1789.83	0.581726	0.0118286
1790.67	0.582184	-5.34058e-06
1791.57	0.582245	6.10352e-07
1792.47	0.582245	0.000157806
1793.31	0.582214	-5.37109e-06
1794.21	0.582306	1.40381e-06
1795.11	0.582214	6.82373e-05
1795.95	0.582245	-4.88281e-06
1796.85	0.582214	-1.83105e-07
1797.75	0.582275	3.9032e-05
1798.59	0.582245	-4.21143e-06
1799.49	0.582214	-5.49316e-07
1800.39	0.582245	2.76794e-05
1801.23	0.582245	-4.36401e-06
1802.13	0.582214	-2.38037e-06
1803.03	0.582214	1.72424e-05
1803.87	0.582214	-5.40161e-06
1804.77	0.582245	-2.92969e-06
1805.67	0.582275	1.29395e-05
1806.53	-0.697418	-0.0181183
1807.41	0.582275	-2.56348e-06
1808.31	0.582214	8.54492e-06
1809.17	-0.697906	-0.0115112
1810.05	0.582275	-2.86865e-06
1810.95	0.582275	6.073e-06
1811.83	0.000820923	0.00987549
1812.69	0.582245	-3.87573e-06
1813.59	0.582275	5.0354e-06
1814.47	0.00114746	0.00549438
1815.33	0.582245	-4.45557e-06
1816.23	0.582245	3.02124e-06
1817.13	0.581726	0.0120483
1817.97	0.582275	-4.11987e-06
1818.87	0.582184	1.19019e-06
1819.77	0.582184	0.000162354
1820.61	0.582306	-4.54712e-06
1821.51	0.582275	1.19019e-06
1822.41	0.582275	6.82983e-05
1823.25	0.582306	-5.85937e-06
1824.15	0.582214	-5.18799e-07
1825.05	0.582214	4.01001e-05
1825.89	0.582245	-4.08936e-06
1826.79	0.582245	-3.05176e-07
1827.69	0.582184	2.71912e-05
1828.53	0.582275	-6.04248e-06
1829.43	0.582306	-1.98364e-06
1830.33	0.582214	1.80969e-05
1831.17	0.582306	-5.64575e-06
1832.07	0.582275	-2.71606e-06
1832.97	0.582245	1.31531e-05
1833.83	-0.697479	-0.0182281
1834.71	0.582214	-1.80054e-06
1835.61	0.582245	9.00269e-06
1836.47	-0.697876	-0.011618
1837.35	0.582275	-3.23486e-06
1838.25	0.582245	6.62231e-06
1839.13	0.000854492	0.00983582
1839.99	0.582214	-3.479e-06
1840.89	0.582245	4.02832e-06
1841.77	0.0011261	0.00550812
1842.63	0.582245	-2.80762e-06
1843.53	0.582214	2.19727e-06
1844.43	0.581696	0.012265
1845.27	0.582306	-2.50244e-06
1846.17	0.582214	1.37329e-06
1847.07	0.582214	0.000165497
1847.91	0.582214	-4.08936e-06
1848.81	0.582245	2.44141e-07
1849.71	0.582214	6.93054e-05
1850.55	0.582245	-3.93677e-06
1851.45	0.582306	-6.40869e-07
1852.35	0.582306	4.13818e-05
1853.19	0.582275	-5.85937e-06
1854.09	0.582184	-1.77002e-06
1854.99	0.582275	2.74048e-05
1855.83	0.582336	-5.24902e-06
1856.73	0.582245	-9.15527e-07
1857.63	0.582245	2.00195e-05
1858.47	0.582336	-6.22559e-06
1859.37	0.582245	-1.83105e-06
1860.27	0.582245	1.41907e-05
1861.13	-0.697418	-0.0183319
1862.01	0.582245	-1.34277e-06
1862.91	0.582275	1.09253e-05
1863.77	-0.697845	-0.0117279
1864.65	0.582214	-4.85229e-06
1865.55	0.582275	7.38525e-06
1866.43	0.000839233	0.0098114
1867.29	0.582214	-1.83105e-06
1868.19	0.582245	5.24902e-06
1869.07	0.00112915	0.00552063
1869.93	0.582184	-4.66919e-06
1870.83	0.582184	3.35693e-06
1871.73	0.581757	0.0124695
1872.57	0.582245	-5.00488e-06
1873.47	0.582245	2.50244e-06
1874.37	0.582275	0.000171448
1875.21	0.582275	-4.91333e-06
1876.11	0.582275	-3.05176e-08
1877.01	0.582214	7.31812e-05
1877.85	0.582245	-4.79126e-06
1878.75	0.582275	3.35693e-07
1879.65	0.582275	4.11072e-05
1880.49	0.582245	-4.97437e-06
1881.39	0.582275	4.57764e-07
1882.29	0.582214	2.85339e-05
1883.13	0.582214	-5.49316e-06
1884.03	0.582275	-1.77002e-06
1884.93	0.582336	2.09351e-05
1885.77	0.582275	-4.97437e-06
1886.67	0.582245	-1.98364e-06
1887.57	0.582275	1.40686e-05
1888.43	-0.697479	-0.0184387
1889.31	0.582214	-3.41797e-06
1890.21	0.582275	1.08032e-05
1891.07	-0.697815	-0.0118256
1891.95	0.582306	-2.65503e-06
1892.85	0.582245	7.84302e-06
1893.73	0.00083313	0.00977173
1894.59	0.582275	-4.02832e-06
1895.49	0.582275	5.31006e-06
1896.37	0.00113525	0.0055368
1897.23	0.582275	-3.14331e-06
1898.13	0.582184	3.479e-06
1899.03	0.581665	0.0126648
1899.87	0.582275	-3.87573e-06
1900.77	0.582245	3.05176e-06
1901.67	0.582306	0.000174469
1902.51	0.582245	-4.42505e-06
1903.41	0.582275	8.54492e-07
1904.31	0.582214	7.25403e-05
1905.15	0.582336	-4.94385e-06
1906.05	0.582245	-3.05176e-08
1906.95	0.582214	4.30298e-05
1907.79	0.582275	-4.39453e-06
1908.69	0.582214	-3.66211e-07
1909.59	0.582214	2.81982e-05
1910.43	0.582275	-5.98145e-06
1911.33	0.582306	-7.32422e-07
1912.23	0.582275	1.97144e-05
1913.07	0.582245	-4.48608e-06
1913.97	0.582275	-1.37329e-06
1914.87	0.582306	1.45874e-05
1915.73	-0.697418	-0.0185547
1916.61	0.582306	-2.92969e-06
1917.51	0.582245	1.01624e-05
1918.37	-0.697815	-0.0119385
1919.25	0.582275	-1.5564e-06
1920.15	0.582245	8.8501e-06
1921.03	0.000820923	0.00974121
1921.89	0.582275	-2.96021e-06
1922.79	0.582214	5.31006e-06
1923.67	0.00112915	0.00554321
1924.53	0.582275	-2.56348e-06
1925.43	0.582214	4.85229e-06
1926.33	0.581726	0.012851
1927.17	0.582214	-3.87573e-06
1928.07	0.582245	2.74658e-06
1928.97	0.582184	0.000181091
1929.81	0.582245	-4.11987e-06
1930.71	0.582184	9.15527e-08
1931.61	0.582275	7.2998e-05
1932.45	0.582245	-4.63867e-06
1933.35	0.582245	2.13623e-07
1934.25	0.582184	4.23279e-05
1935.09	0.582245	-4.08936e-06
1935.99	0.582245	-3.96729e-07
1936.89	0.582275	2.82593e-05
1937.73	0.582275	-5.49316e-06
1938.63	0.582275	-1.5564e-06
1939.53	0.582214	1.94397e-05
1940.37	0.582275	-3.90625e-06
1941.27	0.582214	-1.40381e-06
1942.17	0.582245	1.51367e-05
1943.03	-0.697418	-0.0186584
1943.91	0.582275	-3.2959e-06
1944.81	0.582214	1.02844e-05
1945.67	-0.697815	-0.0120422
1946.55	0.582214	-2.44141e-06
1947.45	0.582245	7.14111e-06
1948.33	0.000836182	0.00969849
1949.19	0.582245	-2.2583e-06
1950.09	0.582245	5.27954e-06
1950.97	0.00112	0.00555664
1951.83	0.582275	-5.27954e-06
1952.73	0.582214	3.63159e-06
1953.63	0.581635	0.013028
1954.47	0.582306	-4.15039e-06
1955.37	0.582306	2.65503e-06
1956.27	0.582275	0.000186218
1957.11	0.582245	-4.3335e-06
1958.01	0.582245	1.19019e-06
1958.91	0.582336	7.56531e-05
1959.75	0.582306	-4.3335e-06
1960.65	0.582336	-1.83105e-07
1961.55	0.582275	4.45557e-05
1962.39	0.582275	-4.94385e-06
1963.29	0.582275	-1.37329e-06
1964.19	0.582245	2.91748e-05
1965.03	0.582245	-5.46265e-06
1965.93	0.582306	-1.0376e-06
1966.83	0.582214	2.09045e-05
1967.67	0.582275	-4.97437e-06
1968.57	0.582275	-1.37329e-06
1969.47	0.582275	1.54724e-05
1970.33	-0.697418	-0.0187653
1971.21	0.582245	-3.2959e-06
1972.11	0.582245	1.20544e-05
1972.97	-0.697723	-0.012146
1973.85	0.582245	-2.28882e-06
1974.75	0.582275	9.06372e-06
1975.63	0.000796509	0.00966492
1976.49	0.582214	-1.67847e-06
1977.39	0.582245	5.15747e-06
1978.27	0.00116577	0.0055719
1979.13	0.582245	-3.75366e-06
1980.03	0.582306	4.79126e-06
1980.93	0.581726	0.0132019
1981.77	0.582245	-4.57764e-06
1982.67	0.582245	3.38745e-06
1983.57	0.582306	0.000190613
1984.41	0.582306	-5.46265e-06
1985.31	0.582275	2.59399e-06
1986.21	0.582245	7.63245e-05
1987.05	0.582306	-4.5166e-06
1987.95	0.582184	7.62939e-07
1988.85	0.582214	4.45251e-05
1989.69	0.582245	-5.46265e-06
1990.59	0.582306	-8.23975e-07
1991.49	0.582245	2.93274e-05
1992.33	0.582214	-3.78418e-06
1993.23	0.582245	-5.49316e-07
1994.13	0.582275	2.0752e-05
1994.97	0.582214	-5.70679e-06
1995.87	0.582306	-2.22778e-06
1996.77	0.582275	1.35498e-05
1997.63	-0.697357	-0.0188782
1998.51	0.582214	-2.28882e-06
1999.41	0.582214	1.22375e-05
2000.27	-0.697815	-0.0122467
2001.15	0.582214	-2.04468e-06
2002.05	0.582306	8.30078e-06
2002.93	0.000802612	0.00962524
2003.79	0.582245	-3.72314e-06
2004.69	0.582275	5.21851e-06
2005.57	0.00109558	0.00558044
2006.43	0.582275	-3.14331e-06
2007.33	0.582214	3.9978e-06
2008.23	0.581696	0.0133636
2009.07	0.582245	-3.69263e-06
2009.97	0.582245	3.23486e-06
2010.87	0.582275	0.000194702
2011.71	0.582214	-3.93677e-06
2012.61	0.582275	1.5564e-06
2013.51	0.582245	7.69958e-05
2014.35	0.582245	-4.02832e-06
2015.25	0.582245	1.64795e-06
2016.15	0.582275	4.55933e-05
2016.99	0.582214	-3.9978e-06
2017.89	0.582275	1.2207e-07
2018.79	0.582184	2.90222e-05
2019.63	0.582275	-4.27246e-06
2020.53	0.582306	-1.31226e-06
2021.43	0.582184	2.05383e-05
2022.27	0.582245	-3.8147e-06
2023.17	0.582275	-1.2207e-06
2024.07	0.582275	1.42822e-05
2024.93	-0.697418	-0.0189819
2025.81	0.582245	-1.70898e-06
2026.71	0.582245	1.2146e-05
2027.57	-0.697754	-0.0123474
2028.45	0.582245	-2.71606e-06
2029.35	0.582245	8.27026e-06
2030.23	0.000769043	0.00960388
2031.09	0.582275	-2.96021e-06
2031.99	0.582214	5.12695e-06
2032.87	0.00112	0.00559113
2033.73	0.582245	-2.83813e-06
2034.63	0.582275	4.15039e-06
2035.53	0.581604	0.0135162
2036.37	0.582214	-3.9978e-06
2037.27	0.582153	2.31934e-06
2038.17	0.582214	0.000201721
2039.01	0.582275	-3.96729e-06
2039.91	0.582275	1.58691e-06
2040.81	0.582245	8.11768e-05
2041.65	0.582336	-4.3335e-06
2042.55	0.582214	2.74658e-07
2043.45	0.582214	4.72412e-05
2044.29	0.582214	-4.11987e-06
2045.19	0.582214	-2.74658e-07
2046.09	0.582214	3.09143e-05
2046.93	0.582306	-4.82178e-06
2047.83	0.582245	-2.13623e-06
2048.73	0.582214	2.29797e-05
2049.57	0.582306	-4.05884e-06
2050.47	0.582275	-2.22778e-06
2051.37	0.582214	1.47095e-05
2052.23	-0.697388	-0.0190979
2053.11	0.582245	-1.5564e-06
2054.01	0.582275	1.05896e-05
2054.87	-0.697815	-0.0124481
2055.75	0.582214	-1.58691e-06
2056.65	0.582306	8.78906e-06
2057.53	0.000805664	0.00955811
2058.39	0.582275	-4.48608e-06
2059.29	0.582245	6.62231e-06
2060.17	0.00116882	0.00559814
2061.03	0.582184	-4.11987e-06
2061.93	0.582245	4.30298e-06
2062.83	0.581726	0.0136688
2063.67	0.582306	-3.78418e-06
2064.57	0.582275	4.02832e-06
2065.47	0.582245	0.000207977
2066.31	0.582306	-3.9978e-06
2067.21	0.582275	1.12915e-06
2068.11	0.582245	8.09937e-05
2068.95	0.582214	-4.82178e-06
2069.85	0.582245	6.40869e-07
2070.75	0.582245	4.81873e-05
2071.59	0.582245	-4.94385e-06
2072.49	0.582214	3.05176e-08
2073.39	0.582245	3.28369e-05
2074.23	0.582306	-4.60815e-06
2075.13	0.582306	-3.96729e-07
2076.03	0.582245	2.11182e-05
2076.87	0.582245	-5.37109e-06
2077.77	0.582214	-2.04468e-06
2078.67	0.582214	1.72729e-05
2079.53	-0.697388	-0.0191986
2080.41	0.582275	-1.80054e-06
2081.31	0.582245	1.19019e-05
2082.17	-0.697754	-0.0125488
2083.05	0.582245	-2.13623e-06
2083.95	0.582214	8.39233e-06
2084.83	0.000802612	0.00952148
2085.69	0.582214	-2.16675e-06
2086.59	0.582245	8.05664e-06
2087.47	0.00118408	0.00559753
2088.33	0.582275	-3.11279e-06
2089.23	0.582184	5.21851e-06
2090.13	0.581635	0.0138184
2090.97	0.582275	-4.76074e-06
2091.87	0.582275	2.13623e-06
2092.77	0.582275	0.000212006
2093.61	0.582245	-2.13623e-06
2094.51	0.582184	2.7771e-06
2095.41	0.582214	8.27026e-05
2096.25	0.582275	-3.78418e-06
2097.15	0.582245	3.05176e-08
2098.05	0.582214	4.97742e-05
2098.89	0.582306	-3.93677e-06
2099.79	0.582245	6.10352e-08
2100.69	0.582214	3.28979e-05
2101.53	0.582214	-4.45557e-06
2102.43	0.582245	-7.62939e-07
2103.33	0.582275	2.19727e-05
2104.17	0.582275	-4.85229e-06
2105.07	0.582275	-2.13623e-07
2105.97	0.582214	1.53198e-05
2106.83	-0.697418	-0.0193054
2107.71	0.582275	-1.64795e-06
2108.62	0.582306	1.41907e-05
2109.48	-0.697784	-0.0126495
2110.36	0.582275	-1.80054e-06
2111.26	0.582214	9.09424e-06
2112.14	0.000784302	0.00947571
2113	0.582184	-2.0752e-06
2113.9	0.582336	7.23267e-06
2114.78	0.00115356	0.00560181
2115.64	0.582306	-1.5564e-06
2116.54	0.582184	4.15039e-06
2117.44	0.581573	0.0139587
2118.28	0.582306	-3.50952e-06
2119.18	0.582275	3.41797e-06
2120.08	0.582306	0.000219971
2120.92	0.582214	-4.24194e-06
2121.82	0.582214	1.89209e-06
2122.72	0.582214	8.45032e-05
2123.56	0.582245	-3.20435e-06
2124.46	0.582275	1.0376e-06
2125.36	0.582306	5.00793e-05
2126.2	0.582336	-4.05884e-06
2127.1	0.582275	2.44141e-07
2128	0.582275	3.24707e-05
2128.84	0.582214	-4.73022e-06
2129.74	0.582275	-9.76562e-07
2130.64	0.582214	2.32239e-05
2131.48	0.582275	-4.39453e-06
2132.38	0.582306	-1.77002e-06
2133.28	0.582214	1.55945e-05
2134.14	-0.697357	-0.0194
2135.02	0.582214	-1.34277e-06
2135.92	0.582336	1.30005e-05
2136.78	-0.697754	-0.0127472
2137.66	0.582306	-2.62451e-06
2138.56	0.582275	9.30786e-06
2139.44	0.000784302	0.00942993
2140.3	0.582184	-2.41089e-06
2141.2	0.582214	6.40869e-06
2142.08	0.00118103	0.00560394
2142.94	0.582275	-3.05176e-06
2143.84	0.582184	5.06592e-06
2144.74	0.581573	0.0140961
2145.58	0.582275	-4.94385e-06
2146.48	0.582275	2.89917e-06
2147.38	0.582275	0.00022641
2148.22	0.582214	-4.08936e-06
2149.12	0.582214	1.37329e-06
2150.02	0.582306	8.67004e-05
2150.86	0.582214	-4.08936e-06
2151.76	0.582245	5.49316e-07
2152.66	0.582245	5.11169e-05
2153.5	0.582245	-4.73022e-06
2154.4	0.582245	7.93457e-07
2155.3	0.582245	3.29285e-05
2156.14	0.582306	-5.79834e-06
2157.04	0.582336	-1.31226e-06
2157.94	0.582245	2.40479e-05
2158.78	0.582275	-4.08936e-06
2159.68	0.582306	-2.50244e-06
2160.58	0.582336	1.77307e-05
2161.44	-0.697388	-0.019516
2162.32	0.582275	-3.26538e-06
2163.22	0.582245	1.36108e-05
2164.08	-0.697662	-0.012851
2164.96	0.582245	-3.17383e-06
2165.86	0.582245	8.66699e-06
2166.74	0.000778198	0.00939331
2167.6	0.582245	-2.71606e-06
2168.5	0.582275	6.28662e-06
2169.38	0.00115662	0.0056073
2170.24	0.582245	-3.72314e-06
2171.14	0.582245	5.58472e-06
2172.04	0.581543	0.0142303
2172.88	0.582275	-3.17383e-06
2173.78	0.582245	3.84521e-06
2174.68	0.582245	0.000233765
2175.52	0.582153	-4.18091e-06
2176.42	0.582214	2.22778e-06
2177.32	0.582275	8.77686e-05
2178.16	0.582245	-3.84521e-06
2179.06	0.582245	2.34985e-06
2179.96	0.582306	5.13611e-05
2180.8	0.582245	-3.479e-06
2181.7	0.582245	1.2207e-06
2182.6	0.582214	3.48206e-05
2183.44	0.582306	-4.91333e-06
2184.34	0.582245	6.71387e-07
2185.24	0.582275	2.38647e-05
2186.08	0.582275	-5.98145e-06
2186.98	0.582306	-1.25122e-06
2187.88	0.582275	1.79443e-05
2188.74	-0.697388	-0.0196136
2189.62	0.582245	-1.2207e-07
2190.52	0.582245	1.40381e-05
2191.38	-0.697754	-0.0129517
2192.26	0.582245	-2.10571e-06
2193.16	0.582245	9.61304e-06
2194.04	0.000738525	0.00935059
2194.9	0.582245	-2.86865e-06
2195.8	0.582245	8.14819e-06
2196.68	0.00108948	0.00560822
2197.54	0.582275	-2.83813e-06
2198.44	0.582275	6.46973e-06
2199.34	0.581604	0.0143524
2200.18	0.582245	-3.69263e-06
2201.08	0.582214	3.75366e-06
2201.98	0.582275	0.000240997
2202.82	0.582245	-3.2959e-06
2203.72	0.582245	2.7771e-06
2204.62	0.582214	8.8623e-05
2205.46	0.582245	-4.73022e-06
2206.36	0.582245	2.19727e-06
2207.26	0.582214	5.04761e-05
2208.1	0.582306	-4.88281e-06
2209	0.582306	-3.05176e-08
2209.9	0.582245	3.43628e-05
2210.74	0.582275	-4.36401e-06
2211.64	0.582184	0
2212.54	0.582275	2.37427e-05
2213.38	0.582275	-4.39453e-06
2214.28	0.582275	-1.28174e-06
2215.18	0.582214	1.85547e-05
2216.04	-0.697327	-0.0197235
2216.92	0.582214	-1.70898e-06
2217.82	0.582214	1.21765e-05
2218.68	-0.697723	-0.0130676
2219.56	0.582245	-2.01416e-06
2220.46	0.582245	1.01318e-05
2221.34	0.000799561	0.00930481
2222.2	0.582275	-2.38037e-06
2223.1	0.582184	6.83594e-06
2223.98	0.00118713	0.00561981
2224.84	0.582275	-1.98364e-06
2225.74	0.582214	4.94385e-06
2226.64	0.581635	0.0144897
2227.48	0.582245	-2.34985e-06
2228.38	0.582245	2.96021e-06
2229.28	0.582275	0.000246124
2230.12	0.582306	-2.80762e-06
2231.02	0.582275	3.41797e-06
2231.92	0.582214	9.06677e-05
2232.76	0.582275	-4.24194e-06
2233.66	0.582245	1.09863e-06
2234.56	0.582275	5.13e-05
2235.4	0.582245	-3.14331e-06
2236.3	0.582336	-4.88281e-07
2237.2	0.582245	3.43933e-05
2238.04	0.582245	-3.479e-06
2238.94	0.582275	-8.23975e-07
2239.84	0.582153	2.48413e-05
2240.68	0.582214	-5.46265e-06
2241.58	0.582275	-6.10352e-07
2242.48	0.582245	1.81274e-05
2243.34	-0.697296	-0.0198395
2244.22	0.582306	-2.65503e-06
2245.12	0.582306	1.26038e-05
2245.98	-0.697723	-0.0131683
2246.86	0.582245	-2.38037e-06
2247.76	0.582214	1.02844e-05
2248.64	0.00078125	0.00926819
2249.5	0.582275	-4.11987e-06
2250.4	0.582275	8.69751e-06
2251.28	0.00115356	0.00562866
2252.14	0.582275	-4.85229e-06
2253.04	0.582245	4.45557e-06
2253.94	0.581573	0.0146088
2254.78	0.582275	-2.19727e-06
2255.68	0.582275	3.96729e-06
2256.58	0.582306	0.000254822
2257.42	0.582275	-4.02832e-06
2258.32	0.582214	3.63159e-06
2259.22	0.582367	9.1217e-05
2260.06	0.582275	-4.57764e-06
2260.96	0.582275	1.80054e-06
2261.86	0.582275	5.29785e-05
2262.7	0.582306	-2.83813e-06
2263.6	0.582245	1.09863e-06
2264.5	0.582214	3.55225e-05
2265.34	0.582275	-3.72314e-06
2266.24	0.582214	-7.32422e-07
2267.14	0.582245	2.47192e-05
2267.98	0.582306	-5.76782e-06
2268.88	0.582184	-1.19019e-06
2269.78	0.582245	1.85852e-05
2270.64	-0.697357	-0.0199432
2271.52	0.582275	-8.8501e-07
2272.42	0.582214	1.40991e-05
2273.28	-0.697784	-0.0132751
2274.16	0.582275	-1.49536e-06
2275.06	0.582245	1.10474e-05
2275.94	0.000772095	0.00922852
2276.8	0.582275	-2.59399e-06
2277.7	0.582275	6.62231e-06
2278.58	0.0011322	0.00562256
2279.44	0.582245	-1.86157e-06
2280.34	0.582275	5.58472e-06
2281.24	0.581573	0.0147308
2282.08	0.582245	-3.44849e-06
2282.98	0.582306	4.48608e-06
2283.88	0.582275	0.000264252
2284.72	0.582275	-3.02124e-06
2285.62	0.582245	3.20435e-06
2286.52	0.582245	9.22546e-05
2287.36	0.582245	-3.20435e-06
2288.26	0.582214	1.70898e-06
2289.16	0.582275	5.34973e-05
2290	0.582184	-3.90625e-06
2290.9	0.582275	7.32422e-07
2291.8	0.582245	3.51868e-05
2292.64	0.582275	-4.21143e-06
2293.54	0.582245	5.49316e-07
2294.44	0.582275	2.50549e-05
2295.28	0.582245	-5.00488e-06
2296.18	0.582214	-2.74658e-07
2297.08	0.582306	1.91345e-05
2297.94	-0.697296	-0.0200317
2298.82	0.582306	2.74658e-07
2299.72	0.582184	1.52283e-05
2300.58	-0.697723	-0.0133575
2301.46	0.582214	-1.43433e-06
2302.36	0.582245	1.19019e-05
2303.24	0.00078125	0.00917969
2304.1	0.582214	-2.38037e-06
2305	0.582245	9.79614e-06
2305.88	0.00112915	0.00561859
2306.74	0.582306	-2.86865e-06
2307.64	0.582214	6.073e-06
2308.54	0.581573	0.01484375
2309.38	0.582184	-3.2959e-06
2310.28	0.582275	4.15039e-06
2311.18	0.582245	0.000275116
2312.02	0.582214	-4.02832e-06
2312.92	0.582245	2.74658e-06
2313.82	0.582245	9.375e-05
2314.66	0.582275	-3.60107e-06
2315.56	0.582245	1.70898e-06
2316.46	0.582275	5.37415e-05
2317.3	0.582275	-2.92969e-06
2318.2	0.582306	8.8501e-07
2319.1	0.582184	3.55835e-05
2319.94	0.582306	-4.88281e-06
2320.84	0.582275	-1.2207e-07
2321.74	0.582275	2.47192e-05
2322.58	0.582275	-3.90625e-06
2323.48	0.582245	-1.5564e-06
2324.38	0.582245	1.93176e-05
2325.24	-0.697357	-0.0201294
2326.12	0.582306	-7.93457e-07
2327.02	0.582214	1.42212e-05
2327.88	-0.697723	-0.0134552
2328.76	0.582184	-1.77002e-06
2329.66	0.582245	1.12e-05
2330.54	0.00078125	0.00912781
2331.4	0.582306	-1.28174e-06
2332.3	0.582184	8.5144e-06
2333.18	0.00110474	0.00561066
2334.04	0.582306	-3.11279e-06
2334.94	0.582214	4.36401e-06
2335.84	0.581512	0.0149506
2336.68	0.582214	-3.05176e-06
2337.58	0.582245	4.39453e-06
2338.48	0.582245	0.000287872
2339.32	0.582275	-3.05176e-06
2340.22	0.582214	2.47192e-06
2341.12	0.582275	9.52148e-05
2341.96	0.582245	-3.32642e-06
2342.86	0.582275	1.67847e-06
2343.76	0.582245	5.49316e-05
2344.6	0.582306	-3.78418e-06
2345.5	0.582275	7.62939e-07
2346.4	0.582306	3.50647e-05
2347.24	0.582214	-3.60107e-06
2348.14	0.582275	-1.15967e-06
2349.04	0.582245	2.46277e-05
2349.88	0.582306	-3.26538e-06
2350.78	0.582245	0
2351.68	0.582214	1.828e-05
2352.54	-0.697327	-0.0202271
2353.42	0.582306	-1.67847e-06
2354.32	0.582275	1.44653e-05
2355.18	-0.697723	-0.0135437
2356.06	0.582184	-1.2207e-06
2356.96	0.582275	9.33838e-06
2357.84	0.000784302	0.00908203
2358.7	0.582306	-2.01416e-06
2359.6	0.582184	8.45337e-06
2360.48	0.00113525	0.00560822
2361.34	0.582306	-2.59399e-06
2362.24	0.582336	5.49316e-06
2363.14	0.581512	0.0150604
2363.98	0.582245	-3.63159e-06
2364.88	0.582275	3.84521e-06
2365.78	0.582214	0.000302582
2366.62	0.582275	-3.54004e-06
2367.52	0.582275	2.99072e-06
2368.42	0.582245	9.79004e-05
2369.26	0.582245	-3.60107e-06
2370.16	0.582245	2.13623e-06
2371.06	0.582245	5.54199e-05
2371.9	0.582245	-3.479e-06
2372.8	0.582245	1.19019e-06
2373.7	0.582275	3.68958e-05
2374.54	0.582275	-3.93677e-06
2375.44	0.582214	-1.06812e-06
2376.34	0.582275	2.57568e-05
2377.18	0.582214	-3.96729e-06
2378.08	0.582306	-1.19019e-06
2378.98	0.582214	1.98364e-05
2379.84	-0.697296	-0.0203339
2380.72	0.582245	-5.79834e-07
2381.62	0.582214	1.39771e-05
2382.48	-0.697693	-0.0136353
2383.36	0.582275	-2.04468e-06
2384.26	0.582306	1.05896e-05
2385.14	0.000772095	0.00903931
2386	0.582275	-2.13623e-06
2386.9	0.582275	8.57544e-06
2387.78	0.00112915	0.00560394
2388.64	0.582275	-3.11279e-06
2389.54	0.582214	6.92749e-06
2390.44	0.581512	0.0151581
2391.28	0.582245	-2.01416e-06
2392.18	0.582245	4.76074e-06
2393.08	0.582306	0.000320923
2393.92	0.582245	-3.75366e-06
2394.82	0.582214	3.60107e-06
2395.72	0.582245	9.68628e-05
2396.56	0.582245	-5.40161e-06
2397.46	0.582275	2.7771e-06
2398.36	0.582275	5.63965e-05
2399.2	0.582275	-3.8147e-06
2400.1	0.582245	1.12915e-06
2401	0.582275	3.8208e-05
2401.84	0.582306	-5.34058e-06
2402.74	0.582245	2.83813e-06
2403.64	0.582214	2.67944e-05
2404.48	0.582245	-4.85229e-06
2405.38	0.582214	-1.52588e-07
2406.28	0.582275	1.94702e-05
2407.14	-0.697266	-0.0204254
2408.02	0.582245	-9.15527e-08
2408.92	0.582245	1.55029e-05
2409.78	-0.697662	-0.0137421
2410.66	0.582367	-1.64795e-06
2411.56	0.582214	1.07727e-05
2412.44	0.000759888	0.00899048
2413.3	0.582214	-1.49536e-06
2414.2	0.582214	8.27026e-06
2415.08	0.00112915	0.0055896
2415.94	0.582245	-1.77002e-06
2416.84	0.582245	6.7749e-06
2417.74	0.581451	0.0152649
2418.58	0.582275	-3.02124e-06
2419.48	0.582336	5.00488e-06
2420.38	0.582184	0.000342194
2421.22	0.582306	-3.41797e-06
2422.12	0.582245	3.60107e-06
2423.02	0.582214	9.85107e-05
2423.86	0.582153	-3.35693e-06
2424.76	0.582245	3.17383e-06
2425.66	0.582214	5.63965e-05
2426.5	0.582214	-2.65503e-06
2427.4	0.582245	1.89209e-06
2428.3	0.582245	3.85132e-05
2429.14	0.582245	-5.0354e-06
2430.04	0.582306	5.79834e-07
2430.94	0.582306	2.74048e-05
2431.78	0.582306	-3.90625e-06
2432.68	0.582245	2.74658e-07
2433.58	0.582214	1.88904e-05
2434.44	-0.697235	-0.0205139
2435.32	0.582245	-1.15967e-06
2436.22	0.582245	1.51367e-05
2437.08	-0.697693	-0.0138367
2437.96	0.582306	-1.09863e-06
2438.86	0.582306	1.13831e-05
2439.74	0.00078125	0.0089325
2440.6	0.582214	-1.25122e-06
2441.5	0.582275	8.72803e-06
2442.38	0.00112305	0.00558014
2443.24	0.582245	-2.74658e-06
2444.14	0.582275	7.20215e-06
2445.04	0.581512	0.0153564
2445.88	0.582275	-2.56348e-06
2446.78	0.582245	4.66919e-06
2447.68	0.582306	0.000370056
2448.52	0.582275	-2.47192e-06
2449.42	0.582214	3.87573e-06
2450.32	0.582245	0.000100739
2451.16	0.582306	-2.86865e-06
2452.06	0.582275	1.25122e-06
2452.96	0.582214	5.72205e-05
2453.8	0.582306	-2.2583e-06
2454.7	0.582214	1.12915e-06
2455.6	0.582306	3.8208e-05
2456.44	0.582245	-3.479e-06
2457.34	0.582245	4.27246e-07
2458.24	0.582275	2.68555e-05
2459.08	0.582275	-4.94385e-06
2459.98	0.582214	5.18799e-07
2460.88	0.582275	2.01416e-05
2461.74	-0.697235	-0.0206146
2462.62	0.582245	-1.34277e-06
2463.52	0.582245	1.58691e-05
2464.38	-0.697723	-0.0139313
2465.26	0.582184	-6.40869e-07
2466.16	0.582184	1.18408e-05
2467.04	0.000772095	0.00888062
2467.9	0.582245	-2.34985e-06
2468.8	0.582275	9.49097e-06
2469.68	0.00112	0.00556976
2470.54	0.582245	-1.95313e-06
2471.44	0.582184	6.80542e-06
2472.34	0.581512	0.015451
2473.18	0.582275	-2.83813e-06
2474.08	0.582245	4.27246e-06
2474.98	0.582275	0.000401276
2475.82	0.582306	-3.26538e-06
2476.72	0.582245	3.05176e-06
2477.62	0.582275	0.000100616
2478.46	0.582245	-3.50952e-06
2479.36	0.582245	3.02124e-06
2480.26	0.582275	5.80139e-05
2481.1	0.582275	-3.90625e-06
2482	0.582214	2.50244e-06
2482.9	0.582245	3.82996e-05
2483.74	0.582275	-3.17383e-06
2484.64	0.582336	-9.15527e-08
2485.54	0.582245	2.7771e-05
2486.38	0.582275	-3.75366e-06
2487.28	0.582214	-1.2207e-06
2488.18	0.582245	2.06299e-05
2489.04	-0.697266	-0.020694
2489.92	0.582275	-1.92261e-06
2490.82	0.582245	1.54114e-05
2491.68	-0.697693	-0.0140137
2492.56	0.582275	-3.20435e-06
2493.46	0.582336	1.19934e-05
2494.34	0.000830078	0.00883179
2495.2	0.582275	-1.34277e-06
2496.1	0.582275	9.0332e-06
2496.98	0.00116272	0.00555542
2497.84	0.582275	-1.64795e-06
2498.74	0.582214	7.84302e-06
2499.64	0.581543	0.0155457
2500.48	0.582214	-2.99072e-06
2501.38	0.582275	5.24902e-06
2502.28	0.582275	0.000437042
2503.12	0.582336	-3.05176e-06
2504.02	0.582275	3.20435e-06
2504.92	0.582214	0.000102783
2505.76	0.582214	-3.69263e-06
2506.66	0.582245	4.08936e-06
2507.56	0.582275	5.79529e-05
2508.4	0.582184	-4.48608e-06
2509.3	0.582245	1.34277e-06
2510.2	0.582245	4.00391e-05
2511.04	0.582214	-4.42505e-06
2511.94	0.582306	1.46484e-06
2512.84	0.582275	2.84424e-05
2513.68	0.582214	-4.30298e-06
2514.58	0.582275	-1.09863e-06
2515.48	0.582275	2.13623e-05
2516.34	-0.697266	-0.0207947
2517.22	0.582245	-1.00708e-06
2518.12	0.582214	1.62048e-05
2518.98	-0.697693	-0.0141144
2519.86	0.582275	-9.46045e-07
2520.76	0.582245	1.15051e-05
2521.64	0.000793457	0.00877991
2522.5	0.582245	-1.58691e-06
2523.4	0.582275	9.12476e-06
2524.28	0.0011261	0.0055481
2525.14	0.582245	-1.98364e-06
2526.04	0.582245	6.92749e-06
2526.94	0.581451	0.0156342
2527.78	0.582214	-2.34985e-06
2528.68	0.582306	3.11279e-06
2529.58	0.582275	0.000478241
2530.42	0.582275	-3.93677e-06
2531.32	0.582245	3.11279e-06
2532.22	0.582184	0.000105042
2533.06	0.582214	-4.30298e-06
2533.96	0.582245	2.96021e-06
2534.86	0.582275	5.94482e-05
2535.7	0.582245	-4.30298e-06
2536.6	0.582245	1.46484e-06
2537.5	0.582275	3.83301e-05
2538.34	0.582275	-2.41089e-06
2539.24	0.582245	1.37329e-06
2540.14	0.582245	2.67639e-05
2540.98	0.582245	-3.87573e-06
2541.88	0.582184	4.27246e-07
2542.78	0.582214	1.86157e-05
2543.64	-0.697235	-0.0208771
2544.52	0.582275	-4.88281e-07
2545.42	0.582214	1.40686e-05
2546.28	-0.697723	-0.0141998
2547.16	0.582184	3.05176e-08
2548.06	0.582245	1.26343e-05
2548.94	0.000817871	0.00873718
2549.8	0.582275	-1.2207e-06
2550.7	0.582306	9.27734e-06
2551.58	0.00109253	0.00553253
2552.44	0.582245	-2.80762e-06
2553.34	0.582275	6.92749e-06
2554.24	0.581543	0.0157196
2555.08	0.582245	-1.95313e-06
2555.98	0.582245	4.42505e-06
2556.88	0.582184	0.00052948
2557.72	0.582245	-2.44141e-06
2558.62	0.582275	3.41797e-06
2559.52	0.582275	0.000105225
2560.36	0.582245	-3.14331e-06
2561.26	0.582245	2.59399e-06
2562.16	0.582245	5.99365e-05
2563	0.582275	-3.44849e-06
2563.9	0.582214	1.34277e-06
2564.8	0.582184	4.00085e-05
2565.64	0.582306	-3.14331e-06
2566.54	0.582214	1.00708e-06
2567.44	0.582214	2.80151e-05
2568.28	0.582275	-4.02832e-06
2569.18	0.582306	-1.19019e-06
2570.08	0.582306	1.91345e-05
2570.94	-0.697296	-0.0209564
2571.82	0.582275	-8.8501e-07
2572.72	0.582275	1.58386e-05
2573.58	-0.697693	-0.0142883
2574.46	0.582214	-1.95313e-06
2575.36	0.582245	1.19629e-05
2576.24	0.000762939	0.00868225
2577.1	0.582367	-2.38037e-06
2578	0.582184	9.24683e-06
2578.88	0.0011261	0.00552246
2579.74	0.582306	-2.34985e-06
2580.64	0.582184	6.34766e-06
2581.54	0.581482	0.015802
2582.38	0.582245	-2.96021e-06
2583.28	0.582214	5.40161e-06
2584.18	0.582214	0.000587769
2585.02	0.582245	-3.02124e-06
2585.92	0.582275	3.90625e-06
2586.82	0.582214	0.000108002
2587.66	0.582275	-4.02832e-06
2588.56	0.582336	1.92261e-06
2589.46	0.582306	6.15845e-05
2590.3	0.582214	-3.14331e-06
2591.2	0.582214	2.53296e-06
2592.1	0.582245	4.13208e-05
2592.94	0.582306	-3.84521e-06
2593.84	0.582275	2.74658e-07
2594.74	0.582214	2.88696e-05
2595.58	0.582306	-4.94385e-06
2596.48	0.582153	6.10352e-08
2597.38	0.582214	2.14539e-05
2598.24	-0.697235	-0.0210388
2599.12	0.582184	-1.86157e-06
2600.02	0.582306	1.58997e-05
2600.88	-0.697662	-0.0143707
2601.76	0.582245	-2.13623e-07
2602.66	0.582245	1.32141e-05
2603.54	0.000817871	0.00863342
2604.4	0.582306	-2.38037e-06
2605.3	0.582275	9.765625E-06
2606.18	0.00111694	0.0055072
2607.04	0.582245	-2.2583e-06
2607.94	0.582245	6.86646e-06
2608.84	0.581451	0.0158844
2609.68	0.582275	-3.26538e-06
2610.58	0.582214	6.98853e-06
2611.48	0.582306	0.000652771
2612.32	0.582306	-4.36401e-06
2613.22	0.582214	5.18799e-06
2614.12	0.582245	0.000107117
2614.96	0.582214	-3.23486e-06
2615.86	0.582184	3.32642e-06
2616.76	0.582184	6.21643e-05
2617.6	0.582245	-4.36401e-06
2618.5	0.582245	2.71606e-06
2619.4	0.582245	4.20532e-05
2620.24	0.582245	-4.85229e-06
2621.14	0.582123	2.47192e-06
2622.04	0.582275	2.96631e-05
2622.88	0.582245	-3.75366e-06
2623.78	0.582214	1.83105e-07
2624.68	0.582245	2.20337e-05
2625.54	-0.697266	-0.0211273
2626.42	0.582245	-7.32422e-07
2627.32	0.582245	1.48315e-05
2628.18	-0.697601	-0.0144653
2629.06	0.582275	-4.57764e-07
2629.96	0.582245	1.38245e-05
2630.84	0.000796509	0.00857849
2631.7	0.582275	-1.92261e-06
2632.6	0.582245	1.10474e-05
2633.48	0.00113831	0.00549103
2634.34	0.582275	-1.19019e-06
2635.24	0.582306	6.92749e-06
2636.14	0.581451	0.0159576
2636.98	0.582275	-3.11279e-06
2637.88	0.582153	5.70679e-06
2638.78	0.582245	0.000732422
2639.62	0.582245	-3.11279e-06
2640.52	0.582245	5.46265e-06
2641.42	0.582275	0.000109741
2642.26	0.582275	-4.21143e-06
2643.16	0.582275	3.78418e-06
2644.06	0.582275	6.1554e-05
2644.9	0.582306	-4.5166e-06
2645.8	0.582245	1.89209e-06
2646.7	0.582153	4.06189e-05
2647.54	0.582245	-2.62451e-06
2648.44	0.582275	1.40381e-06
2649.34	0.582275	2.84424e-05
2650.18	0.582184	-4.27246e-06
2651.08	0.582275	-7.01904e-07
2651.98	0.582306	2.13623e-05
2652.84	-0.697205	-0.0212097
2653.72	0.582245	9.46045e-07
2654.62	0.582306	1.5686e-05
2655.48	-0.697571	-0.014563
2656.36	0.582275	-7.32422e-07
2657.26	0.582214	1.30005e-05
2658.14	0.000775146	0.00853882
2659	0.582214	-7.32422e-07
2659.9	0.582245	9.21631e-06
2660.78	0.00115662	0.00548157
2661.64	0.582306	-1.95313e-06
2662.54	0.582245	7.56836e-06
2663.44	0.581451	0.0160339
2664.28	0.582275	-2.28882e-06
2665.18	0.582214	6.83594e-06
2666.08	0.582245	0.00081543
2666.92	0.582306	-1.19019e-06
2667.82	0.582245	5.40161e-06
2668.72	0.582245	0.000111359
2669.56	0.582336	-3.11279e-06
2670.46	0.582306	3.05176e-06
2671.36	0.582245	6.28662e-05
2672.2	0.582245	-2.28882e-06
2673.1	0.582245	3.63159e-06
2674	0.582245	4.18701e-05
2674.84	0.582245	-4.02832e-06
2675.74	0.582214	9.15527e-08
2676.64	0.582275	2.94495e-05
2677.48	0.582245	-4.08936e-06
2678.38	0.582306	1.09863e-06
2679.28	0.582306	2.23999e-05
2680.14	-0.697235	-0.0213104
2681.02	0.582336	-4.57764e-07
2681.92	0.582245	1.76086e-05
2682.78	-0.697693	-0.0146637
2683.66	0.582336	-1.0376e-06
2684.56	0.582214	1.26953e-05
2685.44	0.000848389	0.00848083
2686.3	0.582245	-2.13623e-06
2687.2	0.582245	9.39941e-06
2688.08	0.00117493	0.00546753
2688.94	0.582245	-2.04468e-06
2689.84	0.582245	7.2937e-06
2690.74	0.581482	0.0161133
2691.58	0.582306	-2.65503e-06
2692.48	0.582275	4.42505e-06
2693.38	0.582214	0.000917969
2694.22	0.582275	-3.05176e-06
2695.12	0.582245	4.36401e-06
2696.02	0.582336	0.000113037
2696.86	0.582306	-3.57056e-06
2697.76	0.582245	3.2959e-06
2698.66	0.582245	6.43616e-05
2699.5	0.582214	-3.41797e-06
2700.4	0.582245	4.27246e-07
2701.3	0.582275	4.13818e-05
2702.14	0.582275	-2.80762e-06
2703.04	0.582245	1.5564e-06
2703.94	0.582275	3.03345e-05
2704.78	0.582275	-4.57764e-06
2705.68	0.582275	-4.57764e-07
2706.58	0.582245	2.14233e-05
2707.44	-0.697235	-0.0213837
2708.32	0.582275	-1.2207e-07
2709.22	0.582275	1.71814e-05
2710.08	-0.697693	-0.0147522
2710.96	0.582306	-1.83105e-07
2711.86	0.582245	1.33972e-05
2712.74	0.000784302	0.0084259
2713.6	0.582245	-1.77002e-06
2714.5	0.582184	9.765625E-06
2715.38	0.00112305	0.00544586
2716.24	0.582184	-2.96021e-06
2717.14	0.582306	7.96509e-06
2718.04	0.581421	0.0161865
2718.88	0.582214	-1.89209e-06
2719.78	0.582275	6.5918e-06
2720.68	0.582214	0.00103027
2721.52	0.582184	-2.7771e-06
2722.42	0.582245	5.5542e-06
2723.32	0.582214	0.00011615
2724.16	0.582275	-3.93677e-06
2725.06	0.582245	2.96021e-06
2725.96	0.582214	6.41479e-05
2726.8	0.582245	-2.28882e-06
2727.7	0.582214	1.19019e-06
2728.6	0.582306	4.25415e-05
2729.44	0.582367	-3.87573e-06
2730.34	0.582214	1.77002e-06
2731.24	0.582306	2.99683e-05
2732.08	0.582275	-4.39453e-06
2732.98	0.582214	4.27246e-07
2733.88	0.582214	2.3407e-05
2734.74	-0.697205	-0.02146
2735.62	0.582275	-1.52588e-07
2736.52	0.582245	1.80969e-05
2737.38	-0.697601	-0.0148285
2738.26	0.582245	-1.89209e-06
2739.16	0.582245	1.30615e-05
2740.04	0.000747681	0.00837708
2740.9	0.582275	-3.05176e-07
2741.8	0.582214	1.12e-05
2742.68	0.00112915	0.00542786
2743.54	0.582245	-2.0752e-06
2744.44	0.582214	8.36182e-06
2745.34	0.58139	0.0162476
2746.18	0.582275	-2.50244e-06
2747.08	0.582306	6.71387e-06
2747.98	0.582306	0.00115112
2748.82	0.582245	-2.68555e-06
2749.72	0.582214	5.40161e-06
2750.62	0.582306	0.000115021
2751.46	0.582245	-2.65503e-06
2752.36	0.582245	4.15039e-06
2753.26	0.582245	6.39648e-05
2754.1	0.582184	-2.56348e-06
2755	0.582275	2.7771e-06
2755.9	0.582214	4.26636e-05
2756.74	0.582275	-4.08936e-06
2757.64	0.582306	1.64795e-06
2758.54	0.582245	3.06396e-05
2759.38	0.582245	-3.69263e-06
2760.28	0.582245	1.15967e-06
2761.18	0.582306	2.24915e-05
2762.04	-0.697205	-0.0215271
2762.92	0.582275	6.71387e-07
2763.82	0.582245	1.75781e-05
2764.68	-0.697662	-0.0149261
2765.56	0.582275	-9.15527e-07
2766.46	0.582214	1.38855e-05
2767.34	0.000787354	0.0083252
2768.2	0.582245	-7.93457e-07
2769.1	0.582275	1.09253e-05
2769.98	0.00114746	0.00540833
2770.84	0.582306	-1.2207e-07
2771.74	0.582245	7.8125e-06
2772.64	0.581482	0.0163147
2773.48	0.582214	-2.16675e-06
2774.38	0.582214	6.04248e-06
2775.28	0.582214	0.001297
2776.12	0.582245	-3.02124e-06
2777.02	0.582245	4.94385e-06
2777.92	0.582245	0.000117706
2778.76	0.582275	-1.83105e-06
2779.66	0.582306	2.99072e-06
2780.56	0.582214	6.55212e-05
2781.4	0.582214	-3.2959e-06
2782.3	0.582275	2.01416e-06
2783.2	0.582214	4.27551e-05
2784.04	0.582275	-4.05884e-06
2784.94	0.582214	2.34985e-06
2785.84	0.582306	3.02734e-05
2786.68	0.582245	-3.84521e-06
2787.58	0.582245	8.54492e-07
2788.48	0.582275	2.38037e-05
2789.34	-0.697235	-0.0216125
2790.22	0.582306	-3.05176e-08
2791.12	0.582214	1.73035e-05
2791.98	-0.697601	-0.0150085
2792.86	0.582306	-1.37329e-06
2793.76	0.582214	1.27869e-05
2794.64	0.000808716	0.00827026
2795.5	0.582275	-1.95313e-06
2796.4	0.582245	1.08643e-05
2797.28	0.00119324	0.00539246
2798.14	0.582245	-2.47192e-06
2799.04	0.582245	8.91113e-06
2799.94	0.581421	0.0163849
2800.78	0.582275	-8.23975e-07
2801.68	0.582153	5.85937e-06
2802.58	0.582306	0.00147217
2803.42	0.582336	-1.86157e-06
2804.32	0.582214	2.47192e-06
2805.22	0.582275	0.000120514
2806.06	0.582245	-2.89917e-06
2806.2	0.582275	-3.57056e-06