File: Edgar/20240503/20240503/electrodeposition_pulsed_potential_20240503_A/pulses_0_to_1000.txt
Time (s)	WE(1).Potential (V)	WE(1).Current (A)
181.69	-0.698334	-0.00332825
182.57	0.582336	-9.09424e-06
183.47	0.582245	-9.0332e-06
184.33	-0.698303	-0.00249054
185.21	0.582336	-9.0332e-06
186.11	0.582306	-9.15527e-06
186.99	0.00115662	0.000197388
187.85	0.582275	-9.61304e-06
188.75	0.582306	-9.15527e-06
189.63	0.0012085	4.25415e-05
190.49	0.582336	-9.33838e-06
191.39	0.582275	-9.06372e-06
192.29	0.582306	6.17981e-05
193.13	0.582336	-1.00708e-05
194.03	0.582306	-8.60596e-06
194.93	0.582306	1.05896e-05
195.77	0.582275	-9.52148e-06
196.67	0.582275	-8.81958e-06
197.57	0.582306	2.74658e-06
198.41	0.582306	-9.33838e-06
199.31	0.582306	-8.81958e-06
200.21	0.582306	-6.10352e-07
201.05	0.582245	-9.24683e-06
201.95	0.582306	-7.62939e-06
202.85	0.582275	-1.61743e-06
203.69	0.582275	-8.3313e-06
204.59	0.582306	-8.30078e-06
205.49	0.582336	-3.05176e-06
206.33	0.582306	-9.552e-06
207.23	0.582275	-8.66699e-06
208.13	0.582275	-3.8147e-06
208.99	-0.698334	-0.0036618
209.87	0.582336	-8.69751e-06
210.77	0.582306	-4.21143e-06
211.63	-0.698334	-0.00277618
212.51	0.582245	-7.53784e-06
213.41	0.582306	-5.31006e-06
214.29	0.00124207	0.000439056
215.15	0.582275	-8.05664e-06
216.05	0.582397	-5.58472e-06
216.93	0.00116882	6.18591e-05
217.79	0.582275	-7.62939e-06
218.69	0.582275	-4.88281e-06
219.59	0.582367	7.07703e-05
220.43	0.582306	-7.62939e-06
221.33	0.582275	-5.49316e-06
222.23	0.582245	1.79443e-05
223.07	0.582275	-7.8125e-06
223.97	0.582336	-6.16455e-06
224.87	0.582214	7.23267e-06
225.71	0.582275	-8.42285e-06
226.61	0.582306	-6.10352e-06
227.51	0.582275	3.479e-06
228.35	0.582306	-8.05664e-06
229.25	0.582306	-6.31714e-06
230.15	0.582214	-2.13623e-07
230.99	0.582184	-7.59888e-06
231.89	0.582367	-6.80542e-06
232.79	0.582275	-1.67847e-06
233.63	0.582306	-7.69043e-06
234.53	0.582336	-7.32422e-06
235.43	0.582245	-2.56348e-06
236.29	-0.698273	-0.00447815
237.17	0.582306	-7.20215e-06
238.07	0.582275	-4.57764e-06
238.93	-0.698334	-0.00304199
239.81	0.582245	-6.7749e-06
240.71	0.582275	-4.63867e-06
241.59	0.00131531	0.0010675
242.45	0.582275	-7.90405e-06
243.35	0.582336	-5.34058e-06
244.23	0.00119629	7.10449e-05
245.09	0.582245	-7.32422e-06
245.99	0.582245	-5.0354e-06
246.89	0.582336	7.19299e-05
247.73	0.582306	-8.08716e-06
248.63	0.582275	-5.49316e-06
249.53	0.582214	1.94702e-05
250.37	0.582336	-7.44629e-06
251.27	0.582306	-6.01196e-06
252.17	0.582245	8.97217e-06
253.01	0.582275	-8.02612e-06
253.91	0.582275	-6.7749e-06
254.81	0.582245	4.27246e-06
255.65	0.582275	-8.91113e-06
256.55	0.582306	-6.89697e-06
257.45	0.582306	8.54492e-07
258.29	0.582306	-8.97217e-06
259.19	0.582306	-6.86646e-06
260.09	0.582306	-5.18799e-07
260.93	0.582306	-8.39233e-06
261.83	0.582336	-7.65991e-06
262.73	0.582275	-3.32642e-06
263.59	-0.698273	-0.00519012
264.47	0.582275	-7.47681e-06
265.37	0.582275	-2.53296e-06
266.23	-0.698303	-0.00321747
267.11	0.582306	-6.89697e-06
268.01	0.582275	-3.20435e-06
268.89	0.00132751	0.00223114
269.75	0.582245	-7.78198e-06
270.65	0.582275	-5.24902e-06
271.53	0.00117798	8.09631e-05
272.39	0.582275	-7.32422e-06
273.29	0.582306	-4.91333e-06
274.19	0.582306	7.29065e-05
275.03	0.582275	-8.23975e-06
275.93	0.582306	-6.13403e-06
276.83	0.582275	1.88599e-05
277.67	0.582275	-7.99561e-06
278.57	0.582275	-5.34058e-06
279.47	0.582275	6.95801e-06
280.31	0.582336	-7.62939e-06
281.21	0.582245	-6.43921e-06
282.11	0.582214	2.59399e-06
282.95	0.582275	-8.97217e-06
283.85	0.582336	-7.38525e-06
284.75	0.582275	2.44141e-07
285.59	0.582306	-8.08716e-06
286.49	0.582275	-6.92749e-06
287.39	0.582245	-1.58691e-06
288.23	0.582367	-8.45337e-06
289.13	0.582245	-7.75146e-06
290.03	0.582245	-3.8147e-06
290.89	-0.698151	-0.00580536
291.77	0.582245	-6.83594e-06
292.67	0.582306	-3.69263e-06
293.53	-0.698334	-0.00336426
294.41	0.582275	-7.87354e-06
295.31	0.582275	-4.54712e-06
296.19	0.00127869	0.00346008
297.05	0.582306	-7.38525e-06
297.95	0.582245	-5.31006e-06
298.83	0.00122986	9.32617e-05
299.69	0.582275	-7.87354e-06
300.59	0.582214	-5.67627e-06
301.49	0.582306	7.47375e-05
302.33	0.582275	-8.20923e-06
303.23	0.582245	-6.37817e-06
304.13	0.582306	1.98059e-05
304.97	0.582306	-8.02612e-06
305.87	0.582306	-7.08008e-06
306.77	0.582275	8.36182e-06
307.61	0.582245	-8.39233e-06
308.51	0.582306	-7.38525e-06
309.41	0.582214	2.92969e-06
310.25	0.582275	-8.5144e-06
311.15	0.582275	-7.32422e-06
312.05	0.582306	-4.57764e-07
312.89	0.582275	-8.54492e-06
313.79	0.582306	-7.62939e-06
314.69	0.582367	-1.7395e-06
315.53	0.582214	-9.58252e-06
316.43	0.582336	-7.99561e-06
317.33	0.582336	-3.05176e-06
318.19	-0.698242	-0.006362
319.07	0.582336	-8.60596e-06
319.97	0.582275	-4.05884e-06
320.83	-0.698273	-0.00350769
321.71	0.582245	-7.84302e-06
322.61	0.582336	-5.09644e-06
323.49	0.00119324	0.00449249
324.35	0.582306	-7.87354e-06
325.25	0.582336	-5.88989e-06
326.13	0.00118408	0.000112976
326.99	0.582275	-8.54492e-06
327.89	0.582306	-6.22559e-06
328.79	0.582336	7.59583e-05
329.63	0.582245	-7.87354e-06
330.53	0.582306	-6.95801e-06
331.43	0.582275	1.79749e-05
332.27	0.582275	-7.78198e-06
333.17	0.582245	-6.5918e-06
334.07	0.582306	7.56836e-06
334.91	0.582306	-8.14819e-06
335.81	0.582336	-7.32422e-06
336.71	0.582245	2.0752e-06
337.55	0.582275	-8.78906e-06
338.45	0.582275	-7.01904e-06
339.35	0.582245	-2.19727e-06
340.19	0.582275	-8.14819e-06
341.09	0.582245	-7.59888e-06
341.99	0.582275	-2.41089e-06
342.83	0.582275	-8.54492e-06
343.73	0.582306	-8.60596e-06
344.63	0.582245	-3.57056e-06
345.49	-0.69812	-0.00687744
346.37	0.582275	-7.59888e-06
347.27	0.582275	-4.82178e-06
348.13	-0.698334	-0.00365509
349.01	0.582245	-8.27026e-06
349.91	0.582275	-5.61523e-06
350.79	0.0012146	0.00530884
351.65	0.582336	-8.45337e-06
352.55	0.582245	-6.13403e-06
353.43	0.00118408	0.000143585
354.29	0.582306	-7.8125e-06
355.19	0.582306	-5.95093e-06
356.09	0.582306	7.88879e-05
356.93	0.582275	-9.552e-06
357.83	0.582275	-6.74438e-06
358.73	0.582245	1.85242e-05
359.57	0.582275	-9.12476e-06
360.47	0.582306	-7.84302e-06
361.37	0.582306	7.59888e-06
362.21	0.582275	-8.75854e-06
363.11	0.582275	-7.62939e-06
364.01	0.582245	2.19727e-06
364.85	0.582275	-9.0332e-06
365.75	0.582306	-7.69043e-06
366.65	0.582275	-1.70898e-06
367.49	0.582214	-9.09424e-06
368.39	0.582306	-7.41577e-06
369.29	0.582306	-2.38037e-06
370.13	0.582245	-9.39941e-06
371.03	0.582214	-6.98853e-06
371.93	0.582306	-3.44849e-06
372.79	-0.69812	-0.00737274
373.67	0.582245	-7.84302e-06
374.57	0.582275	-4.69971e-06
375.43	-0.698303	-0.00381287
376.31	0.582336	-8.3313e-06
377.21	0.582306	-6.01196e-06
378.09	0.00118103	0.00595551
378.95	0.582245	-8.05664e-06
379.85	0.582306	-6.5918e-06
380.73	0.0012085	0.000192139
381.59	0.582275	-7.99561e-06
382.49	0.582336	-7.2937e-06
383.39	0.582245	8.24585e-05
384.23	0.582275	-8.3313e-06
385.13	0.582306	-6.89697e-06
386.03	0.582245	1.89819e-05
386.87	0.582306	-7.69043e-06
387.77	0.582306	-7.32422e-06
388.67	0.582245	6.40869e-06
389.51	0.582245	-8.05664e-06
390.41	0.582245	-7.38525e-06
391.31	0.582245	2.10571e-06
392.15	0.582245	-8.57544e-06
393.05	0.582275	-7.17163e-06
393.95	0.582275	-1.64795e-06
394.79	0.582245	-8.63647e-06
395.69	0.582306	-9.09424e-06
396.59	0.582275	-3.14331e-06
397.43	0.582306	-8.63647e-06
398.33	0.582245	-8.88062e-06
399.23	0.582214	-4.21143e-06
400.09	-0.698181	-0.00783691
400.97	0.582245	-8.5144e-06
401.87	0.582306	-5.00488e-06
402.73	-0.698242	-0.00397888
403.61	0.582214	-9.12476e-06
404.51	0.582214	-5.27954e-06
405.39	0.00116272	0.00648743
406.25	0.582245	-8.05664e-06
407.15	0.582275	-6.10352e-06
408.03	0.0012146	0.000261108
408.89	0.582245	-8.23975e-06
409.79	0.582306	-6.34766e-06
410.69	0.582275	8.62427e-05
411.53	0.582306	-8.5144e-06
412.43	0.582245	-6.10352e-06
413.33	0.582275	2.00806e-05
414.17	0.582306	-9.15527e-06
415.07	0.582245	-6.34766e-06
415.97	0.582336	7.14111e-06
416.81	0.582245	-9.79614e-06
417.71	0.582306	-7.62939e-06
418.61	0.582336	1.64795e-06
419.45	0.582275	-8.57544e-06
420.35	0.582275	-7.44629e-06
421.25	0.582336	-5.49316e-07
422.09	0.582245	-8.69751e-06
422.99	0.582245	-7.38525e-06
423.89	0.582245	-2.47192e-06
424.73	0.582275	-8.08716e-06
425.63	0.582275	-7.35474e-06
426.53	0.582245	-3.20435e-06
427.39	-0.698181	-0.00828857
428.27	0.582214	-8.17871e-06
429.17	0.582336	-5.31006e-06
430.03	-0.698273	-0.00414825
430.91	0.582306	-7.84302e-06
431.81	0.582214	-5.85937e-06
432.69	0.00115356	0.00693085
433.55	0.582306	-7.53784e-06
434.45	0.582214	-6.04248e-06
435.33	0.00119629	0.000357788
436.19	0.582336	-7.69043e-06
437.09	0.582306	-7.08008e-06
437.99	0.582275	9.05151e-05
438.83	0.582306	-7.38525e-06
439.73	0.582214	-7.08008e-06
440.63	0.582214	2.10266e-05
441.47	0.582245	-8.17871e-06
442.37	0.582214	-7.90405e-06
443.27	0.582275	7.56836e-06
444.11	0.582245	-9.00269e-06
445.01	0.582245	-6.7749e-06
445.91	0.582214	1.2207e-06
446.75	0.582306	-9.42993e-06
447.65	0.582245	-8.11768e-06
448.55	0.582275	-1.25122e-06
449.39	0.582275	-8.78906e-06
450.29	0.582275	-8.30078e-06
451.19	0.582275	-2.99072e-06
452.03	0.582275	-8.3313e-06
452.93	0.582275	-9.12476e-06
453.83	0.582306	-3.93677e-06
454.69	-0.69812	-0.00871887
455.57	0.582245	-9.09424e-06
456.47	0.582153	-4.88281e-06
457.33	-0.698273	-0.00432098
458.21	0.582184	-8.60596e-06
459.11	0.582245	-5.27954e-06
459.99	0.00115051	0.00731812
460.85	0.582245	-9.3689e-06
461.75	0.582306	-6.2561e-06
462.63	0.00119019	0.000478546
463.49	0.582275	-8.27026e-06
464.39	0.582336	-6.13403e-06
465.29	0.582306	9.58557e-05
466.13	0.582275	-8.8501e-06
467.03	0.582245	-6.34766e-06
467.93	0.582245	2.15454e-05
468.77	0.582306	-8.48389e-06
469.67	0.582275	-6.50024e-06
470.57	0.582275	8.69751e-06
471.41	0.582245	-8.78906e-06
472.31	0.582184	-6.7749e-06
473.21	0.582245	1.98364e-06
474.05	0.582245	-8.8501e-06
474.95	0.582306	-7.56836e-06
475.85	0.582306	-7.32422e-07
476.69	0.582214	-8.69751e-06
477.59	0.582275	-6.40869e-06
478.49	0.582306	-3.17383e-06
479.33	0.582245	-9.42993e-06
480.23	0.582214	-7.44629e-06
481.13	0.582214	-3.69263e-06
481.99	-0.698059	-0.00913391
482.87	0.582306	-7.72095e-06
483.77	0.582275	-4.69971e-06
484.63	-0.698212	-0.00450043
485.51	0.582245	-6.92749e-06
486.41	0.582214	-5.95093e-06
487.29	0.0009765625	0.00765381
488.15	0.582245	-8.20923e-06
489.05	0.582275	-7.23267e-06
489.93	0.00126648	0.000626831
490.79	0.582275	-8.08716e-06
491.69	0.582275	-6.01196e-06
492.59	0.582306	0.000101013
493.43	0.582275	-8.69751e-06
494.33	0.582214	-7.47681e-06
495.23	0.582214	2.36816e-05
496.07	0.582336	-8.57544e-06
496.97	0.582275	-7.93457e-06
497.87	0.582245	8.23975e-06
498.71	0.582275	-8.75854e-06
499.61	0.582245	-7.59888e-06
500.51	0.582245	3.54004e-06
501.35	0.582306	-8.27026e-06
502.25	0.582245	-7.35474e-06
503.15	0.582275	-5.79834e-07
503.99	0.582214	-8.20923e-06
504.89	0.582214	-7.78198e-06
505.79	0.582245	-2.31934e-06
506.63	0.582245	-8.75854e-06
507.53	0.582214	-8.57544e-06
508.43	0.582275	-3.78418e-06
509.29	-0.69809	-0.00953674
510.17	0.582275	-8.14819e-06
511.07	0.582245	-4.45557e-06
511.93	-0.698242	-0.00468018
512.81	0.582214	-8.78906e-06
513.71	0.582275	-4.63867e-06
514.59	0.00100403	0.00793762
515.45	0.582214	-8.66699e-06
516.35	0.582214	-4.88281e-06
517.23	0.00127258	0.000786743
518.09	0.582245	-7.69043e-06
518.99	0.582245	-6.01196e-06
519.89	0.582275	0.000106964
520.73	0.582275	-8.81958e-06
521.63	0.582245	-4.94385e-06
522.53	0.582245	2.40173e-05
523.37	0.582306	-9.91821e-06
524.27	0.582275	-6.83594e-06
525.17	0.582245	9.70459e-06
526.01	0.582306	-8.54492e-06
526.91	0.582214	-6.65283e-06
527.81	0.582306	2.7771e-06
528.65	0.582184	-8.8501e-06
529.55	0.582245	-6.56128e-06
530.45	0.582123	1.52588e-07
531.29	0.582245	-9.552e-06
532.19	0.582214	-8.27026e-06
533.09	0.582245	-1.5564e-06
533.93	0.582245	-8.45337e-06
534.83	0.582275	-8.02612e-06
535.73	0.582275	-3.50952e-06
536.59	-0.698029	-0.00991821
537.47	0.582245	-7.56836e-06
538.37	0.582214	-5.18799e-06
539.23	-0.698212	-0.00485931
540.11	0.582306	-7.96509e-06
541.01	0.582245	-5.7373e-06
541.89	0.000994873	0.00820923
542.75	0.582275	-8.66699e-06
543.65	0.582306	-5.95093e-06
544.53	0.00125427	0.000960388
545.39	0.582336	-8.45337e-06
546.29	0.582214	-6.83594e-06
547.19	0.582245	0.000112885
548.03	0.582214	-8.3313e-06
548.93	0.582306	-7.41577e-06
549.83	0.582245	2.63672e-05
550.67	0.582306	-8.36182e-06
551.57	0.582275	-7.32422e-06
552.47	0.582306	1.12305e-05
553.31	0.582275	-8.69751e-06
554.21	0.582245	-7.14111e-06
555.11	0.582245	4.11987e-06
555.95	0.582275	-8.02612e-06
556.85	0.582245	-6.65283e-06
557.75	0.582275	5.18799e-07
558.59	0.582245	-8.8501e-06
559.49	0.582275	-8.02612e-06
560.39	0.582275	-1.34277e-06
561.23	0.582275	-9.18579e-06
562.13	0.582245	-9.21631e-06
563.03	0.582275	-2.86865e-06
563.89	-0.69809	-0.0102814
564.77	0.582275	-8.39233e-06
565.67	0.582306	-3.69263e-06
566.53	-0.698181	-0.00504089
567.41	0.582275	-8.05664e-06
568.31	0.582275	-5.49316e-06
569.19	0.000991821	0.00844116
570.05	0.582214	-8.23975e-06
570.95	0.582306	-4.39453e-06
571.83	0.00127869	0.00114685
572.69	0.582245	-7.99561e-06
573.59	0.582275	-6.10352e-06
574.49	0.582306	0.000119232
575.33	0.582245	-8.36182e-06
576.23	0.582275	-6.89697e-06
577.13	0.582153	2.70691e-05
577.97	0.582245	-8.81958e-06
578.87	0.582275	-6.92749e-06
579.77	0.582275	1.13525e-05
580.61	0.582245	-8.20923e-06
581.51	0.582245	-6.80542e-06
582.41	0.582214	4.54712e-06
583.25	0.582306	-9.12476e-06
584.15	0.582275	-7.32422e-06
585.05	0.582214	1.83105e-07
585.89	0.582275	-7.99561e-06
586.79	0.582306	-7.84302e-06
587.69	0.582184	-1.15967e-06
588.53	0.582306	-8.72803e-06
589.43	0.582275	-7.50732e-06
590.33	0.582184	-3.479e-06
591.19	-0.697968	-0.0106323
592.07	0.582275	-7.99561e-06
592.97	0.582245	-4.97437e-06
593.83	-0.698151	-0.00521698
594.71	0.582336	-7.87354e-06
595.61	0.582214	-5.40161e-06
596.49	0.0009552	0.00864868
597.35	0.582245	-8.39233e-06
598.25	0.582214	-6.65283e-06
599.13	0.00126038	0.00133881
599.99	0.582214	-7.84302e-06
600.89	0.582245	-6.2561e-06
601.79	0.582367	0.000127136
602.63	0.582275	-8.48389e-06
603.53	0.582306	-6.37817e-06
604.43	0.582306	2.91748e-05
605.27	0.582245	-9.39941e-06
606.17	0.582306	-7.44629e-06
607.07	0.582336	1.24512e-05
607.91	0.582214	-8.66699e-06
608.81	0.582306	-7.26318e-06
609.71	0.582275	6.10352e-06
610.55	0.582275	-9.24683e-06
611.45	0.582306	-7.72095e-06
612.35	0.582245	6.71387e-07
613.19	0.582214	-8.5144e-06
614.09	0.582275	-7.72095e-06
614.99	0.582275	-1.2207e-06
615.83	0.582306	-9.15527e-06
616.73	0.582306	-7.72095e-06
617.63	0.582245	-1.67847e-06
618.49	-0.697937	-0.0109711
619.37	0.582245	-7.32422e-06
620.27	0.582306	-3.75366e-06
621.13	-0.698181	-0.00539673
622.01	0.582306	-8.05664e-06
622.91	0.582245	-3.93677e-06
623.79	0.000979614	0.00883789
624.65	0.582214	-8.27026e-06
625.55	0.582245	-4.66919e-06
626.43	0.00124207	0.0015329
627.29	0.582245	-8.5144e-06
628.19	0.582336	-6.74438e-06
629.09	0.582275	0.000133972
629.93	0.582275	-8.05664e-06
630.83	0.582245	-6.2561e-06
631.73	0.582214	3.03345e-05
632.57	0.582245	-8.57544e-06
633.47	0.582275	-6.65283e-06
634.37	0.582245	1.25732e-05
635.21	0.582275	-8.3313e-06
636.11	0.582245	-6.22559e-06
637.01	0.582245	5.15747e-06
637.85	0.582275	-8.3313e-06
638.75	0.582214	-6.31714e-06
639.65	0.582336	1.12915e-06
640.49	0.582245	-8.36182e-06
641.39	0.582336	-7.87354e-06
642.29	0.582245	-1.5564e-06
643.13	0.582275	-8.36182e-06
644.03	0.582336	-7.14111e-06
644.93	0.582306	-2.16675e-06
645.79	-0.697968	-0.0112946
646.67	0.582306	-8.5144e-06
647.57	0.582275	-4.15039e-06
648.43	-0.69812	-0.00557281
649.31	0.582275	-7.69043e-06
650.21	0.582214	-4.08936e-06
651.09	0.0009765625	0.00900879
651.95	0.582275	-8.05664e-06
652.85	0.582245	-5.34058e-06
653.73	0.00125427	0.00173248
654.59	0.582245	-8.5144e-06
655.49	0.582214	-6.28662e-06
656.39	0.582306	0.000143341
657.23	0.582275	-8.5144e-06
658.13	0.582214	-6.10352e-06
659.03	0.582245	3.2959e-05
659.87	0.582245	-8.72803e-06
660.77	0.582184	-7.62939e-06
661.67	0.582306	1.32446e-05
662.51	0.582275	-8.57544e-06
663.41	0.582214	-6.46973e-06
664.31	0.582275	6.86646e-06
665.15	0.582245	-9.06372e-06
666.05	0.582275	-8.30078e-06
666.95	0.582306	1.67847e-06
667.79	0.582275	-8.08716e-06
668.69	0.582214	-7.38525e-06
669.59	0.582306	-6.10352e-08
670.43	0.582214	-8.94165e-06
671.33	0.582245	-7.62939e-06
672.23	0.582245	-2.10571e-06
673.09	-0.697968	-0.0115967
673.97	0.582214	-8.5144e-06
674.87	0.582245	-2.34985e-06
675.73	-0.698212	-0.00574982
676.61	0.582214	-7.47681e-06
677.51	0.582306	-3.14331e-06
678.39	0.000930786	0.00916138
679.25	0.582275	-8.57544e-06
680.15	0.582245	-4.21143e-06
681.03	0.00121765	0.00192352
681.89	0.582275	-7.72095e-06
682.79	0.582245	-5.0354e-06
683.69	0.582336	0.000151428
684.53	0.582275	-8.57544e-06
685.43	0.582306	-5.67627e-06
686.33	0.582214	3.40881e-05
687.17	0.582275	-8.05664e-06
688.07	0.582275	-5.31006e-06
688.97	0.582184	1.41602e-05
689.81	0.582245	-8.27026e-06
690.71	0.582275	-6.62231e-06
691.61	0.582275	6.01196e-06
692.45	0.582275	-8.05664e-06
693.35	0.582214	-7.20215e-06
694.25	0.582214	1.37329e-06
695.09	0.582275	-9.00269e-06
695.99	0.582275	-6.95801e-06
696.89	0.582275	-6.40869e-07
697.73	0.582275	-8.17871e-06
698.63	0.582275	-6.43921e-06
699.53	0.582306	-2.80762e-06
700.39	-0.697937	-0.0118805
701.27	0.582245	-7.84302e-06
702.17	0.582245	-3.8147e-06
703.03	-0.698181	-0.00591736
703.91	0.582306	-7.23267e-06
704.81	0.582275	-3.9978e-06
705.69	0.000942993	0.00930176
706.55	0.582214	-8.17871e-06
707.45	0.582214	-4.79126e-06
708.33	0.00128784	0.00211914
709.19	0.582245	-8.72803e-06
710.09	0.582214	-5.0354e-06
710.99	0.582336	0.000164215
711.83	0.582306	-8.20923e-06
712.73	0.582245	-5.52368e-06
713.63	0.582275	3.72314e-05
714.47	0.582275	-8.3313e-06
715.37	0.582245	-6.22559e-06
716.27	0.582245	1.55945e-05
717.11	0.582306	-8.54492e-06
718.01	0.582245	-7.08008e-06
718.91	0.582245	8.42285e-06
719.75	0.582245	-8.11768e-06
720.65	0.582275	-7.04956e-06
721.55	0.582306	3.57056e-06
722.39	0.582245	-8.48389e-06
723.29	0.582306	-6.95801e-06
724.19	0.582245	1.52588e-07
725.03	0.582306	-8.60596e-06
725.93	0.582275	-6.86646e-06
726.83	0.582275	-3.66211e-07
727.69	-0.697906	-0.0121704
728.57	0.582275	-7.2937e-06
729.47	0.582214	-1.86157e-06
730.33	-0.698181	-0.00609955
731.21	0.582245	-7.59888e-06
732.11	0.582245	-3.72314e-06
732.99	0.000933838	0.00942383
733.85	0.582245	-7.08008e-06
734.75	0.582275	-4.3335e-06
735.63	0.00118103	0.00231689
736.49	0.582214	-8.11768e-06
737.39	0.582245	-4.42505e-06
738.29	0.582306	0.000173889
739.13	0.582214	-8.02612e-06
740.03	0.582214	-5.79834e-06
740.93	0.582214	3.77808e-05
741.77	0.582275	-7.59888e-06
742.67	0.582275	-6.28662e-06
743.57	0.582214	1.74255e-05
744.41	0.582275	-8.78906e-06
745.31	0.582306	-6.7749e-06
746.21	0.582275	7.38525e-06
747.05	0.582275	-7.69043e-06
747.95	0.582214	-5.88989e-06
748.85	0.582184	3.26538e-06
749.69	0.582214	-8.14819e-06
750.59	0.582245	-6.31714e-06
751.49	0.582214	2.74658e-07
752.33	0.582245	-8.5144e-06
753.23	0.582245	-7.87354e-06
754.13	0.582275	-1.83105e-06
754.99	-0.697876	-0.0124359
755.87	0.582153	-7.26318e-06
756.77	0.582275	-2.53296e-06
757.63	-0.69809	-0.00627075
758.51	0.582214	-7.44629e-06
759.41	0.582214	-3.479e-06
760.29	0.0009552	0.00954285
761.15	0.582275	-8.48389e-06
762.05	0.582275	-5.06592e-06
762.93	0.0012146	0.00250916
763.79	0.582245	-7.2937e-06
764.69	0.582214	-4.66919e-06
765.59	0.582336	0.000186951
766.43	0.582214	-7.38525e-06
767.33	0.582245	-5.79834e-06
768.23	0.582214	4.01611e-05
769.07	0.582245	-7.35474e-06
769.97	0.582214	-5.70679e-06
770.87	0.582275	1.90735e-05
771.71	0.582275	-9.00269e-06
772.61	0.582184	-6.86646e-06
773.51	0.582275	8.8501e-06
774.35	0.582245	-7.75146e-06
775.25	0.582214	-7.20215e-06
776.15	0.582214	4.73022e-06
776.99	0.582275	-8.11768e-06
777.89	0.582306	-7.69043e-06
778.79	0.582245	2.04468e-06
779.63	0.582245	-8.78906e-06
780.531	0.582306	-7.47681e-06
781.431	0.582275	-6.10352e-08
782.291	-0.697815	-0.0126801
783.171	0.582245	-7.75146e-06
784.071	0.582214	-1.70898e-06
784.931	-0.69809	-0.00644012
785.811	0.582275	-7.99561e-06
786.711	0.582245	-3.11279e-06
787.591	0.0009552	0.00963745
788.451	0.582336	-7.38525e-06
789.351	0.582245	-4.24194e-06
790.231	0.00120239	0.00269287
791.091	0.582245	-7.50732e-06
791.991	0.582275	-4.76074e-06
792.891	0.582275	0.000199524
793.731	0.582306	-7.84302e-06
794.631	0.582214	-5.70679e-06
795.531	0.582214	4.30603e-05
796.371	0.582245	-7.93457e-06
797.271	0.582275	-5.5542e-06
798.171	0.582214	1.86157e-05
799.011	0.582275	-7.90405e-06
799.911	0.582306	-5.92041e-06
800.811	0.582245	9.97925e-06
801.651	0.582275	-8.5144e-06
802.551	0.582275	-7.20215e-06
803.451	0.582275	4.82178e-06
804.291	0.582245	-7.47681e-06
805.191	0.582214	-6.2561e-06
806.091	0.582214	1.98364e-06
806.931	0.582245	-8.3313e-06
807.831	0.582275	-6.5918e-06
808.731	0.582275	-3.66211e-07
809.591	-0.697754	-0.0129211
810.471	0.582336	-7.14111e-06
811.371	0.582275	-1.46484e-06
812.231	-0.69809	-0.00661011
813.111	0.582184	-7.38525e-06
814.011	0.582214	-3.479e-06
814.891	0.000921631	0.00973206
815.751	0.582336	-7.56836e-06
816.651	0.582275	-3.87573e-06
817.531	0.00123291	0.00287292
818.391	0.582275	-8.08716e-06
819.291	0.582245	-4.24194e-06
820.191	0.582336	0.000214233
821.031	0.582275	-7.08008e-06
821.931	0.582306	-4.79126e-06
822.831	0.582306	4.45557e-05
823.671	0.582336	-7.93457e-06
824.571	0.582214	-5.88989e-06
825.471	0.582245	2.03857e-05
826.311	0.582275	-8.20923e-06
827.211	0.582275	-6.19507e-06
828.111	0.582275	1.08337e-05
828.951	0.582306	-8.05664e-06
829.851	0.582184	-6.13403e-06
830.751	0.582245	5.67627e-06
831.591	0.582184	-7.8125e-06
832.491	0.582245	-7.96509e-06
833.391	0.582153	2.0752e-06
834.231	0.582275	-7.90405e-06
835.131	0.582184	-6.80542e-06
836.031	0.582275	6.10352e-08
836.891	-0.697876	-0.0131592
837.771	0.582184	-7.56836e-06
838.671	0.582275	-1.61743e-06
839.531	-0.698059	-0.0067746
840.411	0.582275	-7.17163e-06
841.311	0.582275	-1.92261e-06
842.191	0.000952148	0.00979919
843.051	0.582245	-7.59888e-06
843.951	0.582245	-4.15039e-06
844.831	0.00119629	0.00305023
845.691	0.582214	-7.01904e-06
846.591	0.582214	-4.60815e-06
847.491	0.582367	0.000229797
848.331	0.582245	-7.8125e-06
849.231	0.582245	-4.48608e-06
850.131	0.582245	4.73328e-05
850.971	0.582214	-7.17163e-06
851.871	0.582275	-4.94385e-06
852.771	0.582275	2.23083e-05
853.611	0.582214	-7.87354e-06
854.511	0.582214	-5.70679e-06
855.411	0.582245	1.1261e-05
856.251	0.582245	-7.96509e-06
857.151	0.582306	-5.95093e-06
858.051	0.582275	6.10352e-06
858.891	0.582306	-8.11768e-06
859.791	0.582275	-5.70679e-06
860.691	0.582306	2.86865e-06
861.531	0.582245	-8.54492e-06
862.431	0.582275	-6.073e-06
863.331	0.582214	1.2207e-06
864.191	-0.697845	-0.0133759
865.071	0.582245	-7.08008e-06
865.971	0.582214	-1.46484e-06
866.831	-0.698059	-0.00694489
867.711	0.582245	-6.34766e-06
868.611	0.582275	-1.86157e-06
869.491	0.000930786	0.00987854
870.351	0.582275	-7.38525e-06
871.251	0.582275	-4.48608e-06
872.131	0.0011322	0.00322052
872.991	0.582275	-6.5918e-06
873.891	0.582275	-3.8147e-06
874.791	0.582367	0.000246002
875.631	0.582245	-7.26318e-06
876.531	0.582275	-4.57764e-06
877.431	0.582306	4.93164e-05
878.271	0.582275	-6.92749e-06
879.171	0.582245	-4.97437e-06
880.071	0.582245	2.30713e-05
880.911	0.582245	-7.90405e-06
881.811	0.582275	-6.22559e-06
882.711	0.582245	1.10474e-05
883.551	0.582184	-7.75146e-06
884.451	0.582214	-5.76782e-06
885.351	0.582123	7.1106e-06
886.191	0.582306	-7.65991e-06
887.091	0.582245	-5.79834e-06
887.991	0.582275	2.86865e-06
888.831	0.582275	-8.23975e-06
889.731	0.582306	-6.22559e-06
890.631	0.582275	9.76562e-07
891.491	-0.697784	-0.0135925
892.371	0.582214	-6.92749e-06
893.271	0.582306	-7.01904e-07
894.131	-0.698029	-0.00710602
895.011	0.582275	-6.56128e-06
895.911	0.582275	-1.92261e-06
896.791	0.000958252	0.00994568
897.651	0.582306	-7.75146e-06
898.551	0.582214	-3.66211e-06
899.431	0.00117798	0.00338013
900.291	0.582214	-7.96509e-06
901.191	0.582184	-3.63159e-06
902.091	0.582397	0.000264771
902.931	0.582184	-8.57544e-06
903.831	0.582214	-4.97437e-06
904.731	0.582275	5.13e-05
905.571	0.582275	-8.3313e-06
906.471	0.582275	-3.84521e-06
907.371	0.582306	2.46887e-05
908.211	0.582214	-7.87354e-06
909.111	0.582245	-5.85937e-06
910.011	0.582275	1.31836e-05
910.851	0.582214	-9.0332e-06
911.751	0.582275	-5.06592e-06
912.651	0.582275	7.65991e-06
913.491	0.582306	-8.94165e-06
914.391	0.582245	-5.79834e-06
915.291	0.582245	3.11279e-06
916.131	0.582275	-7.8125e-06
917.031	0.582275	-5.79834e-06
917.931	0.582275	1.28174e-06
918.791	-0.697754	-0.0137848
919.671	0.582306	-5.82886e-06
920.571	0.582306	-6.10352e-07
921.431	-0.698059	-0.00726837
922.311	0.582245	-6.83594e-06
923.211	0.582275	-1.28174e-06
924.091	0.000909424	0.0099884
924.951	0.582275	-6.83594e-06
925.851	0.582275	-3.479e-06
926.731	0.0012085	0.00352478
927.591	0.582275	-7.08008e-06
928.491	0.582275	-3.93677e-06
929.391	0.582306	0.000284515
930.231	0.582214	-6.2561e-06
931.131	0.582184	-3.87573e-06
932.031	0.582245	5.39246e-05
932.871	0.582306	-6.40869e-06
933.771	0.582306	-4.66919e-06
934.671	0.582245	2.52991e-05
935.511	0.582306	-6.86646e-06
936.411	0.582214	-5.7373e-06
937.311	0.582245	1.31531e-05
938.151	0.582275	-7.32422e-06
939.051	0.582245	-5.52368e-06
939.951	0.582275	7.90405e-06
940.791	0.582275	-7.04956e-06
941.691	0.582245	-6.40869e-06
942.591	0.582214	3.96729e-06
943.431	0.582184	-7.04956e-06
944.331	0.582275	-6.46973e-06
945.231	0.582245	6.10352e-07
946.091	-0.697754	-0.0139862
946.971	0.582245	-6.71387e-06
947.871	0.582336	-2.74658e-07
948.731	-0.697998	-0.00743134
949.611	0.582245	-6.71387e-06
950.511	0.582214	-1.80054e-06
951.391	0.000949097	0.0100433
952.251	0.582184	-7.20215e-06
953.151	0.582275	-2.68555e-06
954.031	0.00119629	0.00366669
954.891	0.582214	-7.65991e-06
955.791	0.582306	-4.60815e-06
956.691	0.582367	0.000306335
957.531	0.582275	-6.80542e-06
958.431	0.582214	-4.27246e-06
959.331	0.582275	5.6366e-05
960.171	0.582245	-8.23975e-06
961.071	0.582245	-5.37109e-06
961.971	0.582275	2.70691e-05
962.811	0.582214	-7.56836e-06
963.711	0.582245	-5.40161e-06
964.611	0.582214	1.51062e-05
965.451	0.582214	-8.60596e-06
966.351	0.582214	-5.7373e-06
967.251	0.582275	8.88062e-06
968.091	0.582306	-8.66699e-06
968.991	0.582184	-6.50024e-06
969.891	0.582245	4.39453e-06
970.731	0.582214	-7.38525e-06
971.631	0.582245	-6.04248e-06
972.531	0.582275	2.38037e-06
973.391	-0.697754	-0.0141754
974.271	0.582214	-5.7373e-06
975.171	0.582275	-4.88281e-07
976.031	-0.698029	-0.00758972
976.911	0.582275	-6.19507e-06
977.811	0.582306	-6.10352e-07
978.691	0.000949097	0.0100922
979.551	0.582306	-6.43921e-06
980.451	0.582275	-2.47192e-06
981.331	0.00114746	0.00379883
982.191	0.582275	-6.86646e-06
983.091	0.582245	-3.08228e-06
983.991	0.582306	0.000331787
984.831	0.582306	-6.83594e-06
985.731	0.582245	-3.87573e-06
986.631	0.582275	5.8136e-05
987.471	0.582214	-6.13403e-06
988.371	0.582245	-3.96729e-06
989.271	0.582275	2.80151e-05
990.111	0.582336	-7.93457e-06
991.011	0.582275	-5.00488e-06
991.911	0.582275	1.46179e-05
992.751	0.582275	-7.65991e-06
993.651	0.582336	-5.37109e-06
994.551	0.582214	8.23975e-06
995.391	0.582245	-6.86646e-06
996.291	0.582306	-5.52368e-06
997.191	0.582214	4.54712e-06
998.031	0.582275	-7.56836e-06
998.931	0.582245	-7.01904e-06
999.831	0.582275	2.31934e-06
1000.69	-0.697784	-0.0143494
1001.57	0.582245	-5.85937e-06
1002.47	0.582275	1.83105e-07
1003.33	-0.69809	-0.00775452
1004.21	0.582245	-6.5918e-06
1005.11	0.582275	-9.76562e-07
1005.99	0.000933838	0.0101349
1006.85	0.582245	-5.7373e-06
1007.75	0.582275	-2.50244e-06
1008.63	0.00122375	0.00392761
1009.49	0.582275	-7.08008e-06
1010.39	0.582245	-2.74658e-06
1011.29	0.582367	0.000361053
1012.13	0.582245	-7.2937e-06
1013.03	0.582214	-3.26538e-06
1013.93	0.582245	6.2439e-05
1014.77	0.582214	-8.30078e-06
1015.67	0.582214	-4.45557e-06
1016.57	0.582245	2.80762e-05
1017.41	0.582275	-6.62231e-06
1018.31	0.582275	-6.10352e-06
1019.21	0.582275	1.79443e-05
1020.05	0.582214	-7.87354e-06
1020.95	0.582245	-4.69971e-06
1021.85	0.582275	9.91821e-06
1022.69	0.582275	-8.39233e-06
1023.59	0.582275	-6.34766e-06
1024.49	0.582275	7.2937e-06
1025.33	0.582245	-7.17163e-06
1026.23	0.582275	-6.10352e-06
1027.13	0.582245	3.17383e-06
1027.99	-0.697662	-0.0145355
1028.87	0.582214	-7.50732e-06
1029.77	0.582275	1.25122e-06
1030.63	-0.69809	-0.00790405
1031.51	0.582275	-7.26318e-06
1032.41	0.582245	6.10352e-08
1033.29	0.000918579	0.01015625
1034.15	0.582275	-6.04248e-06
1035.05	0.582245	-2.44141e-06
1035.93	0.00118408	0.00405029
1036.79	0.582275	-6.89697e-06
1037.69	0.582214	-2.86865e-06
1038.59	0.582367	0.000396088
1039.43	0.582245	-6.92749e-06
1040.33	0.582336	-2.31934e-06
1041.23	0.582245	6.5155e-05
1042.07	0.582245	-7.1106e-06
1042.97	0.582275	-4.02832e-06
1043.87	0.582275	3.02734e-05
1044.71	0.582214	-7.04956e-06
1045.61	0.582214	-3.02124e-06
1046.51	0.582184	1.63879e-05
1047.35	0.582245	-7.08008e-06
1048.25	0.582275	-4.60815e-06
1049.15	0.582245	9.79614e-06
1049.99	0.582306	-6.34766e-06
1050.89	0.582275	-5.67627e-06
1051.79	0.582245	6.40869e-06
1052.63	0.582306	-7.96509e-06
1053.53	0.582214	-4.60815e-06
1054.43	0.582184	3.14331e-06
1055.29	-0.697754	-0.0147034
1056.17	0.582306	-5.5542e-06
1057.07	0.582245	7.32422e-07
1057.93	-0.69809	-0.00805969
1058.81	0.582245	-6.31714e-06
1059.71	0.582245	-1.2207e-06
1060.59	0.000927734	0.0101837
1061.45	0.582214	-5.92041e-06
1062.35	0.582245	-1.61743e-06
1063.23	0.00115662	0.00415955
1064.09	0.582275	-6.74438e-06
1064.99	0.582245	-2.71606e-06
1065.89	0.582367	0.000436462
1066.73	0.582275	-6.74438e-06
1067.63	0.582275	-4.3335e-06
1068.53	0.582245	6.73218e-05
1069.37	0.582275	-7.23267e-06
1070.27	0.582214	-4.36401e-06
1071.17	0.582245	3.27759e-05
1072.01	0.582275	-7.96509e-06
1072.91	0.582245	-3.44849e-06
1073.81	0.582245	1.62354e-05
1074.65	0.582214	-6.74438e-06
1075.55	0.582275	-5.0354e-06
1076.45	0.582245	1.11694e-05
1077.29	0.582214	-7.78198e-06
1078.19	0.582184	-5.21851e-06
1079.09	0.582245	6.71387e-06
1079.93	0.582214	-7.75146e-06
1080.83	0.582275	-6.65283e-06
1081.73	0.582214	2.59399e-06
1082.59	-0.697754	-0.0148743
1083.47	0.582245	-7.44629e-06
1084.37	0.582245	2.83813e-06
1085.23	-0.697998	-0.00822144
1086.11	0.582245	-8.20923e-06
1087.01	0.582245	-7.01904e-07
1087.89	0.000915527	0.0102081
1088.75	0.582275	-7.41577e-06
1089.65	0.582275	-7.62939e-07
1090.53	0.00117493	0.0042691
1091.39	0.582245	-6.50024e-06
1092.29	0.582214	-1.70898e-06
1093.19	0.582336	0.000483307
1094.03	0.582214	-6.71387e-06
1094.93	0.582275	-2.83813e-06
1095.83	0.582245	7.14111e-05
1096.67	0.582306	-7.23267e-06
1097.57	0.582275	-3.54004e-06
1098.47	0.582184	3.27454e-05
1099.31	0.582306	-7.26318e-06
1100.21	0.582245	-3.72314e-06
1101.11	0.582245	1.83105e-05
1101.95	0.582214	-8.3313e-06
1102.85	0.582245	-3.32642e-06
1103.75	0.582306	1.21155e-05
1104.59	0.582245	-8.11768e-06
1105.49	0.582214	-4.79126e-06
1106.39	0.582214	7.35474e-06
1107.23	0.582245	-7.84302e-06
1108.13	0.582245	-5.7373e-06
1109.03	0.582275	5.12695e-06
1109.89	-0.697662	-0.015033
1110.77	0.582306	-6.7749e-06
1111.67	0.582245	1.12915e-06
1112.53	-0.698029	-0.00836182
1113.41	0.582214	-5.67627e-06
1114.31	0.582214	3.05176e-07
1115.19	0.000897217	0.0102203
1116.05	0.582245	-6.073e-06
1116.95	0.582306	-1.64795e-06
1117.83	0.00119629	0.00436707
1118.69	0.582245	-6.5918e-06
1119.59	0.582336	-2.59399e-06
1120.49	0.582336	0.000542908
1121.33	0.582275	-6.04248e-06
1122.23	0.582245	-2.74658e-06
1123.13	0.582275	7.17468e-05
1123.97	0.582214	-7.20215e-06
1124.87	0.582245	-4.57764e-06
1125.77	0.582184	3.43933e-05
1126.61	0.582245	-7.62939e-06
1127.51	0.582306	-3.38745e-06
1128.41	0.582245	1.98975e-05
1129.25	0.582245	-6.95801e-06
1130.15	0.582306	-4.79126e-06
1131.05	0.582245	1.171875E-05
1131.89	0.582245	-6.28662e-06
1132.79	0.582275	-5.43213e-06
1133.69	0.582245	7.26318e-06
1134.53	0.582275	-6.10352e-06
1135.43	0.582245	-6.86646e-06
1136.33	0.582245	4.18091e-06
1137.19	-0.697632	-0.0151886
1138.07	0.582184	-5.46265e-06
1138.97	0.582275	2.16675e-06
1139.83	-0.69809	-0.00852356
1140.71	0.582275	-6.34766e-06
1141.61	0.582245	-1.2207e-07
1142.49	0.000909424	0.0102417
1143.35	0.582275	-6.073e-06
1144.25	0.582245	-1.12915e-06
1145.13	0.00117493	0.00445679
1145.99	0.582275	-5.95093e-06
1146.89	0.582214	-3.41797e-06
1147.79	0.582397	0.000618591
1148.63	0.582336	-6.89697e-06
1149.53	0.582306	-3.479e-06
1150.43	0.582184	7.6416e-05
1151.27	0.582245	-6.10352e-06
1152.17	0.582275	-3.57056e-06
1153.07	0.582214	3.58276e-05
1153.91	0.582306	-7.50732e-06
1154.81	0.582275	-4.76074e-06
1155.71	0.582245	2.00806e-05
1156.55	0.582275	-7.87354e-06
1157.45	0.582275	-4.66919e-06
1158.35	0.582306	1.27563e-05
1159.19	0.582245	-5.67627e-06
1160.09	0.582245	-5.43213e-06
1160.99	0.582306	8.20923e-06
1161.83	0.582275	-8.02612e-06
1162.73	0.582275	-6.43921e-06
1163.63	0.582275	4.73022e-06
1164.49	-0.697662	-0.0153351
1165.37	0.582214	-4.85229e-06
1166.27	0.582245	2.80762e-06
1167.13	-0.697998	-0.00866089
1168.01	0.582306	-5.24902e-06
1168.91	0.582245	1.46484e-06
1169.79	0.000875854	0.0102417
1170.65	0.582245	-7.35474e-06
1171.55	0.582306	-1.64795e-06
1172.43	0.001171875	0.00454285
1173.29	0.582214	-6.22559e-06
1174.19	0.582275	-5.49316e-07
1175.09	0.582306	0.000715332
1175.93	0.582275	-6.2561e-06
1176.83	0.582336	-1.83105e-06
1177.73	0.582245	7.74536e-05
1178.57	0.582306	-6.28662e-06
1179.47	0.582245	-2.74658e-06
1180.37	0.582245	3.64075e-05
1181.21	0.582306	-5.98145e-06
1182.11	0.582245	-2.80762e-06
1183.01	0.582214	2.22778e-05
1183.85	0.582245	-6.56128e-06
1184.75	0.582245	-3.66211e-06
1185.65	0.582275	1.37329e-05
1186.49	0.582306	-7.38525e-06
1187.39	0.582306	-4.11987e-06
1188.29	0.582275	8.14819e-06
1189.13	0.582214	-6.31714e-06
1190.03	0.582275	-4.94385e-06
1190.93	0.582306	4.88281e-06
1191.79	-0.697662	-0.0154785
1192.67	0.582336	-4.91333e-06
1193.57	0.582153	2.38037e-06
1194.43	-0.698029	-0.00880432
1195.31	0.582275	-4.88281e-06
1196.21	0.582214	6.10352e-07
1197.09	0.000912476	0.0102478
1197.95	0.582306	-5.76782e-06
1198.85	0.582214	2.13623e-07
1199.73	0.00117493	0.00461884
1200.59	0.582214	-6.92749e-06
1201.49	0.582245	-2.41089e-06
1202.39	0.582367	0.000842896
1203.23	0.582245	-5.85937e-06
1204.13	0.582245	-2.74658e-06
1205.03	0.582245	8.10242e-05
1205.87	0.582245	-5.61523e-06
1206.77	0.582214	-3.66211e-06
1207.67	0.582245	3.76587e-05
1208.51	0.582275	-5.82886e-06
1209.41	0.582214	-4.63867e-06
1210.31	0.582245	2.27661e-05
1211.15	0.582275	-6.95801e-06
1212.05	0.582214	-4.88281e-06
1212.95	0.582245	1.30615e-05
1213.79	0.582245	-7.20215e-06
1214.69	0.582214	-3.69263e-06
1215.59	0.582214	8.91113e-06
1216.43	0.582275	-6.16455e-06
1217.33	0.582214	-4.94385e-06
1218.23	0.582214	5.43213e-06
1219.09	-0.697632	-0.0156189
1219.97	0.582184	-6.34766e-06
1220.87	0.582214	2.01416e-06
1221.73	-0.697968	-0.00895081
1222.61	0.582306	-5.70679e-06
1223.51	0.582275	1.37329e-06
1224.39	0.000909424	0.0102509
1225.25	0.582214	-6.34766e-06
1226.15	0.582214	1.83105e-07
1227.03	0.00118713	0.00469452
1227.89	0.582275	-8.02612e-06
1228.79	0.582306	-1.46484e-06
1229.69	0.582336	0.00101257
1230.53	0.582275	-6.46973e-06
1231.43	0.582275	-1.2207e-06
1232.33	0.582275	8.5144e-05
1233.17	0.582275	-5.79834e-06
1234.07	0.582306	-2.89917e-06
1234.97	0.582245	3.92151e-05
1235.81	0.582245	-7.14111e-06
1236.71	0.582275	-3.14331e-06
1237.61	0.582214	2.35596e-05
1238.45	0.582275	-6.56128e-06
1239.35	0.582245	-4.08936e-06
1240.25	0.582245	1.42517e-05
1241.09	0.582245	-6.56128e-06
1241.99	0.582245	-4.69971e-06
1242.89	0.582275	9.27734e-06
1243.73	0.582245	-5.95093e-06
1244.63	0.582275	-4.69971e-06
1245.53	0.582214	5.64575e-06
1246.39	-0.697723	-0.0157684
1247.27	0.582214	-3.90625e-06
1248.17	0.582275	3.78418e-06
1249.03	-0.698029	-0.00908508
1249.91	0.582245	-6.28662e-06
1250.81	0.582245	1.92261e-06
1251.69	0.000912476	0.010257
1252.55	0.582275	-5.92041e-06
1253.45	0.582275	-7.93457e-07
1254.33	0.00114441	0.00475555
1255.19	0.582336	-6.40869e-06
1256.09	0.582306	-9.15527e-08
1256.99	0.582458	0.00124908
1257.83	0.582184	-5.49316e-06
1258.73	0.582245	-1.34277e-06
1259.63	0.582214	8.72498e-05
1260.47	0.582275	-6.50024e-06
1261.37	0.582336	-2.86865e-06
1262.27	0.582214	4.00085e-05
1263.11	0.582275	-5.18799e-06
1264.01	0.582153	-2.31934e-06
1264.91	0.582245	2.26135e-05
1265.75	0.582336	-6.22559e-06
1266.65	0.582214	-3.69263e-06
1267.55	0.582245	1.41907e-05
1268.39	0.582336	-6.89697e-06
1269.29	0.582306	-5.0354e-06
1270.19	0.582245	9.39941e-06
1271.03	0.582306	-7.20215e-06
1271.93	0.582245	-4.45557e-06
1272.83	0.582275	4.91333e-06
1273.69	-0.697601	-0.0158875
1274.57	0.582306	-5.27954e-06
1275.47	0.582214	4.05884e-06
1276.33	-0.697906	-0.00923157
1277.21	0.582245	-5.09644e-06
1278.11	0.582214	1.19019e-06
1278.99	0.000915527	0.0102539
1279.85	0.582214	-6.31714e-06
1280.75	0.582275	7.32422e-07
1281.63	0.00115051	0.00482269
1282.49	0.582245	-7.01904e-06
1283.39	0.582275	-6.10352e-07
1284.29	0.582428	0.00153931
1285.13	0.582245	-6.2561e-06
1286.03	0.582245	-8.8501e-07
1286.93	0.582245	9.15833e-05
1287.77	0.582245	-6.71387e-06
1288.67	0.582275	-3.2959e-06
1289.57	0.582245	4.1626e-05
1290.41	0.582306	-6.40869e-06
1291.31	0.582336	-2.04468e-06
1292.21	0.582275	2.38037e-05
1293.05	0.582184	-6.10352e-06
1293.95	0.582214	-3.38745e-06
1294.85	0.582336	1.62659e-05
1295.69	0.582275	-6.43921e-06
1296.59	0.582275	-4.5166e-06
1297.49	0.582275	1.05591e-05
1298.33	0.582245	-7.04956e-06
1299.23	0.582245	-4.24194e-06
1300.13	0.582214	6.68335e-06
1300.99	-0.697601	-0.0160309
1301.87	0.582306	-4.73022e-06
1302.77	0.582245	2.96021e-06
1303.63	-0.697968	-0.00936584
1304.51	0.582245	-4.5166e-06
1305.41	0.582214	1.80054e-06
1306.29	0.000946045	0.0102539
1307.15	0.582214	-4.60815e-06
1308.05	0.582245	2.28882e-06
1308.93	0.00116272	0.00488159
1309.79	0.582214	-6.34766e-06
1310.69	0.582336	-8.54492e-07
1311.59	0.582489	0.00192657
1312.43	0.582306	-6.34766e-06
1313.33	0.582275	-1.12915e-06
1314.23	0.582275	9.38416e-05
1315.07	0.582214	-6.073e-06
1315.97	0.582275	-2.31934e-06
1316.87	0.582214	4.33044e-05
1317.71	0.582184	-6.74438e-06
1318.61	0.582275	-2.13623e-06
1319.51	0.582306	2.46887e-05
1320.35	0.582245	-5.67627e-06
1321.25	0.582245	-2.0752e-06
1322.15	0.582245	1.26343e-05
1322.99	0.582275	-7.96509e-06
1323.89	0.582245	-2.83813e-06
1324.79	0.582245	1.05286e-05
1325.63	0.582245	-6.80542e-06
1326.53	0.582245	-3.96729e-06
1327.43	0.582306	7.1106e-06
1328.29	-0.697662	-0.0161682
1329.17	0.582275	-3.63159e-06
1330.07	0.582275	2.89917e-06
1330.93	-0.697968	-0.00950317
1331.81	0.582275	-5.46265e-06
1332.71	0.582214	2.65503e-06
1333.59	0.000909424	0.0102509
1334.45	0.582306	-5.98145e-06
1335.35	0.582306	-1.83105e-07
1336.23	0.00110474	0.0049408
1337.09	0.582306	-4.02832e-06
1337.99	0.582245	-1.52588e-07
1338.89	0.582458	0.0024469
1339.73	0.582214	-3.96729e-06
1340.63	0.582306	-9.46045e-07
1341.53	0.582214	9.71375e-05
1342.37	0.582275	-6.46973e-06
1343.27	0.582275	-2.68555e-06
1344.17	0.582214	4.55017e-05
1345.01	0.582275	-6.2561e-06
1345.91	0.582245	-2.62451e-06
1346.81	0.582184	2.37732e-05
1347.65	0.582245	-6.95801e-06
1348.55	0.582275	-4.05884e-06
1349.45	0.582245	1.72729e-05
1350.29	0.582306	-6.53076e-06
1351.19	0.582214	-4.27246e-06
1352.09	0.582275	1.01624e-05
1352.93	0.582306	-6.22559e-06
1353.83	0.582214	-4.91333e-06
1354.73	0.582245	6.50024e-06
1355.59	-0.69751	-0.0163025
1356.47	0.582245	-4.57764e-06
1357.37	0.582245	5.46265e-06
1358.23	-0.697998	-0.00963745
1359.11	0.582214	-6.28662e-06
1360.01	0.582214	2.19727e-06
1360.89	0.000891113	0.0102356
1361.75	0.582275	-5.95093e-06
1362.65	0.582245	2.0752e-06
1363.53	0.00116882	0.00499268
1364.39	0.582245	-5.70679e-06
1365.29	0.582245	-8.54492e-07
1366.19	0.58255	0.00316956
1367.03	0.582214	-6.19507e-06
1367.93	0.582214	-2.13623e-07
1368.83	0.582245	0.000101746
1369.67	0.582214	-5.64575e-06
1370.57	0.582214	-1.06812e-06
1371.47	0.582214	4.72107e-05
1372.31	0.582306	-7.26318e-06
1373.21	0.582275	-2.89917e-06
1374.11	0.582245	2.67944e-05
1374.95	0.582214	-7.69043e-06
1375.85	0.582184	-1.98364e-06
1376.75	0.582275	1.80664e-05
1377.59	0.582245	-6.5918e-06
1378.49	0.582214	-4.45557e-06
1379.39	0.582306	1.171875E-05
1380.23	0.582184	-7.01904e-06
1381.13	0.582245	-2.86865e-06
1382.03	0.582275	7.26318e-06
1382.89	-0.697571	-0.0164185
1383.77	0.582306	-4.88281e-06
1384.67	0.582153	3.60107e-06
1385.53	-0.697968	-0.009765625
1386.41	0.582275	-4.39453e-06
1387.31	0.582245	3.23486e-06
1388.19	0.00090332	0.0102112
1389.05	0.582245	-4.88281e-06
1389.95	0.582184	1.80054e-06
1390.83	0.00112915	0.00504181
1391.69	0.582275	-5.46265e-06
1392.59	0.582184	-4.27246e-07
1393.49	0.582642	0.00405762
1394.33	0.582275	-7.14111e-06
1395.23	0.582245	-2.19727e-06
1396.13	0.582214	0.000102966
1396.97	0.582306	-5.06592e-06
1397.87	0.582306	-1.49536e-06
1398.77	0.582275	4.75769e-05
1399.61	0.582245	-7.1106e-06
1400.51	0.582275	-1.83105e-06
1401.41	0.582214	2.63367e-05
1402.25	0.582275	-6.65283e-06
1403.15	0.582336	-1.98364e-06
1404.05	0.582275	1.651e-05
1404.89	0.582275	-5.85937e-06
1405.79	0.582214	-3.02124e-06
1406.69	0.582275	1.14136e-05
1407.53	0.582184	-7.26318e-06
1408.43	0.582245	-4.69971e-06
1409.33	0.582184	8.97217e-06
1410.19	-0.697632	-0.0165466
1411.07	0.582214	-3.38745e-06
1411.97	0.582245	4.15039e-06
1412.83	-0.698029	-0.00990906
1413.71	0.582275	-4.69971e-06
1414.61	0.582214	2.71606e-06
1415.49	0.000891113	0.0102173
1416.35	0.582306	-5.00488e-06
1417.25	0.582275	1.15967e-06
1418.13	0.00117493	0.00511047
1418.99	0.582306	-4.60815e-06
1419.89	0.582275	-9.15527e-08
1420.79	0.582642	0.00518433
1421.63	0.582275	-5.92041e-06
1422.53	0.582275	-1.25122e-06
1423.43	0.582214	0.00010553
1424.27	0.582275	-6.68335e-06
1425.17	0.582306	-2.59399e-06
1426.07	0.582245	4.80652e-05
1426.91	0.582214	-5.43213e-06
1427.81	0.582275	-3.96729e-06
1428.71	0.582245	2.81372e-05
1429.55	0.582306	-6.22559e-06
1430.45	0.582336	-3.60107e-06
1431.35	0.582214	1.77612e-05
1432.19	0.582214	-6.22559e-06
1433.09	0.582245	-3.11279e-06
1433.99	0.582306	1.10168e-05
1434.83	0.582214	-5.76782e-06
1435.73	0.582245	-4.24194e-06
1436.63	0.582245	8.81958e-06
1437.49	-0.697571	-0.0166901
1438.37	0.582245	-5.67627e-06
1439.27	0.582275	6.46973e-06
1440.13	-0.697998	-0.0100464
1441.01	0.582245	-5.21851e-06
1441.91	0.582275	3.69263e-06
1442.79	0.000881958	0.010199
1443.65	0.582245	-4.45557e-06
1444.55	0.582245	1.7395e-06
1445.43	0.00117493	0.00515442
1446.29	0.582245	-5.82886e-06
1447.19	0.582245	5.18799e-07
1448.09	0.58252	0.00638672
1448.93	0.582214	-6.19507e-06
1449.83	0.582275	-1.25122e-06
1450.73	0.582214	0.000108215
1451.57	0.582245	-6.40869e-06
1452.47	0.582275	-1.52588e-06
1453.37	0.582184	4.90723e-05
1454.21	0.582214	-7.1106e-06
1455.11	0.582275	-6.71387e-07
1456.01	0.582306	2.94189e-05
1456.85	0.582214	-6.13403e-06
1457.75	0.582214	-2.56348e-06
1458.65	0.582245	1.87378e-05
1459.49	0.582184	-5.49316e-06
1460.39	0.582275	-3.38745e-06
1461.29	0.582245	1.21765e-05
1462.13	0.582245	-5.34058e-06
1463.03	0.582306	-3.23486e-06
1463.93	0.582275	9.765625E-06
1464.79	-0.69754	-0.016803
1465.67	0.582245	-4.11987e-06
1466.57	0.582306	6.04248e-06
1467.43	-0.697906	-0.0101685
1468.31	0.582275	-3.75366e-06
1469.21	0.582214	3.72314e-06
1470.09	0.000854492	0.0101898
1470.95	0.582214	-4.69971e-06
1471.85	0.582275	2.92969e-06
1472.73	0.00111084	0.00519379
1473.59	0.582275	-3.9978e-06
1474.49	0.582184	4.88281e-07
1475.39	0.582275	0.00744324
1476.23	0.582245	-5.09644e-06
1477.13	0.582245	6.71387e-07
1478.03	0.582275	0.000112518
1478.87	0.582306	-4.30298e-06
1479.77	0.582245	-1.34277e-06
1480.67	0.582184	4.91943e-05
1481.51	0.582245	-4.88281e-06
1481.65	0.582245	-6.53076e-06