File: Edgar/20240503/20240503/electrodeposition_pulsed_potential_20240503_A/pulses_2000_to_3000.txt
Time (s)	WE(1).Potential (V)	WE(1).Current (A)
2830.56	-0.697113	-0.02164
2831.44	0.582275	-2.13623e-06
2832.34	0.582214	1.5686e-05
2833.2	-0.697601	-0.0151001
2834.08	0.582245	9.15527e-08
2834.98	0.582214	1.3092e-05
2835.86	0.000811768	0.0081665
2836.72	0.582214	-1.58691e-06
2837.62	0.582245	9.67407e-06
2838.5	0.00115356	0.00530792
2839.36	0.582306	-2.31934e-06
2840.26	0.582275	6.83594e-06
2841.16	0.581482	0.0163422
2842	0.582275	-2.19727e-06
2842.9	0.582184	7.04956e-06
2843.8	0.582245	0.001474
2844.64	0.582245	-2.41089e-06
2845.54	0.582245	4.94385e-06
2846.44	0.582214	0.000119202
2847.28	0.582275	-2.65503e-06
2848.18	0.582336	2.04468e-06
2849.08	0.582245	6.43616e-05
2849.92	0.582245	-2.04468e-06
2850.82	0.582245	2.28882e-06
2851.72	0.582245	4.41589e-05
2852.56	0.582306	-3.2959e-06
2853.46	0.582214	1.98364e-06
2854.36	0.582245	3.06396e-05
2855.2	0.582245	-4.11987e-06
2856.1	0.582275	8.54492e-07
2857	0.582214	2.26746e-05
2857.86	-0.697235	-0.0217041
2858.74	0.582245	8.54492e-07
2859.64	0.582214	1.84631e-05
2860.5	-0.697662	-0.015152
2861.38	0.582336	-9.15527e-08
2862.28	0.582184	1.36719e-05
2863.16	0.000790405	0.00817261
2864.02	0.582214	-2.41089e-06
2864.92	0.582184	9.09424e-06
2865.8	0.00114136	0.00533264
2866.66	0.582214	9.15527e-08
2867.56	0.582245	8.30078e-06
2868.46	0.581482	0.0164337
2869.3	0.582245	-1.95313e-06
2870.2	0.582214	5.52368e-06
2871.1	0.582336	0.00171509
2871.94	0.582245	-2.16675e-06
2872.84	0.582245	4.30298e-06
2873.74	0.582214	0.000124207
2874.58	0.582245	-2.2583e-06
2875.48	0.582214	3.93677e-06
2876.38	0.582306	6.61621e-05
2877.22	0.582275	-3.66211e-06
2878.12	0.582275	3.02124e-06
2879.02	0.582214	4.35791e-05
2879.86	0.582214	-2.7771e-06
2880.76	0.582245	1.43433e-06
2881.66	0.582245	3.10669e-05
2882.5	0.582245	-3.479e-06
2883.4	0.582245	9.76562e-07
2884.3	0.582214	2.2583e-05
2885.16	-0.697205	-0.0217804
2886.04	0.582306	-9.15527e-07
2886.94	0.582245	1.66626e-05
2887.8	-0.697601	-0.0152252
2888.68	0.582275	-1.15967e-06
2889.58	0.582245	1.48926e-05
2890.46	0.000787354	0.00812683
2891.32	0.582275	-2.04468e-06
2892.22	0.582245	9.46045e-06
2893.1	0.00115356	0.00532318
2893.96	0.582275	-1.86157e-06
2894.86	0.582336	8.27026e-06
2895.76	0.58139	0.01651
2896.6	0.582275	-2.7771e-06
2897.5	0.582275	5.52368e-06
2898.4	0.582336	0.00195801
2899.24	0.582214	-1.58691e-06
2900.14	0.582275	6.71387e-06
2901.04	0.582214	0.000126678
2901.88	0.582306	-3.02124e-06
2902.78	0.582275	3.05176e-06
2903.68	0.582275	6.77185e-05
2904.52	0.582275	-4.42505e-06
2905.42	0.582275	1.49536e-06
2906.32	0.582214	4.46777e-05
2907.16	0.582214	-2.96021e-06
2908.06	0.582214	2.01416e-06
2908.96	0.582245	3.21655e-05
2909.8	0.582245	-4.15039e-06
2910.7	0.582214	2.44141e-07
2911.6	0.582245	2.41699e-05
2912.46	-0.697205	-0.0218353
2913.34	0.582214	3.96729e-07
2914.24	0.582275	1.83105e-05
2915.1	-0.697601	-0.0152832
2915.98	0.582245	-6.71387e-07
2916.88	0.582245	1.46179e-05
2917.76	0.000799561	0.00808716
2918.62	0.582214	-1.28174e-06
2919.52	0.582245	1.12305e-05
2920.4	0.00113831	0.00530548
2921.26	0.582245	-6.10352e-07
2922.16	0.582214	8.42285e-06
2923.06	0.581329	0.016571
2923.9	0.582245	-4.57764e-06
2924.8	0.582245	7.04956e-06
2925.7	0.582306	0.00225555
2926.54	0.582245	-3.08228e-06
2927.44	0.582245	4.69971e-06
2928.34	0.582245	0.000131622
2929.18	0.582275	-2.83813e-06
2930.08	0.582184	4.11987e-06
2930.98	0.582275	6.90613e-05
2931.82	0.582275	-3.90625e-06
2932.72	0.582214	1.83105e-06
2933.62	0.582214	4.55017e-05
2934.46	0.582275	-4.11987e-06
2935.36	0.582306	2.28882e-06
2936.26	0.582306	3.29285e-05
2937.1	0.582275	-4.15039e-06
2938	0.582184	2.74658e-06
2938.9	0.582275	2.55127e-05
2939.76	-0.697235	-0.0219055
2940.64	0.582275	7.93457e-07
2941.54	0.582214	1.84631e-05
2942.4	-0.697632	-0.0153809
2943.28	0.582306	-1.00708e-06
2944.18	0.582184	1.44958e-05
2945.06	0.000769043	0.00802917
2945.92	0.582245	-1.0376e-06
2946.82	0.582275	1.12305e-05
2947.7	0.00114441	0.00528351
2948.56	0.582214	-5.49316e-07
2949.46	0.582275	8.14819e-06
2950.36	0.58136	0.0166229
2951.2	0.582245	-2.41089e-06
2952.1	0.582245	6.40869e-06
2953	0.582306	0.00259064
2953.84	0.582275	-2.31934e-06
2954.74	0.582184	6.31714e-06
2955.64	0.582275	0.000134888
2956.48	0.582214	-2.13623e-06
2957.38	0.582214	4.66919e-06
2958.28	0.582184	6.93665e-05
2959.12	0.582275	-3.69263e-06
2960.02	0.582214	2.59399e-06
2960.92	0.582245	4.43115e-05
2961.76	0.582245	-4.08936e-06
2962.66	0.582214	1.95313e-06
2963.56	0.582275	3.18604e-05
2964.4	0.582336	-4.05884e-06
2965.3	0.582245	1.52588e-06
2966.2	0.582214	2.34985e-05
2967.06	-0.697235	-0.0219818
2967.94	0.582214	8.54492e-07
2968.84	0.582336	1.74255e-05
2969.7	-0.697571	-0.0154816
2970.58	0.582245	3.96729e-07
2971.48	0.582275	1.47705e-05
2972.36	0.000857544	0.00797729
2973.22	0.582275	4.27246e-07
2974.12	0.582275	1.11084e-05
2975	0.00116882	0.00527832
2975.86	0.582275	-1.49536e-06
2976.76	0.582275	8.48389e-06
2977.66	0.581421	0.0167023
2978.5	0.582275	-2.53296e-06
2979.4	0.582245	7.41577e-06
2980.3	0.582336	0.00297058
2981.14	0.582245	-1.92261e-06
2982.04	0.582245	3.479e-06
2982.94	0.582275	0.000136414
2983.78	0.582275	-2.2583e-06
2984.68	0.582306	2.7771e-06
2985.58	0.582214	6.98547e-05
2986.42	0.582275	-2.74658e-06
2987.32	0.582275	2.34985e-06
2988.22	0.582184	4.40979e-05
2989.06	0.582275	-2.99072e-06
2989.96	0.582306	1.28174e-06
2990.86	0.582275	3.13721e-05
2991.7	0.582245	-1.80054e-06
2992.6	0.582275	5.18799e-07
2993.5	0.582184	2.41089e-05
2994.36	-0.697174	-0.0220367
2995.24	0.582214	1.52588e-07
2996.14	0.582275	1.9928e-05
2997	-0.697571	-0.0155548
2997.88	0.582245	-6.40869e-07
2998.78	0.582245	1.36719e-05
2999.66	0.000830078	0.00793457
3000.52	0.582275	-8.8501e-07
3001.42	0.582184	9.64355e-06
3002.3	0.00114746	0.00525604
3003.16	0.582306	-8.54492e-07
3004.06	0.582214	8.91113e-06
3004.96	0.58139	0.0167511
3005.8	0.582214	-2.31934e-06
3006.7	0.582275	6.80542e-06
3007.6	0.582336	0.00338593
3008.44	0.582153	-2.41089e-06
3009.34	0.582214	5.15747e-06
3010.24	0.582275	0.000142365
3011.08	0.582275	-2.99072e-06
3011.98	0.582245	3.93677e-06
3012.88	0.582275	7.00989e-05
3013.72	0.582214	-2.89917e-06
3014.62	0.582245	3.32642e-06
3015.52	0.582184	4.58984e-05
3016.36	0.582245	-2.62451e-06
3017.26	0.582214	1.0376e-06
3018.16	0.582184	3.29895e-05
3019	0.582245	-3.11279e-06
3019.9	0.582184	4.57764e-07
3020.8	0.582245	2.46887e-05
3021.66	-0.697113	-0.0221039
3022.54	0.582245	2.13623e-07
3023.44	0.582184	1.85852e-05
3024.3	-0.697571	-0.0156372
3025.18	0.582214	-1.43433e-06
3026.08	0.582245	1.5625e-05
3026.96	0.000836182	0.00787964
3027.82	0.582245	-1.06812e-06
3028.72	0.582275	1.18713e-05
3029.6	0.00115662	0.00523804
3030.46	0.582245	-2.22778e-06
3031.36	0.582214	9.3689e-06
3032.26	0.58139	0.0167908
3033.1	0.582214	-3.05176e-06
3034	0.582275	7.53784e-06
3034.9	0.582336	0.0039679
3035.74	0.582245	-3.38745e-06
3036.64	0.582214	4.88281e-06
3037.54	0.582245	0.000147736
3038.38	0.582275	-2.44141e-06
3039.28	0.582214	3.2959e-06
3040.18	0.582275	7.04651e-05
3041.02	0.582245	-3.50952e-06
3041.92	0.582184	3.20435e-06
3042.82	0.582245	4.50134e-05
3043.66	0.582245	-4.57764e-06
3044.56	0.582245	2.19727e-06
3045.46	0.582245	3.43323e-05
3046.3	0.582184	-3.32642e-06
3047.2	0.582184	1.5564e-06
3048.1	0.582214	2.50854e-05
3048.96	-0.697174	-0.0221527
3049.84	0.582245	-6.10352e-08
3050.74	0.582275	1.89819e-05
3051.6	-0.697571	-0.0157043
3052.48	0.582214	-4.57764e-07
3053.38	0.582275	1.44653e-05
3054.26	0.000830078	0.00783386
3055.12	0.582275	-1.43433e-06
3056.02	0.582245	1.07727e-05
3056.9	0.00111389	0.00522919
3057.76	0.582214	-1.09863e-06
3058.66	0.582184	1.06201e-05
3059.56	0.58139	0.0168701
3060.4	0.582214	-1.09863e-06
3061.3	0.582275	8.30078e-06
3062.2	0.582397	0.00457184
3063.04	0.582214	-2.28882e-06
3063.94	0.582275	5.12695e-06
3064.84	0.582184	0.000149109
3065.68	0.582245	-2.53296e-06
3066.58	0.582245	5.37109e-06
3067.48	0.582275	7.0282e-05
3068.32	0.582214	-3.05176e-06
3069.22	0.582245	3.08228e-06
3070.12	0.582214	4.52881e-05
3070.96	0.582214	-3.75366e-06
3071.86	0.582245	2.53296e-06
3072.76	0.582214	3.34778e-05
3073.6	0.582306	-3.14331e-06
3074.5	0.582275	3.26538e-06
3075.4	0.582275	2.30713e-05
3076.26	-0.697144	-0.0222351
3077.14	0.582184	2.74658e-07
3078.04	0.582275	1.97449e-05
3078.9	-0.697571	-0.0158081
3079.78	0.582245	0
3080.68	0.582275	1.53809e-05
3081.56	0.000793457	0.00779419
3082.42	0.582245	1.2207e-07
3083.32	0.582275	1.23291e-05
3084.2	0.00115051	0.00520813
3085.06	0.582275	-5.79834e-07
3085.96	0.582306	9.0332e-06
3086.86	0.58139	0.0169159
3087.7	0.582275	-3.05176e-08
3088.6	0.582275	7.59888e-06
3089.5	0.582306	0.00519501
3090.34	0.582245	-2.41089e-06
3091.24	0.582245	4.94385e-06
3092.14	0.582275	0.000156311
3092.98	0.582245	-2.71606e-06
3093.88	0.582214	4.82178e-06
3094.78	0.582275	6.9397e-05
3095.62	0.582245	-3.63159e-06
3096.52	0.582184	2.41089e-06
3097.42	0.582214	4.66614e-05
3098.26	0.582245	-2.92969e-06
3099.16	0.582184	2.13623e-06
3100.06	0.582214	3.31726e-05
3100.9	0.582275	-2.19727e-06
3101.8	0.582245	9.46045e-07
3102.7	0.582306	2.45056e-05
3103.56	-0.697083	-0.0222931
3104.44	0.582275	-3.96729e-07
3105.34	0.582214	1.88599e-05
3106.2	-0.697571	-0.0158905
3107.08	0.582184	-2.74658e-07
3107.98	0.582275	1.42822e-05
3108.86	0.000811768	0.00773926
3109.72	0.582245	-1.52588e-07
3110.62	0.582245	1.1322e-05
3111.5	0.00115967	0.00518494
3112.36	0.582275	-1.43433e-06
3113.26	0.582184	9.09424e-06
3114.16	0.58136	0.0169495
3115	0.582245	-6.40869e-07
3115.9	0.582214	7.8125e-06
3116.8	0.582245	0.00588867
3117.64	0.582275	-2.62451e-06
3118.54	0.582214	4.48608e-06
3119.44	0.582275	0.000163513
3120.28	0.582275	-2.13623e-06
3121.18	0.582275	3.90625e-06
3122.08	0.582275	7.22656e-05
3122.92	0.582245	-2.41089e-06
3123.82	0.582245	3.05176e-06
3124.72	0.582214	4.67834e-05
3125.56	0.582275	-3.2959e-06
3126.46	0.582275	2.96021e-06
3127.36	0.582214	3.24707e-05
3128.2	0.582306	-4.30298e-06
3129.1	0.582184	2.44141e-07
3130	0.582306	2.46887e-05
3130.86	-0.697174	-0.022345
3131.74	0.582306	-9.15527e-08
3132.64	0.582245	1.85547e-05
3133.5	-0.697571	-0.0159546
3134.38	0.582245	-9.15527e-08
3135.28	0.582214	1.5564e-05
3136.16	0.000817871	0.00769348
3137.02	0.582306	-1.15967e-06
3137.92	0.582184	1.23291e-05
3138.8	0.00119019	0.00516388
3139.66	0.582275	-1.19019e-06
3140.56	0.582275	8.78906e-06
3141.46	0.581421	0.0169922
3142.3	0.582336	-2.0752e-06
3143.2	0.582275	7.17163e-06
3144.1	0.582245	0.00644165
3144.94	0.582245	-2.59399e-06
3145.84	0.582245	5.09644e-06
3146.74	0.582214	0.000172302
3147.58	0.582214	-2.34985e-06
3148.48	0.582275	4.60815e-06
3149.38	0.582275	7.32727e-05
3150.22	0.582214	-3.32642e-06
3151.12	0.582245	3.26538e-06
3152.02	0.582306	4.88892e-05
3152.86	0.582306	-3.72314e-06
3153.76	0.582214	2.38037e-06
3154.66	0.582214	3.37524e-05
3155.5	0.582275	-2.47192e-06
3156.4	0.582245	3.05176e-08
3157.3	0.582336	2.58484e-05
3158.16	-0.697174	-0.022406
3159.04	0.582245	3.66211e-07
3159.94	0.582214	1.88293e-05
3160.8	-0.697571	-0.0160339
3161.68	0.582306	2.13623e-07
3162.58	0.582275	1.61133e-05
3163.46	0.00085144	0.00764465
3164.32	0.582214	-9.76562e-07
3165.22	0.582245	1.15051e-05
3166.1	0.00115662	0.00513824
3166.96	0.582245	-2.44141e-06
3167.86	0.582214	1.06201e-05
3168.76	0.581482	0.0170258
3169.6	0.582275	-2.38037e-06
3170.5	0.582214	8.48389e-06
3171.4	0.582214	0.0069986
3172.24	0.582306	-3.14331e-06
3173.14	0.582245	7.20215e-06
3174.04	0.582275	0.000181549
3174.88	0.582245	-2.99072e-06
3175.78	0.582214	5.88989e-06
3176.68	0.582275	7.27539e-05
3177.52	0.582275	-1.77002e-06
3178.42	0.582245	3.08228e-06
3179.32	0.582245	4.82788e-05
3180.16	0.582245	-3.75366e-06
3181.06	0.582214	3.32642e-06
3181.96	0.582214	3.39355e-05
3182.8	0.582306	-4.18091e-06
3183.7	0.582245	1.86157e-06
3184.6	0.582245	2.56958e-05
3185.46	-0.697174	-0.0224579
3186.34	0.582275	7.32422e-07
3187.24	0.582275	2.00195e-05
3188.1	-0.69751	-0.0161041
3188.98	0.582214	6.71387e-07
3189.88	0.582214	1.57166e-05
3190.76	0.000793457	0.00758667
3191.62	0.582245	-1.2207e-07
3192.52	0.582245	1.26343e-05
3193.4	0.00114746	0.00510651
3194.26	0.582306	-2.38037e-06
3195.16	0.582214	8.3313e-06
3196.06	0.58136	0.0170593
3196.9	0.582214	-7.01904e-07
3197.8	0.582245	7.75146e-06
3198.7	0.582031	0.00743408
3199.54	0.582245	-1.83105e-06
3200.44	0.582245	5.52368e-06
3201.34	0.582245	0.000193237
3202.18	0.582275	-1.98364e-06
3203.08	0.582214	4.3335e-06
3203.98	0.582245	7.37e-05
3204.82	0.582184	-1.67847e-06
3205.72	0.582245	3.66211e-06
3206.62	0.582214	4.66003e-05
3207.46	0.582306	-3.08228e-06
3208.36	0.582275	2.10571e-06
3209.26	0.582184	3.43018e-05
3210.1	0.582275	-3.35693e-06
3211	0.582184	1.77002e-06
3211.9	0.582214	2.4353e-05
3212.76	-0.697144	-0.022522
3213.64	0.582275	1.06812e-06
3214.54	0.582214	1.86462e-05
3215.4	-0.697571	-0.0161957
3216.28	0.582184	3.35693e-07
3217.18	0.582275	1.474e-05
3218.06	0.000827026	0.00754089
3218.92	0.582275	-1.83105e-07
3219.82	0.582214	1.16882e-05
3220.7	0.00111694	0.00508148
3221.56	0.582214	3.05176e-08
3222.46	0.582245	1.00708e-05
3223.36	0.581421	0.0170929
3224.2	0.582245	-4.57764e-07
3225.1	0.582275	7.8125e-06
3226	0.582031	0.0078064
3226.84	0.582275	-1.5564e-06
3227.74	0.582245	5.79834e-06
3228.64	0.582214	0.000204376
3229.48	0.582275	-1.7395e-06
3230.38	0.582275	5.37109e-06
3231.28	0.582245	7.31506e-05
3232.12	0.582336	-2.44141e-06
3233.02	0.582214	3.32642e-06
3233.92	0.582214	4.74548e-05
3234.76	0.582306	-3.66211e-06
3235.66	0.582245	1.70898e-06
3236.56	0.582214	3.43933e-05
3237.4	0.582275	-2.68555e-06
3238.3	0.582275	6.40869e-07
3239.2	0.582306	2.62146e-05
3240.06	-0.697083	-0.0225586
3240.94	0.582245	1.2207e-06
3241.84	0.582245	1.97449e-05
3242.7	-0.69751	-0.0162567
3243.58	0.582275	-3.05176e-08
3244.48	0.582245	1.50757e-05
3245.36	0.000970459	0.00749268
3246.22	0.582306	-1.2207e-07
3247.12	0.582245	1.11694e-05
3248	0.00115967	0.0050589
3248.86	0.582275	-1.5564e-06
3249.76	0.582245	1.04065e-05
3250.66	0.581451	0.0171234
3251.5	0.582245	-2.86865e-06
3252.4	0.582184	7.26318e-06
3253.3	0.582062	0.00806274
3254.14	0.582306	-2.86865e-06
3255.04	0.582214	5.85937e-06
3255.94	0.582184	0.000216278
3256.78	0.582275	-2.38037e-06
3257.68	0.582306	4.57764e-06
3258.58	0.582275	7.51953e-05
3259.42	0.582275	-3.08228e-06
3260.32	0.582245	4.21143e-06
3261.22	0.582214	4.85535e-05
3262.06	0.582275	-3.20435e-06
3262.96	0.582275	2.10571e-06
3263.86	0.582306	3.45764e-05
3264.7	0.582275	-4.21143e-06
3265.6	0.582275	1.31226e-06
3266.5	0.582306	2.57874e-05
3267.36	-0.697144	-0.0226105
3268.24	0.582275	1.5564e-06
3269.14	0.582275	2.00806e-05
3270	-0.69751	-0.0163208
3270.88	0.582184	-3.35693e-07
3271.78	0.582275	1.60217e-05
3272.66	0.000927734	0.00744293
3273.52	0.582275	-1.19019e-06
3274.42	0.582214	1.2207e-05
3275.3	0.00111694	0.00503235
3276.16	0.582245	-1.49536e-06
3277.06	0.582275	1.00098e-05
3277.96	0.58139	0.01716
3278.8	0.582245	-2.56348e-06
3279.7	0.582306	7.69043e-06
3280.6	0.581909	0.00831604
3281.44	0.582214	-1.70898e-06
3282.34	0.582214	7.65991e-06
3283.24	0.582336	0.000228271
3284.08	0.582275	-1.7395e-06
3284.98	0.582214	4.27246e-06
3285.88	0.582214	7.61719e-05
3286.72	0.582214	-3.23486e-06
3287.62	0.582275	3.84521e-06
3288.52	0.582245	4.79431e-05
3289.36	0.582214	-2.96021e-06
3290.26	0.582214	2.16675e-06
3291.16	0.582214	3.43323e-05
3292	0.582275	-4.36401e-06
3292.9	0.582214	2.04468e-06
3293.8	0.582245	2.6062e-05
3294.66	-0.697083	-0.02265625
3295.54	0.582275	1.31226e-06
3296.44	0.582214	2.02332e-05
3297.3	-0.69751	-0.0163879
3298.18	0.582306	4.57764e-07
3299.08	0.582275	1.6571e-05
3299.96	0.000973511	0.00739838
3300.82	0.582245	1.52588e-07
3301.72	0.582275	1.22375e-05
3302.6	0.00109253	0.00500854
3303.46	0.582275	-5.18799e-07
3304.36	0.582245	9.79614e-06
3305.26	0.58139	0.0171844
3306.1	0.582245	-1.67847e-06
3307	0.582275	8.63647e-06
3307.9	0.58194	0.00853577
3308.74	0.582245	-2.65503e-06
3309.64	0.582245	5.37109e-06
3310.54	0.582214	0.000241882
3311.38	0.582245	-2.16675e-06
3312.28	0.582275	5.98145e-06
3313.18	0.582214	7.71179e-05
3314.02	0.582275	-2.31934e-06
3314.92	0.582275	2.83813e-06
3315.82	0.582275	4.86755e-05
3316.66	0.582275	-3.35693e-06
3317.56	0.582214	1.92261e-06
3318.46	0.582275	3.42712e-05
3319.3	0.582245	-3.54004e-06
3320.2	0.582214	2.41089e-06
3321.1	0.582245	2.4231e-05
3321.96	-0.697113	-0.0226837
3322.84	0.582245	7.62939e-07
3323.74	0.582275	1.98669e-05
3324.6	-0.69754	-0.016452
3325.48	0.582245	3.66211e-07
3326.38	0.582214	1.44043e-05
3327.26	0.000952148	0.00735229
3328.12	0.582306	4.57764e-07
3329.02	0.582275	1.2146e-05
3329.9	0.00114136	0.00497925
3330.76	0.582306	-1.52588e-07
3331.66	0.582306	1.01013e-05
3332.56	0.581329	0.0172089
3333.4	0.582275	-1.34277e-06
3334.3	0.582275	8.02612e-06
3335.2	0.58194	0.00872498
3336.04	0.582245	-1.61743e-06
3336.94	0.582275	6.89697e-06
3337.84	0.582306	0.0002565
3338.68	0.582275	-1.89209e-06
3339.58	0.582214	4.18091e-06
3340.48	0.582275	7.77588e-05
3341.32	0.582275	-2.68555e-06
3342.22	0.582245	3.17383e-06
3343.12	0.582245	5.05676e-05
3343.96	0.582245	-2.28882e-06
3344.86	0.582245	2.10571e-06
3345.76	0.582184	3.41797e-05
3346.6	0.582306	-2.50244e-06
3347.5	0.582306	8.23975e-07
3348.4	0.582245	2.49329e-05
3349.26	-0.697052	-0.02265625
3350.14	0.582184	1.2207e-06
3351.04	0.582275	1.93787e-05
3351.9	-0.69754	-0.0164429
3352.78	0.582275	-6.71387e-07
3353.68	0.582275	1.45569e-05
3354.56	0.000967407	0.00735504
3355.42	0.582306	-7.32422e-07
3356.32	0.582336	1.25732e-05
3357.2	0.00114136	0.00498383
3358.06	0.582306	-1.2207e-06
3358.96	0.582214	9.27734e-06
3359.86	0.581299	0.0172272
3360.7	0.582275	-1.67847e-06
3361.6	0.582306	7.47681e-06
3362.5	0.58197	0.00870361
3363.34	0.582275	-2.16675e-06
3364.24	0.582306	4.94385e-06
3365.14	0.582275	0.00026239
3365.98	0.582275	-2.83813e-06
3366.88	0.582275	4.94385e-06
3367.78	0.582214	7.92236e-05
3368.62	0.582275	-3.44849e-06
3369.52	0.582153	2.71606e-06
3370.42	0.582214	4.97437e-05
3371.26	0.582245	-2.34985e-06
3372.16	0.582245	1.19019e-06
3373.06	0.582275	3.48206e-05
3373.9	0.582336	-3.26538e-06
3374.8	0.582275	1.49536e-06
3375.7	0.582306	2.64587e-05
3376.56	-0.697113	-0.0226807
3377.44	0.582275	9.46045e-07
3378.34	0.582275	1.94092e-05
3379.2	-0.697479	-0.016507
3380.08	0.582306	3.05176e-08
3380.98	0.582184	1.60828e-05
3381.86	0.000949097	0.00730316
3382.72	0.582245	-9.76562e-07
3383.62	0.582245	1.27563e-05
3384.5	0.00116882	0.00495514
3385.36	0.582214	-2.71606e-06
3386.26	0.582245	9.94873e-06
3387.16	0.58136	0.0172607
3388	0.582245	-1.98364e-06
3388.9	0.582245	8.42285e-06
3389.8	0.58194	0.00889587
3390.64	0.582275	-2.44141e-06
3391.54	0.582214	7.47681e-06
3392.44	0.582306	0.000278351
3393.28	0.582275	-1.46484e-06
3394.18	0.582275	4.63867e-06
3395.08	0.582275	8.08105e-05
3395.92	0.582245	-2.68555e-06
3396.82	0.582245	2.59399e-06
3397.72	0.582306	4.90112e-05
3398.56	0.582245	-3.44849e-06
3399.46	0.582214	2.01416e-06
3400.36	0.582245	3.58582e-05
3401.2	0.582214	-3.26538e-06
3402.1	0.582245	2.31934e-06
3403	0.582214	2.6825e-05
3403.86	-0.697113	-0.0227234
3404.74	0.582245	1.31226e-06
3405.64	0.582184	2.15454e-05
3406.5	-0.69751	-0.0165619
3407.38	0.582214	6.40869e-07
3408.28	0.582245	1.75171e-05
3409.16	0.000939941	0.00726013
3410.02	0.582214	-3.96729e-07
3410.92	0.582245	1.32751e-05
3411.8	0.00116882	0.0049295
3412.66	0.582245	-1.25122e-06
3413.56	0.582275	9.49097e-06
3414.46	0.58136	0.0172821
3415.3	0.582245	-1.64795e-06
3416.2	0.582306	7.75146e-06
3417.1	0.581909	0.00906982
3417.94	0.582245	-1.09863e-06
3418.84	0.582184	6.89697e-06
3419.74	0.582214	0.000294373
3420.58	0.582245	-2.38037e-06
3421.48	0.582306	5.09644e-06
3422.38	0.582275	8.17871e-05
3423.22	0.582214	-2.19727e-06
3424.12	0.582245	3.60107e-06
3425.02	0.582275	5.05066e-05
3425.86	0.582275	-2.68555e-06
3426.76	0.582306	3.11279e-06
3427.66	0.582214	3.48816e-05
3428.5	0.582336	-2.99072e-06
3429.4	0.582275	1.31226e-06
3430.3	0.582245	2.64587e-05
3431.16	-0.697144	-0.0227844
3432.04	0.582245	1.49536e-06
3432.94	0.582275	2.01416e-05
3433.8	-0.69754	-0.0166473
3434.68	0.582275	-3.05176e-08
3435.58	0.582275	1.56555e-05
3436.46	0.000961304	0.00722534
3437.32	0.582245	0
3438.22	0.582214	1.34583e-05
3439.1	0.00114136	0.0049115
3439.96	0.582214	3.05176e-08
3440.86	0.582306	1.01013e-05
3441.76	0.58136	0.0173218
3442.6	0.582245	-1.00708e-06
3443.5	0.582184	7.69043e-06
3444.4	0.581848	0.00922241
3445.24	0.582306	-2.41089e-06
3446.14	0.582214	6.37817e-06
3447.04	0.582275	0.000311981
3447.88	0.582306	-1.58691e-06
3448.78	0.582214	4.69971e-06
3449.68	0.582245	8.34656e-05
3450.52	0.582336	-2.22778e-06
3451.42	0.582245	3.08228e-06
3452.32	0.582275	4.97742e-05
3453.16	0.582245	-2.99072e-06
3454.06	0.582214	1.95313e-06
3454.96	0.582214	3.54309e-05
3455.8	0.582245	-3.479e-06
3456.7	0.582306	1.83105e-06
3457.6	0.582275	2.62756e-05
3458.46	-0.697144	-0.0228149
3459.34	0.582245	1.2207e-06
3460.24	0.582275	1.87988e-05
3461.1	-0.697449	-0.0167023
3461.98	0.582214	7.32422e-07
3462.88	0.582214	1.66931e-05
3463.76	0.000964355	0.00717682
3464.62	0.582245	-3.35693e-07
3465.52	0.582214	1.26038e-05
3466.4	0.0011261	0.00488953
3467.26	0.582245	-5.49316e-07
3468.16	0.582214	9.49097e-06
3469.06	0.58136	0.0173309
3469.9	0.582275	-1.67847e-06
3470.8	0.582184	7.72095e-06
3471.7	0.581879	0.00937805
3472.54	0.582306	-1.92261e-06
3473.44	0.582275	6.62231e-06
3474.34	0.582245	0.000330261
3475.18	0.582245	-1.52588e-06
3476.08	0.582245	4.3335e-06
3476.98	0.582214	8.59375E-05
3477.82	0.582214	-2.22778e-06
3478.72	0.582214	2.65503e-06
3479.62	0.582245	5.16968e-05
3480.46	0.582306	-3.08228e-06
3481.36	0.582184	2.41089e-06
3482.26	0.582245	3.66821e-05
3483.1	0.582214	-2.7771e-06
3484	0.582306	1.52588e-06
3484.9	0.582245	2.68555e-05
3485.76	-0.697144	-0.0228607
3486.64	0.582245	6.10352e-07
3487.54	0.582184	2.12708e-05
3488.4	-0.697418	-0.0167664
3489.28	0.582245	-8.23975e-07
3490.18	0.582214	1.67236e-05
3491.06	0.000982666	0.00712799
3491.92	0.582306	-8.23975e-07
3492.82	0.582245	1.33057e-05
3493.7	0.00115662	0.0048584
3494.56	0.582275	-1.09863e-06
3495.46	0.582245	9.552e-06
3496.36	0.581329	0.0173584
3497.2	0.582214	-1.58691e-06
3498.1	0.582245	8.20923e-06
3499	0.581848	0.00953674
3499.84	0.582214	-2.89917e-06
3500.74	0.582275	6.83594e-06
3501.64	0.582245	0.000351471
3502.48	0.582245	-3.20435e-06
3503.38	0.582214	5.15747e-06
3504.28	0.582306	8.80432e-05
3505.12	0.582245	-2.0752e-06
3506.02	0.582245	3.93677e-06
3506.92	0.582214	5.15442e-05
3507.76	0.582245	-3.26538e-06
3508.66	0.582275	3.35693e-06
3509.56	0.582245	3.75061e-05
3510.4	0.582245	-3.20435e-06
3511.3	0.582275	1.15967e-06
3512.2	0.582275	2.70996e-05
3513.06	-0.697052	-0.0229034
3513.94	0.582214	1.25122e-06
3514.84	0.582245	2.12097e-05
3515.7	-0.69754	-0.0168335
3516.58	0.582306	-5.18799e-07
3517.48	0.582306	1.72729e-05
3518.36	0.000994873	0.00707947
3519.22	0.582245	-5.49316e-07
3520.12	0.582275	1.25122e-05
3521	0.0011261	0.00482971
3521.86	0.582245	-1.52588e-06
3522.76	0.582214	9.94873e-06
3523.66	0.58136	0.0173767
3524.5	0.582275	-6.40869e-07
3525.4	0.582275	8.42285e-06
3526.3	0.581909	0.00968018
3527.14	0.582214	-2.0752e-06
3528.04	0.582245	5.58472e-06
3528.94	0.582275	0.000371033
3529.78	0.582214	-2.41089e-06
3530.68	0.582275	5.52368e-06
3531.58	0.582245	9.10645e-05
3532.42	0.582214	-3.32642e-06
3533.32	0.582275	4.45557e-06
3534.22	0.582275	5.17578e-05
3535.06	0.582214	-2.19727e-06
3535.96	0.582245	2.38037e-06
3536.86	0.582214	3.68347e-05
3537.7	0.582245	-2.34985e-06
3538.6	0.582245	2.47192e-06
3539.5	0.582214	2.734375E-05
3540.36	-0.697083	-0.0229431
3541.24	0.582245	1.25122e-06
3542.14	0.582306	2.09961e-05
3543	-0.69751	-0.0169006
3543.88	0.582245	4.57764e-07
3544.78	0.582306	1.57471e-05
3545.66	0.000952148	0.00703247
3546.52	0.582275	3.35693e-07
3547.42	0.582275	1.20239e-05
3548.3	0.00113525	0.00480011
3549.16	0.582367	-3.05176e-07
3550.06	0.582306	1.07117e-05
3550.96	0.581329	0.0174011
3551.8	0.582245	-1.80054e-06
3552.7	0.582214	8.54492e-06
3553.6	0.581787	0.0098114
3554.44	0.582306	-1.09863e-06
3555.34	0.582306	6.80542e-06
3556.24	0.582306	0.000393097
3557.08	0.582214	-1.64795e-06
3557.98	0.582275	4.02832e-06
3558.88	0.582214	9.21021e-05
3559.72	0.582214	-1.83105e-06
3560.62	0.582275	3.20435e-06
3561.52	0.582214	5.12085e-05
3562.36	0.582306	-2.22778e-06
3563.26	0.582214	3.84521e-06
3564.16	0.582275	3.62549e-05
3565	0.582336	-3.26538e-06
3565.9	0.582306	1.7395e-06
3566.8	0.582214	2.74048e-05
3567.66	-0.697174	-0.0229828
3568.54	0.582306	1.7395e-06
3569.44	0.582184	2.04468e-05
3570.3	-0.697449	-0.0169556
3571.18	0.582245	7.62939e-07
3572.08	0.582336	1.50452e-05
3572.96	0.00100708	0.00698669
3573.82	0.582275	-4.27246e-07
3574.72	0.582275	1.30615e-05
3575.6	0.00115356	0.00477386
3576.46	0.582306	-7.93457e-07
3577.36	0.582245	1.03149e-05
3578.26	0.58139	0.0174164
3579.1	0.582214	-1.37329e-06
3580	0.582245	7.96509e-06
3580.9	0.581879	0.00993652
3581.74	0.582245	-1.64795e-06
3582.64	0.582214	7.17163e-06
3583.54	0.582214	0.000416382
3584.38	0.582275	-1.28174e-06
3585.28	0.582245	4.05884e-06
3586.18	0.582214	9.60388e-05
3587.02	0.582245	-6.71387e-07
3587.92	0.582153	2.56348e-06
3588.82	0.582245	5.23682e-05
3589.66	0.582245	-1.49536e-06
3590.56	0.582184	2.0752e-06
3591.46	0.582245	3.75061e-05
3592.3	0.582275	-3.41797e-06
3593.2	0.582245	1.19019e-06
3594.1	0.582245	2.73743e-05
3594.96	-0.697144	-0.0230042
3595.84	0.582275	1.31226e-06
3596.74	0.582245	2.11487e-05
3597.6	-0.697449	-0.0170074
3598.48	0.582306	-3.96729e-07
3599.38	0.582245	1.60217e-05
3600.26	0.000982666	0.00694855
3601.12	0.582275	-2.13623e-07
3602.02	0.582275	1.31226e-05
3602.9	0.00114441	0.00474457
3603.76	0.582245	-6.10352e-07
3604.66	0.582245	1.07727e-05
3605.56	0.581299	0.0174347
3606.4	0.582275	-1.70898e-06
3607.3	0.582245	8.36182e-06
3608.2	0.581818	0.0100494
3609.04	0.582245	-1.83105e-06
3609.94	0.582245	6.37817e-06
3610.84	0.582214	0.00043924
3611.68	0.582245	-3.08228e-06
3612.58	0.582275	4.36401e-06
3613.48	0.582275	9.93347e-05
3614.32	0.582306	-2.92969e-06
3615.22	0.582214	3.20435e-06
3616.12	0.582275	5.31921e-05
3616.96	0.582275	-3.26538e-06
3617.86	0.582245	2.92969e-06
3618.76	0.582306	3.64685e-05
3619.6	0.582245	-3.44849e-06
3620.5	0.582214	2.86865e-06
3621.4	0.582275	2.85034e-05
3622.26	-0.697083	-0.0230499
3623.14	0.582214	7.62939e-07
3624.04	0.582245	2.03247e-05
3624.9	-0.69754	-0.0170746
3625.78	0.582245	4.57764e-07
3626.68	0.582245	1.70898e-05
3627.56	0.000982666	0.00689728
3628.42	0.582275	-7.32422e-07
3629.32	0.582214	1.32141e-05
3630.2	0.00114441	0.00471619
3631.06	0.582184	-1.5564e-06
3631.96	0.582214	1.03455e-05
3632.86	0.581329	0.017453
3633.7	0.582275	-1.83105e-06
3634.6	0.582214	8.42285e-06
3635.5	0.581818	0.0101654
3636.34	0.582214	-2.53296e-06
3637.24	0.582214	6.89697e-06
3638.14	0.582336	0.000465424
3638.98	0.582214	-2.10571e-06
3639.88	0.582245	5.46265e-06
3640.78	0.582275	0.000103729
3641.62	0.582245	-4.05884e-06
3642.52	0.582245	3.23486e-06
3643.42	0.582275	5.39856e-05
3644.26	0.582275	-2.47192e-06
3645.16	0.582245	3.57056e-06
3646.06	0.582214	3.8147e-05
3646.9	0.582245	-2.96021e-06
3647.8	0.582245	2.34985e-06
3648.7	0.582245	2.82288e-05
3649.56	-0.697113	-0.0230835
3650.44	0.582214	9.76562e-07
3651.34	0.582214	2.09045e-05
3652.2	-0.69751	-0.0171265
3653.08	0.582245	5.79834e-07
3653.98	0.582245	1.69983e-05
3654.86	0.000985718	0.00684967
3655.72	0.582214	7.32422e-07
3656.62	0.582214	1.35498e-05
3657.5	0.00113831	0.00468414
3658.36	0.582245	-1.40381e-06
3659.26	0.582306	9.64355e-06
3660.16	0.581329	0.0174713
3661	0.582306	-1.2207e-07
3661.9	0.582245	8.20923e-06
3662.8	0.581848	0.0102631
3663.64	0.582153	-6.71387e-07
3664.54	0.582245	6.98853e-06
3665.44	0.582245	0.000489685
3666.28	0.582275	-2.16675e-06
3667.18	0.582306	5.12695e-06
3668.08	0.582214	0.000106079
3668.92	0.582214	-2.31934e-06
3669.82	0.582245	5.09644e-06
3670.72	0.582214	5.28259e-05
3671.56	0.582245	-3.20435e-06
3672.46	0.582184	3.26538e-06
3673.36	0.582306	3.70789e-05
3674.2	0.582275	-2.71606e-06
3675.1	0.582306	2.86865e-06
3676	0.582214	2.79236e-05
3676.86	-0.697113	-0.0231232
3677.74	0.582245	1.12915e-06
3678.64	0.582245	2.02332e-05
3679.5	-0.69751	-0.0171997
3680.38	0.582245	1.77002e-06
3681.28	0.582275	1.69678e-05
3682.16	0.00100098	0.00680908
3683.02	0.582245	1.34277e-06
3683.92	0.582245	1.40381e-05
3684.8	0.00115967	0.00466614
3685.66	0.582245	3.05176e-07
3686.56	0.582245	1.0498e-05
3687.46	0.58136	0.0174866
3688.3	0.582275	-5.79834e-07
3689.2	0.582245	8.91113e-06
3690.1	0.581726	0.010379
3690.94	0.582275	-1.15967e-06
3691.84	0.582214	5.43213e-06
3692.74	0.582214	0.000518188
3693.58	0.582275	-1.89209e-06
3694.48	0.582275	5.12695e-06
3695.38	0.582214	0.000109558
3696.22	0.582336	-1.80054e-06
3697.12	0.582336	4.24194e-06
3698.02	0.582245	5.40161e-05
3698.86	0.582214	-2.16675e-06
3699.76	0.582245	3.38745e-06
3700.66	0.582245	3.79944e-05
3701.5	0.582275	-2.7771e-06
3702.4	0.582275	2.47192e-06
3703.3	0.582245	2.87476e-05
3704.16	-0.696991	-0.0231628
3705.04	0.582214	1.00708e-06
3705.94	0.582245	2.03857e-05
3706.8	-0.697449	-0.0172577
3707.68	0.582245	4.57764e-07
3708.58	0.582214	1.59302e-05
3709.46	0.00101929	0.00676514
3710.32	0.582245	7.01904e-07
3711.22	0.582245	1.37329e-05
3712.1	0.00112305	0.00463654
3712.96	0.582275	-5.18799e-07
3713.86	0.582214	9.8877e-06
3714.76	0.581268	0.017511
3715.6	0.582275	-1.40381e-06
3716.5	0.582275	7.87354e-06
3717.4	0.581818	0.0104736
3718.24	0.582306	-1.00708e-06
3719.14	0.582214	6.86646e-06
3720.04	0.582214	0.00054718
3720.88	0.582245	-2.56348e-06
3721.78	0.582306	5.27954e-06
3722.68	0.582245	0.000115204
3723.52	0.582245	-1.92261e-06
3724.42	0.582214	4.94385e-06
3725.32	0.582275	5.59082e-05
3726.16	0.582275	-2.7771e-06
3727.06	0.582214	3.26538e-06
3727.96	0.582245	3.78113e-05
3728.8	0.582306	-2.56348e-06
3729.7	0.582245	1.46484e-06
3730.6	0.582245	2.83203e-05
3731.46	-0.696991	-0.0231964
3732.34	0.582275	1.52588e-07
3733.24	0.582214	2.23694e-05
3734.1	-0.697418	-0.0173126
3734.98	0.582245	-8.8501e-07
3735.88	0.582275	1.70288e-05
3736.76	0.00100098	0.00671997
3737.62	0.582245	-9.15527e-08
3738.52	0.582275	1.39465e-05
3739.4	0.00115967	0.00460876
3740.26	0.582245	-8.8501e-07
3741.16	0.582306	1.09253e-05
3742.06	0.581329	0.0175201
3742.9	0.582245	-8.8501e-07
3743.8	0.582275	8.3313e-06
3744.7	0.581787	0.0105591
3745.54	0.582245	-1.89209e-06
3746.44	0.582214	7.01904e-06
3747.34	0.582214	0.000574646
3748.18	0.582275	-2.13623e-06
3749.08	0.582214	5.49316e-06
3749.98	0.582306	0.000119904
3750.82	0.582214	-2.50244e-06
3751.72	0.582214	4.30298e-06
3752.62	0.582275	5.60608e-05
3753.46	0.582275	-2.38037e-06
3754.36	0.582275	2.80762e-06
3755.26	0.582275	3.90015e-05
3756.1	0.582275	-3.17383e-06
3757	0.582184	2.13623e-06
3757.9	0.582245	2.92969e-05
3758.76	-0.697113	-0.0232239
3759.64	0.582245	1.06812e-06
3760.54	0.582214	2.20642e-05
3761.4	-0.69751	-0.0173615
3762.28	0.582245	-3.05176e-08
3763.18	0.582306	1.73645e-05
3764.06	0.000985718	0.00667023
3764.92	0.582245	-3.05176e-08
3765.82	0.582214	1.32446e-05
3766.7	0.00116272	0.00458038
3767.56	0.582275	-5.49316e-07
3768.46	0.582336	1.17798e-05
3769.36	0.58139	0.0175354
3770.2	0.582245	-1.80054e-06
3771.1	0.582306	8.3313e-06
3772	0.581757	0.0106476
3772.84	0.582245	-1.43433e-06
3773.74	0.582306	6.7749e-06
3774.64	0.582214	0.000603333
3775.48	0.582245	-2.28882e-06
3776.38	0.582275	5.31006e-06
3777.28	0.582245	0.00012384
3778.12	0.582275	-2.01416e-06
3779.02	0.582306	4.30298e-06
3779.92	0.582275	5.70984e-05
3780.76	0.582245	-3.44849e-06
3781.66	0.582153	2.89917e-06
3782.56	0.582245	3.86963e-05
3783.4	0.582214	-3.23486e-06
3784.3	0.582214	2.56348e-06
3785.2	0.582275	2.8717e-05
3786.06	-0.697021	-0.0232513
3786.94	0.582245	2.28882e-06
3787.84	0.582245	2.26135e-05
3788.7	-0.69751	-0.0174164
3789.58	0.582184	2.44141e-07
3790.48	0.582245	1.66321e-05
3791.36	0.000979614	0.00662994
3792.22	0.582245	1.2207e-07
3793.12	0.582184	1.42517e-05
3794	0.00113831	0.00454956
3794.86	0.582245	-5.79834e-07
3795.76	0.582245	1.05591e-05
3796.66	0.581299	0.0175446
3797.5	0.582214	-1.06812e-06
3798.4	0.582245	9.46045e-06
3799.3	0.581818	0.0107361
3800.14	0.582245	-9.46045e-07
3801.04	0.582245	7.62939e-06
3801.94	0.582245	0.000632935
3802.78	0.582306	-8.54492e-07
3803.68	0.582245	6.22559e-06
3804.58	0.582245	0.00012973
3805.42	0.582275	-2.16675e-06
3806.32	0.582245	4.69971e-06
3807.22	0.582275	5.71289e-05
3808.06	0.582214	-2.80762e-06
3808.96	0.582245	4.18091e-06
3809.86	0.582245	3.76892e-05
3810.7	0.582275	-2.65503e-06
3811.6	0.582275	2.74658e-06
3812.5	0.582184	2.8717e-05
3813.36	-0.697052	-0.0232849
3814.24	0.582214	1.43433e-06
3815.14	0.582245	2.11792e-05
3816	-0.697449	-0.0174683
3816.88	0.582275	1.49536e-06
3817.78	0.582275	1.72119e-05
3818.66	0.000997925	0.006586
3819.52	0.582245	9.46045e-07
3820.42	0.582275	1.37939e-05
3821.3	0.00118408	0.00452698
3822.16	0.582306	9.15527e-07
3823.06	0.582275	1.02844e-05
3823.96	0.58136	0.0175568
3824.8	0.582214	-2.13623e-07
3825.7	0.582245	8.75854e-06
3826.6	0.581757	0.0108185
3827.44	0.582336	-4.27246e-07
3828.34	0.582275	6.62231e-06
3829.24	0.582214	0.000662842
3830.08	0.582306	-1.40381e-06
3830.98	0.582214	5.76782e-06
3831.88	0.582245	0.000135132
3832.72	0.582214	-1.77002e-06
3833.62	0.582275	3.479e-06
3834.52	0.582245	5.81055e-05
3835.36	0.582245	-2.92969e-06
3836.26	0.582275	3.26538e-06
3837.16	0.582367	3.85437e-05
3838	0.582245	-3.14331e-06
3838.9	0.582245	2.86865e-06
3839.8	0.582275	2.80762e-05
3840.66	-0.697083	-0.0233276
3841.54	0.582306	2.0752e-06
3842.44	0.582275	2.21558e-05
3843.3	-0.697418	-0.0175537
3844.18	0.582336	-7.01904e-07
3845.08	0.582275	1.70593e-05
3845.96	0.00098877	0.00654022
3846.82	0.582275	-1.83105e-07
3847.72	0.582275	1.42517e-05
3848.6	0.00115051	0.00450317
3849.46	0.582275	-8.54492e-07
3850.36	0.582245	1.06812e-05
3851.26	0.58136	0.0175934
3852.1	0.582214	-4.27246e-07
3853	0.582184	8.5144e-06
3853.9	0.581787	0.0109039
3854.74	0.582214	-2.38037e-06
3855.64	0.582275	7.35474e-06
3856.54	0.582184	0.000697327
3857.38	0.582275	-7.32422e-07
3858.28	0.582153	6.89697e-06
3859.18	0.582275	0.00014032
3860.02	0.582214	-2.96021e-06
3860.92	0.582214	3.63159e-06
3861.82	0.582245	5.88379e-05
3862.66	0.582275	-1.86157e-06
3863.56	0.582245	2.83813e-06
3864.46	0.582275	3.92456e-05
3865.3	0.582275	-1.31226e-06
3866.2	0.582214	1.61743e-06
3867.1	0.582275	2.9541e-05
3867.96	-0.697021	-0.0233887
3868.84	0.582245	1.64795e-06
3869.74	0.582245	2.24609e-05
3870.6	-0.697418	-0.01763
3871.48	0.582275	8.54492e-07
3872.38	0.582245	1.77917e-05
3873.26	0.00098877	0.00650848
3874.12	0.582245	-5.18799e-07
3875.02	0.582275	1.297e-05
3875.9	0.00112915	0.00449158
3876.76	0.582306	-5.79834e-07
3877.66	0.582214	1.15662e-05
3878.56	0.581299	0.0176361
3879.4	0.582245	-1.0376e-06
3880.3	0.582245	8.57544e-06
3881.2	0.581787	0.010965
3882.04	0.582306	-1.7395e-06
3882.94	0.582214	6.98853e-06
3883.84	0.582153	0.000726929
3884.68	0.582214	-8.8501e-07
3885.58	0.582245	5.52368e-06
3886.48	0.582275	0.000146332
3887.32	0.582245	-2.41089e-06
3888.22	0.582245	4.79126e-06
3889.12	0.582306	6.06079e-05
3889.96	0.582245	-1.95313e-06
3890.86	0.582245	3.32642e-06
3891.76	0.582336	3.89099e-05
3892.6	0.582306	-2.65503e-06
3893.5	0.582245	2.0752e-06
3894.4	0.582245	2.84424e-05
3895.26	-0.697021	-0.0234344
3896.14	0.582275	1.86157e-06
3897.04	0.582275	2.20642e-05
3897.9	-0.697449	-0.0176971
3898.78	0.582275	4.27246e-07
3899.68	0.582275	1.77307e-05
3900.56	0.00100098	0.0064624
3901.42	0.582306	-8.8501e-07
3902.32	0.582306	1.38245e-05
3903.2	0.00116272	0.00446411
3904.06	0.582184	2.44141e-07
3904.96	0.582306	1.1322e-05
3905.86	0.58139	0.0176422
3906.7	0.582245	-1.34277e-06
3907.6	0.582275	8.20923e-06
3908.5	0.581726	0.0110352
3909.34	0.582245	-1.70898e-06
3910.24	0.582306	8.23975e-06
3911.14	0.582245	0.000759583
3911.98	0.582245	-1.86157e-06
3912.88	0.582275	5.24902e-06
3913.78	0.582245	0.000151367
3914.62	0.582275	-1.70898e-06
3915.52	0.582306	4.08936e-06
3916.42	0.582214	6.17065e-05
3917.26	0.582275	-3.41797e-06
3918.16	0.582275	3.75366e-06
3919.06	0.582275	3.91235e-05
3919.9	0.582245	-3.38745e-06
3920.8	0.582306	2.34985e-06
3921.7	0.582275	2.93884e-05
3922.56	-0.697021	-0.0234497
3923.44	0.582245	2.44141e-06
3924.34	0.582245	2.21558e-05
3925.2	-0.697449	-0.0177368
3926.08	0.582245	9.15527e-08
3926.98	0.582245	1.75476e-05
3927.86	0.000970459	0.00641907
3928.72	0.582306	7.93457e-07
3929.62	0.582275	1.37939e-05
3930.5	0.00114136	0.00443573
3931.36	0.582275	2.13623e-07
3932.26	0.582306	1.2146e-05
3933.16	0.581329	0.0176483
3934	0.582306	-7.01904e-07
3934.9	0.582275	9.12476e-06
3935.8	0.581757	0.0111053
3936.64	0.582245	-1.92261e-06
3937.54	0.582275	6.95801e-06
3938.44	0.582184	0.000795593
3939.28	0.582245	-7.62939e-07
3940.18	0.582306	6.10352e-06
3941.08	0.582184	0.000158783
3941.92	0.582245	-1.25122e-06
3942.82	0.582184	4.54712e-06
3943.72	0.582275	6.11877e-05
3944.56	0.582245	-1.31226e-06
3945.46	0.582214	3.38745e-06
3946.36	0.582245	3.81165e-05
3947.2	0.582245	-2.47192e-06
3948.1	0.582306	3.05176e-06
3949	0.582214	2.74048e-05
3949.86	-0.697083	-0.0234833
3950.74	0.582306	2.16675e-06
3951.64	0.582184	2.19727e-05
3952.5	-0.697449	-0.0177948
3953.38	0.582214	2.47192e-06
3954.28	0.582214	1.65405e-05
3955.16	0.0010376	0.00638763
3956.02	0.582245	2.13623e-07
3956.92	0.582245	1.36108e-05
3957.8	0.00116577	0.0044165
3958.66	0.582275	-2.74658e-07
3959.56	0.582245	1.1261e-05
3960.46	0.581329	0.0176605
3961.3	0.582306	-3.05176e-07
3962.2	0.582275	9.0332e-06
3963.1	0.581726	0.0111725
3963.94	0.582275	-1.31226e-06
3964.84	0.582245	7.20215e-06
3965.74	0.582184	0.000826721
3966.58	0.582275	-5.49316e-07
3967.48	0.582245	5.7373e-06
3968.38	0.582214	0.000166962
3969.22	0.582245	-1.7395e-06
3970.12	0.582275	3.72314e-06
3971.02	0.582214	6.36292e-05
3971.86	0.582275	-1.95313e-06
3972.76	0.582245	3.75366e-06
3973.66	0.582245	3.97034e-05
3974.5	0.582306	-2.2583e-06
3975.4	0.582306	2.7771e-06
3976.3	0.582245	2.87781e-05
3977.16	-0.697021	-0.0234985
3978.04	0.582275	1.98364e-06
3978.94	0.582245	2.27966e-05
3979.8	-0.697388	-0.0178375
3980.68	0.582275	5.49316e-07
3981.58	0.582245	1.71509e-05
3982.46	0.00104065	0.00635162
3983.32	0.582245	5.79834e-07
3984.22	0.582245	1.36719e-05
3985.1	0.00117493	0.00439026
3985.96	0.582306	-1.2207e-07
3986.86	0.582184	1.04065e-05
3987.76	0.581329	0.0176727
3988.6	0.582245	-5.49316e-07
3989.5	0.582184	9.18579e-06
3990.4	0.581726	0.0112274
3991.24	0.582275	-1.46484e-06
3992.14	0.582214	7.56836e-06
3993.04	0.582184	0.000863647
3993.88	0.582275	-1.25122e-06
3994.78	0.582214	4.76074e-06
3995.68	0.582214	0.000174072
3996.52	0.582306	-1.92261e-06
3997.42	0.582245	3.9978e-06
3998.32	0.582214	6.54297e-05
3999.16	0.582245	-2.34985e-06
4000.06	0.582184	2.62451e-06
4000.96	0.582245	4.05579e-05
4001.8	0.582275	-2.74658e-06
4002.7	0.582275	5.49316e-07
4003.6	0.582214	2.96936e-05
4004.46	-0.697113	-0.0235291
4005.34	0.582245	1.43433e-06
4006.24	0.582336	2.22778e-05
4007.1	-0.697388	-0.0178802
4007.98	0.582275	5.79834e-07
4008.88	0.582214	1.75171e-05
4009.76	0.00102539	0.00630829
4010.62	0.582306	-3.05176e-08
4011.52	0.582275	1.47095e-05
4012.4	0.00119934	0.00435852
4013.26	0.582245	-1.67847e-06
4014.16	0.582214	1.11389e-05
4015.06	0.581299	0.0176727
4015.9	0.582245	-5.49316e-07
4016.8	0.582275	9.765625E-06
4017.7	0.581757	0.0112946
4018.54	0.582275	-1.70898e-06
4019.44	0.582245	7.08008e-06
4020.34	0.582184	0.000900574
4021.18	0.582245	-1.67847e-06
4022.08	0.582245	5.31006e-06
4022.98	0.582275	0.000182831
4023.82	0.582245	-2.92969e-06
4024.72	0.582275	4.88281e-06
4025.62	0.582245	6.70776e-05
4026.46	0.582245	-4.02832e-06
4027.36	0.582306	3.26538e-06
4028.26	0.582275	4.21143e-05
4029.1	0.582306	-2.74658e-06
4030	0.582245	1.43433e-06
4030.9	0.582214	2.9541e-05
4031.76	-0.697052	-0.0235535
4032.64	0.582245	1.06812e-06
4033.54	0.582275	2.27966e-05
4034.4	-0.697388	-0.017923
4035.28	0.582245	3.96729e-07
4036.18	0.582245	1.84021e-05
4037.06	0.0010498	0.00626373
4037.92	0.582275	5.49316e-07
4038.82	0.582245	1.51978e-05
4039.7	0.00117493	0.00433319
4040.56	0.582275	-4.27246e-07
4041.46	0.582245	1.25122e-05
4042.36	0.581329	0.0176849
4043.2	0.582275	-3.96729e-07
4044.1	0.582245	9.27734e-06
4045	0.581726	0.0113586
4045.84	0.582275	-1.92261e-06
4046.74	0.582306	7.2937e-06
4047.64	0.582214	0.000935974
4048.48	0.582306	-2.10571e-06
4049.38	0.582214	5.98145e-06
4050.28	0.582306	0.000190125
4051.12	0.582306	-1.70898e-06
4052.02	0.582184	4.76074e-06
4052.92	0.582306	6.90308e-05
4053.76	0.582275	-2.50244e-06
4054.66	0.582306	3.93677e-06
4055.56	0.582245	4.07715e-05
4056.4	0.582275	-3.2959e-06
4057.3	0.582275	2.47192e-06
4058.2	0.582214	3.0304e-05
4059.06	-0.697021	-0.023584
4059.94	0.582245	1.70898e-06
4060.84	0.582275	2.28577e-05
4061.7	-0.697418	-0.0179718
4062.58	0.582214	1.86157e-06
4063.48	0.582275	1.80664e-05
4064.36	0.000997925	0.00622986
4065.22	0.582275	7.93457e-07
4066.12	0.582214	1.47095e-05
4067	0.00114136	0.00431305
4067.86	0.582245	-2.13623e-07
4068.76	0.582153	1.20239e-05
4069.66	0.581329	0.0176941
4070.5	0.582245	-3.35693e-07
4071.4	0.582245	1.06506e-05
4072.3	0.581757	0.0114197
4073.14	0.582245	-1.5564e-06
4074.04	0.582245	7.47681e-06
4074.94	0.582184	0.0009765625
4075.78	0.582245	-1.40381e-06
4076.68	0.582214	5.7373e-06
4077.58	0.582245	0.00019873
4078.42	0.582184	-2.13623e-06
4079.32	0.582275	5.58472e-06
4080.22	0.582275	7.07092e-05
4081.06	0.582245	-3.08228e-06
4081.96	0.582245	4.54712e-06
4082.86	0.582275	4.09851e-05
4083.7	0.582184	-2.0752e-06
4084.6	0.582275	2.92969e-06
4085.5	0.582245	2.99072e-05
4086.36	-0.697021	-0.0236237
4087.24	0.582306	2.68555e-06
4088.14	0.582214	2.22778e-05
4089	-0.697357	-0.0180298
4089.88	0.582245	8.23975e-07
4090.78	0.582245	1.76392e-05
4091.66	0.00100098	0.00619293
4092.52	0.582275	1.80054e-06
4093.42	0.582245	1.41296e-05
4094.3	0.00115967	0.00428619
4095.16	0.582214	5.79834e-07
4096.06	0.582245	1.10474e-05
4096.96	0.58136	0.0177002
4097.8	0.582245	-1.40381e-06
4098.7	0.582306	8.69751e-06
4099.6	0.581757	0.0114746
4100.44	0.582245	-4.27246e-07
4101.34	0.582275	7.65991e-06
4102.24	0.582184	0.0010144
4103.08	0.582245	-1.0376e-06
4103.98	0.582184	6.40869e-06
4104.88	0.582214	0.000207581
4105.72	0.582275	-1.95313e-06
4106.62	0.582245	5.09644e-06
4107.52	0.582184	7.20215e-05
4108.36	0.582275	-1.49536e-06
4109.26	0.582214	3.23486e-06
4110.16	0.582214	4.06494e-05
4111	0.582245	-2.28882e-06
4111.9	0.582245	3.23486e-06
4112.8	0.582336	2.93579e-05
4113.66	-0.697083	-0.0236359
4114.54	0.582245	1.34277e-06
4115.44	0.582275	2.21863e-05
4116.3	-0.697357	-0.0180725
4117.18	0.582306	1.00708e-06
4118.08	0.582275	1.69067e-05
4118.96	0.00102844	0.00615143
4119.82	0.582214	3.66211e-07
4120.72	0.582245	1.39771e-05
4121.6	0.00114441	0.00425842
4122.46	0.582275	-9.15527e-08
4123.36	0.582245	1.09558e-05
4124.26	0.581329	0.0177094
4125.1	0.582214	-2.74658e-07
4126	0.582245	1.06506e-05
4126.9	0.581726	0.0115204
4127.74	0.582275	-7.32422e-07
4128.64	0.582214	6.28662e-06
4129.54	0.582214	0.00105103
4130.38	0.582245	-2.01416e-06
4130.52	0.582214	-3.23486e-06