File: Edgar/20240503/20240503/electrodeposition_pulsed_potential_20240503_A/pulses_3000_to_4000.txt
Time (s)	WE(1).Potential (V)	WE(1).Current (A)
4154.86	-0.697021	-0.0235718
4155.74	0.582275	8.8501e-07
4156.64	0.582245	2.09045e-05
4157.5	-0.697418	-0.018103
4158.38	0.582214	2.13623e-07
4159.28	0.582245	1.69373e-05
4160.16	0.00101929	0.00607056
4161.02	0.582306	2.13623e-07
4161.92	0.582245	1.42212e-05
4162.8	0.00115662	0.00417694
4163.66	0.582336	-1.2207e-07
4164.56	0.582214	1.17798e-05
4165.46	0.58136	0.0176422
4166.3	0.582306	-6.10352e-07
4167.2	0.582245	9.09424e-06
4168.1	0.581696	0.0114716
4168.94	0.582275	-1.15967e-06
4169.84	0.582245	7.14111e-06
4170.74	0.582153	0.00105377
4171.58	0.582245	-1.67847e-06
4172.48	0.582275	6.98853e-06
4173.38	0.582275	0.000219818
4174.22	0.582245	-2.44141e-06
4175.12	0.582245	4.57764e-06
4176.02	0.582153	7.54395e-05
4176.86	0.582214	-1.5564e-06
4177.76	0.582245	3.44849e-06
4178.66	0.582245	4.29993e-05
4179.5	0.582306	-2.19727e-06
4180.4	0.582184	2.62451e-06
4181.3	0.582275	3.00598e-05
4182.16	-0.69696	-0.0236542
4183.04	0.582214	1.80054e-06
4183.94	0.582275	2.28882e-05
4184.8	-0.697388	-0.0181335
4185.68	0.582306	7.62939e-07
4186.58	0.582275	1.71814e-05
4187.46	0.000979614	0.00607208
4188.32	0.582275	-3.35693e-07
4189.22	0.582245	1.38245e-05
4190.1	0.00119324	0.0041861
4190.96	0.582275	-9.15527e-08
4191.86	0.582275	1.15356e-05
4192.76	0.581299	0.0176819
4193.6	0.582245	-1.12915e-06
4194.5	0.582184	9.12476e-06
4195.4	0.581726	0.0115631
4196.24	0.582214	-1.61743e-06
4197.14	0.582306	6.83594e-06
4198.04	0.582184	0.00110748
4198.88	0.582336	-9.15527e-07
4199.78	0.582245	6.04248e-06
4200.68	0.582214	0.00023053
4201.52	0.582214	-1.64795e-06
4202.42	0.582275	3.66211e-06
4203.32	0.582245	7.93457e-05
4204.16	0.582306	-7.62939e-07
4205.06	0.582214	3.60107e-06
4205.96	0.582336	4.38538e-05
4206.8	0.582214	-1.19019e-06
4207.7	0.582275	2.13623e-06
4208.6	0.582275	2.94189e-05
4209.46	-0.696991	-0.0236755
4210.34	0.582245	1.06812e-06
4211.24	0.582275	2.27661e-05
4212.1	-0.697388	-0.0181702
4212.98	0.582306	1.7395e-06
4213.88	0.582275	1.8158e-05
4214.76	0.00104675	0.00604034
4215.62	0.582275	4.88281e-07
4216.52	0.582245	1.54419e-05
4217.4	0.00120239	0.00416718
4218.26	0.582275	-3.05176e-08
4219.16	0.582245	1.15662e-05
4220.06	0.581329	0.017691
4220.9	0.582214	-3.96729e-07
4221.8	0.582275	9.24683e-06
4222.7	0.581726	0.0116241
4223.54	0.582214	-8.8501e-07
4224.44	0.582245	6.92749e-06
4225.34	0.582214	0.00115265
4226.18	0.582336	-1.19019e-06
4227.08	0.582275	5.79834e-06
4227.98	0.582184	0.000240784
4228.82	0.582275	-1.40381e-06
4229.72	0.582245	5.34058e-06
4230.62	0.582245	8.18787e-05
4231.46	0.582275	-2.0752e-06
4232.36	0.582214	3.08228e-06
4233.26	0.582245	4.49219e-05
4234.1	0.582275	-2.13623e-06
4235	0.582245	2.74658e-06
4235.9	0.582306	3.06091e-05
4236.76	-0.696991	-0.0236938
4237.64	0.582245	1.89209e-06
4238.54	0.582275	2.30713e-05
4239.4	-0.697388	-0.0181976
4240.28	0.582214	1.46484e-06
4241.18	0.582275	1.81274e-05
4242.06	0.00103149	0.0060025
4242.92	0.582275	-3.05176e-08
4243.82	0.582306	1.49231e-05
4244.7	0.00121155	0.00414368
4245.56	0.582245	-2.44141e-07
4246.46	0.582275	1.15967e-05
4247.36	0.581329	0.0176941
4248.2	0.582214	-3.66211e-07
4249.1	0.582214	9.82666e-06
4250	0.581726	0.0116791
4250.84	0.582245	-1.70898e-06
4251.74	0.582336	7.56836e-06
4252.64	0.582153	0.00119446
4253.48	0.582245	-1.64795e-06
4254.38	0.582245	6.46973e-06
4255.28	0.582275	0.000251587
4256.12	0.582306	-2.71606e-06
4257.02	0.582153	4.05884e-06
4257.92	0.582214	8.4198e-05
4258.76	0.582245	-3.17383e-06
4259.66	0.582245	3.60107e-06
4260.56	0.582306	4.42505e-05
4261.4	0.582214	-2.41089e-06
4262.3	0.582214	2.53296e-06
4263.2	0.582275	3.15247e-05
4264.06	-0.697021	-0.0237152
4264.94	0.582275	9.15527e-07
4265.84	0.582214	2.35901e-05
4266.7	-0.697388	-0.0182343
4267.58	0.582245	8.54492e-07
4268.48	0.582245	1.87378e-05
4269.36	0.00105286	0.00596741
4270.22	0.582306	1.2207e-07
4271.12	0.582245	1.57166e-05
4272	0.00116577	0.0041217
4272.86	0.582306	-1.34277e-06
4273.76	0.582336	1.16882e-05
4274.66	0.58139	0.0177032
4275.5	0.582275	-6.10352e-08
4276.4	0.582245	9.67407e-06
4277.3	0.581726	0.0117279
4278.14	0.582153	-1.92261e-06
4279.04	0.582245	7.62939e-06
4279.94	0.582214	0.00123871
4280.78	0.582245	-1.98364e-06
4281.68	0.582214	6.01196e-06
4282.58	0.582275	0.000262238
4283.42	0.582214	-3.02124e-06
4284.32	0.582245	5.21851e-06
4285.22	0.582306	8.7616e-05
4286.06	0.582245	-2.74658e-06
4286.96	0.582245	3.75366e-06
4287.86	0.582245	4.55627e-05
4288.7	0.582245	-2.2583e-06
4289.6	0.582275	3.23486e-06
4290.5	0.582336	3.07007e-05
4291.36	-0.696991	-0.0237427
4292.24	0.582214	1.83105e-06
4293.14	0.582245	2.54822e-05
4294	-0.697479	-0.0182983
4294.88	0.582214	2.44141e-06
4295.78	0.582214	1.91345e-05
4296.66	0.00103149	0.00593719
4297.52	0.582214	1.49536e-06
4298.42	0.582214	1.67542e-05
4299.3	0.00112305	0.00409943
4300.16	0.582275	2.74658e-07
4301.06	0.582245	1.23596e-05
4301.96	0.581299	0.0177185
4302.8	0.582275	-7.62939e-07
4303.7	0.582245	9.61304e-06
4304.6	0.581696	0.0117828
4305.44	0.582245	-7.32422e-07
4306.34	0.582214	7.69043e-06
4307.24	0.582245	0.00128632
4308.08	0.582245	-2.0752e-06
4308.98	0.582336	6.92749e-06
4309.88	0.582275	0.000273407
4310.72	0.582275	-2.2583e-06
4311.62	0.582275	5.09644e-06
4312.52	0.582245	9.06372e-05
4313.36	0.582214	-1.95313e-06
4314.26	0.582245	5.00488e-06
4315.16	0.582184	4.57458e-05
4316	0.582245	-3.38745e-06
4316.9	0.582245	2.68555e-06
4317.8	0.582306	3.25928e-05
4318.66	-0.697052	-0.0237762
4319.54	0.582245	1.40381e-06
4320.44	0.582214	2.41394e-05
4321.3	-0.697388	-0.018338
4322.18	0.582245	1.86157e-06
4323.08	0.582153	1.87073e-05
4323.96	0.000997925	0.00589325
4324.82	0.582306	4.57764e-07
4325.72	0.582275	1.48315e-05
4326.6	0.00116882	0.00407349
4327.46	0.582184	7.93457e-07
4328.36	0.582245	1.24512e-05
4329.26	0.581268	0.0177185
4330.1	0.582275	-3.05176e-07
4331	0.582184	9.79614e-06
4331.9	0.581665	0.0118256
4332.74	0.582245	-7.32422e-07
4333.64	0.582245	8.30078e-06
4334.54	0.582245	0.00133118
4335.38	0.582245	-1.31226e-06
4336.28	0.582275	6.50024e-06
4337.18	0.582184	0.000283875
4338.02	0.582245	-1.67847e-06
4338.92	0.582184	5.21851e-06
4339.82	0.582184	9.25293e-05
4340.66	0.582245	-2.22778e-06
4341.56	0.582275	4.21143e-06
4342.46	0.582245	4.64478e-05
4343.3	0.582306	-2.2583e-06
4344.2	0.582214	3.35693e-06
4345.1	0.582275	3.08533e-05
4345.96	-0.696991	-0.0238037
4346.84	0.582245	2.56348e-06
4347.74	0.582245	2.38647e-05
4348.6	-0.697418	-0.018396
4349.48	0.582245	7.62939e-07
4350.38	0.582214	1.83716e-05
4351.26	0.00098877	0.00586548
4352.12	0.582214	9.15527e-07
4353.02	0.582245	1.43738e-05
4353.9	0.0011322	0.00405884
4354.76	0.582306	9.46045e-07
4355.66	0.582275	1.297e-05
4356.56	0.581299	0.0177368
4357.4	0.582245	-5.79834e-07
4358.3	0.582275	9.09424e-06
4359.2	0.581665	0.0118713
4360.04	0.582214	6.10352e-08
4360.94	0.582214	8.30078e-06
4361.84	0.582245	0.00137695
4362.68	0.582245	-2.13623e-07
4363.58	0.582245	5.95093e-06
4364.48	0.582184	0.00029541
4365.32	0.582245	-2.01416e-06
4366.22	0.582214	4.69971e-06
4367.12	0.582245	9.58862e-05
4367.96	0.582275	-1.5564e-06
4368.86	0.582275	3.90625e-06
4369.76	0.582214	4.78516e-05
4370.6	0.582214	-1.95313e-06
4371.5	0.582275	2.41089e-06
4372.4	0.582245	3.15552e-05
4373.26	-0.697052	-0.0238251
4374.14	0.582275	2.99072e-06
4375.04	0.582245	2.38342e-05
4375.9	-0.697327	-0.0184265
4376.78	0.582245	1.52588e-06
4377.68	0.582306	1.72119e-05
4378.56	0.00105591	0.00583008
4379.42	0.582245	-3.96729e-07
4380.32	0.582214	1.37634e-05
4381.2	0.00116577	0.00403351
4382.06	0.582245	-3.05176e-07
4382.96	0.582214	1.20544e-05
4383.86	0.581299	0.0177307
4384.7	0.582275	-8.8501e-07
4385.6	0.582245	1.03149e-05
4386.5	0.581696	0.0119141
4387.34	0.582245	-6.40869e-07
4388.24	0.582214	7.35474e-06
4389.14	0.582245	0.00141846
4389.98	0.582306	-2.74658e-07
4390.88	0.582153	6.34766e-06
4391.78	0.582275	0.000306366
4392.62	0.582245	-2.59399e-06
4393.52	0.582184	5.06592e-06
4394.42	0.582214	0.000100189
4395.26	0.582245	-1.19019e-06
4396.16	0.582214	2.0752e-06
4397.06	0.582184	4.83398e-05
4397.9	0.582275	-1.95313e-06
4398.8	0.582275	2.86865e-06
4399.7	0.582245	3.28979e-05
4400.56	-0.697021	-0.023819
4401.44	0.582214	1.49536e-06
4402.34	0.582275	2.38953e-05
4403.2	-0.697327	-0.0184479
4404.08	0.582245	1.28174e-06
4404.98	0.582275	1.81885e-05
4405.86	0.00104675	0.00579407
4406.72	0.582214	6.40869e-07
4407.62	0.582245	1.50757e-05
4408.5	0.00120239	0.00400482
4409.36	0.582245	2.44141e-07
4410.26	0.582245	1.16272e-05
4411.16	0.581329	0.0177307
4412	0.582275	-1.2207e-07
4412.9	0.582275	9.79614e-06
4413.8	0.581696	0.0119446
4414.64	0.582214	-8.54492e-07
4415.54	0.582275	8.30078e-06
4416.44	0.582245	0.00146057
4417.28	0.582214	-6.71387e-07
4418.18	0.582214	5.85937e-06
4419.08	0.582306	0.000317902
4419.92	0.582275	-3.20435e-06
4420.82	0.582275	4.60815e-06
4421.72	0.582275	0.000103241
4422.56	0.582275	-1.83105e-06
4423.46	0.582184	3.26538e-06
4424.36	0.582245	4.9408e-05
4425.2	0.582275	-3.14331e-06
4426.1	0.582275	2.28882e-06
4427	0.582275	3.26843e-05
4427.86	-0.697021	-0.0238434
4428.74	0.582245	1.31226e-06
4429.64	0.582275	2.44446e-05
4430.5	-0.697388	-0.0184845
4431.38	0.582214	7.32422e-07
4432.28	0.582275	1.84631e-05
4433.16	0.00103455	0.00575836
4434.02	0.582275	1.2207e-07
4434.92	0.582245	1.57776e-05
4435.8	0.00114441	0.00397705
4436.66	0.582184	-6.10352e-07
4437.56	0.582214	1.16272e-05
4438.46	0.581329	0.0177368
4439.3	0.582245	-8.8501e-07
4440.2	0.582214	9.8877e-06
4441.1	0.581696	0.0119812
4441.94	0.582214	-1.64795e-06
4442.84	0.582245	7.93457e-06
4443.74	0.582245	0.0015033
4444.58	0.582306	-1.64795e-06
4445.48	0.582214	6.37817e-06
4446.38	0.582275	0.000329681
4447.22	0.582214	-2.31934e-06
4448.12	0.582214	4.76074e-06
4449.02	0.582336	0.000108154
4449.86	0.582245	-1.7395e-06
4450.76	0.582214	4.3335e-06
4451.66	0.582245	5.02014e-05
4452.5	0.582275	-9.15527e-07
4453.4	0.582275	2.89917e-06
4454.3	0.582275	3.2959e-05
4455.16	-0.697021	-0.0238586
4456.04	0.582245	2.59399e-06
4456.94	0.582245	2.4292e-05
4457.8	-0.697357	-0.0185181
4458.68	0.582245	1.19019e-06
4459.58	0.582336	1.90125e-05
4460.46	0.00104065	0.0057251
4461.32	0.582214	6.40869e-07
4462.22	0.582275	1.52283e-05
4463.1	0.0012146	0.0039502
4463.96	0.582214	-8.8501e-07
4464.86	0.582245	1.32446e-05
4465.76	0.581268	0.0177429
4466.6	0.582214	-4.88281e-07
4467.5	0.582306	8.81958e-06
4468.4	0.581696	0.0120178
4469.24	0.582214	-5.49316e-07
4470.14	0.582245	1.00403e-05
4471.04	0.582275	0.00154846
4471.88	0.582275	-9.15527e-07
4472.78	0.582245	7.87354e-06
4473.68	0.582245	0.000340698
4474.52	0.582245	-2.38037e-06
4475.42	0.582306	5.09644e-06
4476.32	0.582275	0.000111206
4477.16	0.582245	-2.2583e-06
4478.06	0.582275	3.8147e-06
4478.96	0.582245	5.19714e-05
4479.8	0.582306	-3.26538e-06
4480.7	0.582214	3.05176e-06
4481.6	0.582245	3.25623e-05
4482.46	-0.697021	-0.0238678
4483.34	0.582336	2.34985e-06
4484.24	0.582275	2.48413e-05
4485.1	-0.697388	-0.0185516
4485.98	0.582245	1.80054e-06
4486.88	0.582306	1.93481e-05
4487.76	0.00101624	0.00569092
4488.62	0.582214	1.28174e-06
4489.52	0.582245	1.5625e-05
4490.4	0.00116272	0.0039267
4491.26	0.582214	2.74658e-07
4492.16	0.582214	1.30005e-05
4493.06	0.581329	0.0177338
4493.9	0.582214	-2.13623e-07
4494.8	0.582245	9.85718e-06
4495.7	0.581696	0.0120544
4496.54	0.582245	-8.23975e-07
4497.44	0.582214	9.09424e-06
4498.34	0.582184	0.00159058
4499.18	0.582184	-6.40869e-07
4500.08	0.582275	7.41577e-06
4500.98	0.582214	0.000351898
4501.82	0.582306	-2.0752e-06
4502.72	0.582214	5.37109e-06
4503.62	0.582245	0.000114288
4504.46	0.582245	-7.32422e-07
4505.36	0.582245	4.57764e-06
4506.26	0.582245	5.27649e-05
4507.1	0.582275	-2.28882e-06
4508	0.582275	2.68555e-06
4508.9	0.582275	3.33252e-05
4509.76	-0.696991	-0.02388
4510.64	0.582214	3.14331e-06
4511.54	0.582245	2.56958e-05
4512.4	-0.697357	-0.0185791
4513.28	0.582245	2.44141e-06
4514.18	0.582245	1.87683e-05
4515.06	0.00102234	0.00565948
4515.92	0.582306	1.40381e-06
4516.82	0.582367	1.49841e-05
4517.7	0.00114136	0.0039035
4518.56	0.582245	7.01904e-07
4519.46	0.582214	1.31531e-05
4520.36	0.581299	0.0177368
4521.2	0.582245	-6.40869e-07
4522.1	0.582275	8.88062e-06
4523	0.581696	0.0120911
4523.84	0.582245	-6.71387e-07
4524.74	0.582245	8.54492e-06
4525.64	0.582245	0.00163818
4526.48	0.582245	-5.79834e-07
4527.38	0.582306	6.10352e-06
4528.28	0.582214	0.000364319
4529.12	0.582306	-1.77002e-06
4530.02	0.582275	4.94385e-06
4530.92	0.582245	0.000118835
4531.76	0.582214	-2.16675e-06
4532.66	0.582245	4.76074e-06
4533.56	0.582245	5.39246e-05
4534.4	0.582306	-1.46484e-06
4535.3	0.582245	3.60107e-06
4536.2	0.582214	3.34167e-05
4537.06	-0.69696	-0.0238922
4537.94	0.582245	1.89209e-06
4538.84	0.582245	2.43225e-05
4539.7	-0.697296	-0.0186127
4540.58	0.582306	1.7395e-06
4541.48	0.582275	1.76392e-05
4542.36	0.00105896	0.00562378
4543.22	0.582275	1.61743e-06
4544.12	0.582184	1.62354e-05
4545	0.00115662	0.00387756
4545.86	0.582275	2.13623e-07
4546.76	0.582214	1.29395e-05
4547.66	0.58136	0.0177368
4548.5	0.582336	3.35693e-07
4549.4	0.582306	9.552e-06
4550.3	0.581665	0.0121185
4551.14	0.582214	-2.13623e-07
4552.04	0.582275	8.60596e-06
4552.94	0.582184	0.00168396
4553.78	0.582245	-1.09863e-06
4554.68	0.582214	6.95801e-06
4555.58	0.582153	0.000377014
4556.42	0.582275	-1.46484e-06
4557.32	0.582306	5.34058e-06
4558.22	0.582184	0.000123688
4559.06	0.582245	-1.19019e-06
4559.96	0.582245	4.02832e-06
4560.86	0.582306	5.65796e-05
4561.7	0.582245	-1.49536e-06
4562.6	0.582245	3.02124e-06
4563.5	0.582214	3.40271e-05
4564.36	-0.696991	-0.0239105
4565.24	0.582245	2.13623e-06
4566.14	0.582245	2.45056e-05
4567	-0.697296	-0.0186432
4567.88	0.582214	5.18799e-07
4568.78	0.582245	1.99585e-05
4569.66	0.00105896	0.00558746
4570.52	0.582306	9.15527e-07
4571.42	0.582275	1.53503e-05
4572.3	0.00114746	0.00385071
4573.16	0.582275	-1.83105e-07
4574.06	0.582275	1.23596e-05
4574.96	0.581329	0.0177368
4575.8	0.582245	-1.52588e-07
4576.7	0.582245	9.09424e-06
4577.6	0.581696	0.0121552
4578.44	0.582245	-4.88281e-07
4579.34	0.582245	8.57544e-06
4580.24	0.582184	0.00173584
4581.08	0.582275	-4.27246e-07
4581.98	0.582275	6.5918e-06
4582.88	0.582245	0.000390564
4583.72	0.582245	-1.2207e-06
4584.62	0.582214	5.31006e-06
4585.52	0.582214	0.000129364
4586.36	0.582245	-1.15967e-06
4587.26	0.582275	3.35693e-06
4588.16	0.582275	5.70374e-05
4589	0.582184	-2.74658e-06
4589.9	0.582275	1.86157e-06
4590.8	0.582306	3.39966e-05
4591.66	-0.697021	-0.0239258
4592.54	0.582245	2.22778e-06
4593.44	0.582306	2.53601e-05
4594.3	-0.697296	-0.0186798
4595.18	0.582245	7.93457e-07
4596.08	0.582336	1.97754e-05
4596.96	0.0010498	0.00555664
4597.82	0.582245	-2.74658e-07
4598.72	0.582245	1.60217e-05
4599.6	0.00117493	0.00382782
4600.46	0.582245	-2.13623e-07
4601.36	0.582275	1.24817e-05
4602.26	0.581299	0.0177429
4603.1	0.582245	-8.23975e-07
4604	0.582275	9.30786e-06
4604.9	0.581665	0.0121826
4605.74	0.582306	-9.46045e-07
4606.64	0.582245	7.62939e-06
4607.54	0.582245	0.00177795
4608.38	0.582184	-7.32422e-07
4609.28	0.582214	6.2561e-06
4610.18	0.582245	0.000402466
4611.02	0.582214	-1.70898e-06
4611.92	0.582275	4.79126e-06
4612.82	0.582306	0.000132599
4613.66	0.582275	-2.28882e-06
4614.56	0.582275	3.41797e-06
4615.46	0.582214	5.85327e-05
4616.3	0.582245	-2.50244e-06
4617.2	0.582275	2.62451e-06
4618.1	0.582245	3.4668e-05
4618.96	-0.697021	-0.0239288
4619.84	0.582245	1.83105e-06
4620.74	0.582214	2.58789e-05
4621.6	-0.697327	-0.0186951
4622.48	0.582245	1.15967e-06
4623.38	0.582245	2.01416e-05
4624.26	0.0010498	0.00552551
4625.12	0.582275	-4.88281e-07
4626.02	0.582245	1.60217e-05
4626.9	0.00119019	0.00380402
4627.76	0.582214	2.13623e-07
4628.66	0.582245	1.34277e-05
4629.56	0.581329	0.0177338
4630.4	0.582214	-6.40869e-07
4631.3	0.582214	1.13525e-05
4632.2	0.581726	0.0122131
4633.04	0.582275	6.10352e-08
4633.94	0.582275	7.84302e-06
4634.84	0.582306	0.0018277
4635.68	0.582275	-1.61743e-06
4636.58	0.582275	6.74438e-06
4637.48	0.582245	0.000414673
4638.32	0.582245	-7.93457e-07
4639.22	0.582214	6.43921e-06
4640.12	0.582275	0.000138123
4640.96	0.582245	-2.56348e-06
4641.86	0.582275	4.54712e-06
4642.76	0.582275	6.073e-05
4643.6	0.582275	-3.11279e-06
4644.5	0.582214	3.26538e-06
4645.4	0.582275	3.54614e-05
4646.26	-0.697021	-0.0239624
4647.14	0.582306	2.71606e-06
4648.04	0.582214	2.70996e-05
4648.9	-0.697296	-0.0187469
4649.78	0.582275	7.01904e-07
4650.68	0.582306	1.92261e-05
4651.56	0.00106812	0.00549194
4652.42	0.582245	7.93457e-07
4653.32	0.582306	1.62964e-05
4654.2	0.00114441	0.00378082
4655.06	0.582214	3.05176e-08
4655.96	0.582306	1.38245e-05
4656.86	0.581299	0.0177368
4657.7	0.582245	1.09863e-06
4658.6	0.582214	1.12915e-05
4659.5	0.581665	0.0122467
4660.34	0.582184	-8.54492e-07
4661.24	0.582306	9.21631e-06
4662.14	0.582153	0.00187317
4662.98	0.582245	-1.5564e-06
4663.88	0.582275	8.5144e-06
4664.78	0.582245	0.000427612
4665.62	0.582336	-1.92261e-06
4666.52	0.582336	6.37817e-06
4667.42	0.582245	0.000142395
4668.26	0.582214	-1.19019e-06
4669.16	0.582184	4.60815e-06
4670.06	0.582245	6.10962e-05
4670.9	0.582245	-2.13623e-06
4671.8	0.582214	3.50952e-06
4672.7	0.582245	3.57971e-05
4673.56	-0.696991	-0.0239624
4674.44	0.582245	3.11279e-06
4675.34	0.582214	2.65198e-05
4676.2	-0.697357	-0.0187653
4677.08	0.582336	1.67847e-06
4677.98	0.582245	2.02332e-05
4678.86	0.00102234	0.00545685
4679.72	0.582275	9.46045e-07
4680.62	0.582214	1.63269e-05
4681.5	0.00116577	0.00375763
4682.36	0.582214	3.66211e-07
4683.26	0.582275	1.27869e-05
4684.16	0.581299	0.0177368
4685	0.582275	-3.66211e-07
4685.9	0.582275	9.21631e-06
4686.8	0.581665	0.0122711
4687.64	0.582214	-3.35693e-07
4688.54	0.582275	8.5144e-06
4689.44	0.582214	0.00191895
4690.28	0.582336	-6.40869e-07
4691.18	0.582306	7.72095e-06
4692.08	0.582214	0.000439941
4692.92	0.582245	-1.0376e-06
4693.82	0.582245	5.00488e-06
4694.72	0.582245	0.000146759
4695.56	0.582306	-1.92261e-06
4696.46	0.582306	5.27954e-06
4697.36	0.582245	6.29883e-05
4698.2	0.582306	-1.43433e-06
4699.1	0.582245	2.74658e-06
4700	0.582275	3.57971e-05
4700.86	-0.697052	-0.0239716
4701.74	0.582306	2.96021e-06
4702.64	0.582245	2.6062e-05
4703.5	-0.697327	-0.0187927
4704.38	0.582275	2.31934e-06
4705.28	0.582245	1.95923e-05
4706.16	0.00107117	0.00542725
4707.02	0.582336	2.34985e-06
4707.92	0.582275	1.58691e-05
4708.8	0.00111694	0.00373413
4709.66	0.582275	8.23975e-07
4710.56	0.582184	1.24207e-05
4711.46	0.581329	0.0177277
4712.3	0.582275	9.15527e-07
4713.2	0.582184	9.3689e-06
4714.1	0.581696	0.0122986
4714.94	0.582275	-3.05176e-08
4715.84	0.582214	7.62939e-06
4716.74	0.582184	0.0019635
4717.58	0.582306	-2.74658e-07
4718.48	0.582275	6.073e-06
4719.38	0.582245	0.000451904
4720.22	0.582336	-1.5564e-06
4721.12	0.582275	6.2561e-06
4722.02	0.582245	0.000154175
4722.86	0.582275	-1.92261e-06
4723.76	0.582245	3.57056e-06
4724.66	0.582245	6.52161e-05
4725.5	0.582275	-1.61743e-06
4726.4	0.582275	2.62451e-06
4727.3	0.582245	3.76587e-05
4728.16	-0.69696	-0.0239777
4729.04	0.582306	1.77002e-06
4729.94	0.582214	2.53601e-05
4730.8	-0.697327	-0.0188202
4731.68	0.582245	1.43433e-06
4732.58	0.582214	1.93787e-05
4733.46	0.0010498	0.00539825
4734.32	0.582275	1.15967e-06
4735.22	0.582275	1.58386e-05
4736.1	0.0011322	0.00371368
4736.96	0.582275	2.44141e-07
4737.86	0.582184	1.19934e-05
4738.76	0.581268	0.0177399
4739.6	0.582245	6.10352e-08
4740.5	0.582245	9.61304e-06
4741.4	0.581665	0.012326
4742.24	0.582275	3.05176e-07
4743.14	0.582214	7.35474e-06
4744.04	0.582245	0.00201141
4744.88	0.582214	-4.88281e-07
4745.78	0.582367	6.53076e-06
4746.68	0.582306	0.000466064
4747.52	0.582245	-1.09863e-06
4748.42	0.582245	5.5542e-06
4749.32	0.582275	0.000159363
4750.16	0.582245	-2.22778e-06
4751.06	0.582245	3.44849e-06
4751.96	0.582245	6.64978e-05
4752.8	0.582245	-1.58691e-06
4753.7	0.582214	3.20435e-06
4754.6	0.582245	3.83911e-05
4755.46	-0.69696	-0.023996
4756.34	0.582306	1.95313e-06
4757.24	0.582275	2.51465e-05
4758.1	-0.697327	-0.0188538
4758.98	0.582214	7.93457e-07
4759.88	0.582275	1.88904e-05
4760.76	0.00108032	0.00536072
4761.62	0.582306	1.52588e-06
4762.52	0.582245	1.62659e-05
4763.4	0.00115662	0.00369263
4764.26	0.582275	-1.83105e-07
4765.16	0.582245	1.24817e-05
4766.06	0.581329	0.0177368
4766.9	0.582245	-3.35693e-07
4767.8	0.582184	1.01013e-05
4768.7	0.581665	0.0123535
4769.54	0.582245	-9.46045e-07
4770.44	0.582214	8.30078e-06
4771.34	0.582245	0.00205811
4772.18	0.582275	-7.01904e-07
4773.08	0.582214	6.80542e-06
4773.98	0.582306	0.000478668
4774.82	0.582245	-2.99072e-06
4775.72	0.582245	5.12695e-06
4776.62	0.582275	0.000162903
4777.46	0.582306	-1.67847e-06
4778.36	0.582245	4.27246e-06
4779.26	0.582336	6.84814e-05
4780.1	0.582245	-2.16675e-06
4781	0.582214	3.08228e-06
4781.9	0.582184	3.79333e-05
4782.76	-0.696991	-0.0240173
4783.64	0.582214	1.40381e-06
4784.54	0.582275	2.734375E-05
4785.4	-0.697327	-0.0188843
4786.28	0.582245	1.95313e-06
4787.18	0.582245	1.92261e-05
4788.06	0.00107422	0.00533478
4788.92	0.582245	5.18799e-07
4789.82	0.582245	1.61133e-05
4790.7	0.00116272	0.00367065
4791.56	0.582214	-4.88281e-07
4792.46	0.582275	1.35803e-05
4793.36	0.58136	0.0177399
4794.2	0.582306	-1.49536e-06
4795.1	0.582245	1.15967e-05
4796	0.581604	0.012384
4796.84	0.582184	-9.15527e-07
4797.74	0.582184	9.30786e-06
4798.64	0.582275	0.00211548
4799.48	0.582245	-1.49536e-06
4800.38	0.582275	6.98853e-06
4801.28	0.582275	0.000493652
4802.12	0.582214	-2.10571e-06
4803.02	0.582184	6.073e-06
4803.92	0.582245	0.000170166
4804.76	0.582214	-2.19727e-06
4805.66	0.582245	4.85229e-06
4806.56	0.582214	7.05872e-05
4807.4	0.582306	-2.2583e-06
4808.3	0.582275	1.98364e-06
4809.2	0.582245	3.82996e-05
4810.06	-0.69696	-0.0240448
4810.94	0.582275	2.34985e-06
4811.84	0.582245	2.61841e-05
4812.7	-0.697327	-0.018924
4813.58	0.582245	1.52588e-06
4814.48	0.582306	2.05383e-05
4815.36	0.00109863	0.00529358
4816.22	0.582245	1.83105e-07
4817.12	0.582245	1.63574e-05
4818	0.00115051	0.00364838
4818.86	0.582245	-6.10352e-08
4819.76	0.582336	1.37939e-05
4820.66	0.581299	0.0177277
4821.5	0.582245	-6.10352e-08
4822.4	0.582275	1.12e-05
4823.3	0.581665	0.0124115
4824.14	0.582306	-1.43433e-06
4825.04	0.582275	8.05664e-06
4825.94	0.582184	0.00217072
4826.78	0.582336	-1.70898e-06
4827.68	0.582306	7.04956e-06
4828.58	0.582275	0.000509033
4829.42	0.582245	-1.34277e-06
4830.32	0.582275	5.37109e-06
4831.22	0.582275	0.000174225
4832.06	0.582245	-2.41089e-06
4832.96	0.582214	4.42505e-06
4833.86	0.582214	7.35474e-05
4834.7	0.582306	-2.74658e-06
4835.6	0.582275	4.42505e-06
4836.5	0.582214	4.03137e-05
4837.36	-0.69696	-0.0240479
4838.24	0.582245	2.68555e-06
4839.14	0.582306	2.68555e-05
4840	-0.697388	-0.0189514
4840.88	0.582306	2.71606e-06
4841.78	0.582275	1.94702e-05
4842.66	0.00102844	0.00526642
4843.52	0.582245	1.15967e-06
4844.42	0.582245	1.62659e-05
4845.3	0.0011261	0.0036261
4846.16	0.582214	6.71387e-07
4847.06	0.582245	1.35498e-05
4847.96	0.581329	0.0177368
4848.8	0.582275	-7.01904e-07
4849.7	0.582214	1.08643e-05
4850.6	0.581604	0.0124359
4851.44	0.582275	-1.06812e-06
4852.34	0.582275	8.91113e-06
4853.24	0.582214	0.0022229
4854.08	0.582306	-1.15967e-06
4854.98	0.582336	7.41577e-06
4855.88	0.582214	0.000522461
4856.72	0.582245	-1.34277e-06
4857.62	0.582275	5.88989e-06
4858.52	0.582245	0.000180023
4859.36	0.582306	-1.61743e-06
4860.26	0.582275	5.5542e-06
4861.16	0.582306	7.47681e-05
4862	0.582275	-2.56348e-06
4862.9	0.582245	4.30298e-06
4863.8	0.582214	4.04053e-05
4864.66	-0.69696	-0.024057
4865.54	0.582306	2.41089e-06
4866.44	0.582245	2.6886e-05
4867.3	-0.697357	-0.0189728
4868.18	0.582306	2.0752e-06
4869.08	0.582275	2.0813e-05
4869.96	0.00107422	0.00524139
4870.82	0.582184	1.95313e-06
4871.72	0.582275	1.61438e-05
4872.6	0.001171875	0.00360565
4873.46	0.582184	1.58691e-06
4874.36	0.582275	1.36108e-05
4875.26	0.581299	0.0177368
4876.1	0.582214	-7.32422e-07
4877	0.582214	1.01013e-05
4877.9	0.581726	0.0124542
4878.74	0.582275	-2.74658e-07
4879.64	0.582245	8.39233e-06
4880.54	0.582214	0.00227173
4881.38	0.582275	-3.05176e-07
4882.28	0.582214	7.59888e-06
4883.18	0.582245	0.000534668
4884.02	0.582275	-2.34985e-06
4884.92	0.582245	5.5542e-06
4885.82	0.582275	0.000185425
4886.66	0.582214	-1.31226e-06
4887.56	0.582275	5.15747e-06
4888.46	0.582275	7.69653e-05
4889.3	0.582275	-8.8501e-07
4890.2	0.582275	3.93677e-06
4891.1	0.582275	4.04358e-05
4891.96	-0.69693	-0.0240753
4892.84	0.582184	4.18091e-06
4893.74	0.582306	2.85034e-05
4894.6	-0.697296	-0.0190063
4895.48	0.582245	2.19727e-06
4896.38	0.582245	2.09961e-05
4897.26	0.0010437	0.00520782
4898.12	0.582184	1.98364e-06
4899.02	0.582275	1.60828e-05
4899.9	0.00119629	0.00358124
4900.76	0.582336	1.61743e-06
4901.66	0.582214	1.15967e-05
4902.56	0.581268	0.0177399
4903.4	0.582306	1.31226e-06
4904.3	0.582275	1.01929e-05
4905.2	0.581665	0.0124817
4906.04	0.582275	1.43433e-06
4906.94	0.582275	8.66699e-06
4907.84	0.582153	0.00232483
4908.68	0.582245	2.13623e-07
4909.58	0.582214	6.40869e-06
4910.48	0.582245	0.000549316
4911.32	0.582245	-1.09863e-06
4912.22	0.582275	7.2937e-06
4913.12	0.582275	0.000191833
4913.96	0.582306	-1.40381e-06
4914.86	0.582214	4.63867e-06
4915.76	0.582214	7.88879e-05
4916.6	0.582245	-7.93457e-07
4917.5	0.582275	3.93677e-06
4918.4	0.582275	4.11072e-05
4919.26	-0.696991	-0.0240906
4920.14	0.582275	2.80762e-06
4921.04	0.582184	2.71912e-05
4921.9	-0.697296	-0.0190369
4922.78	0.582275	1.61743e-06
4923.68	0.582245	2.1759e-05
4924.56	0.00105896	0.00517639
4925.42	0.582245	1.2207e-06
4926.32	0.582245	1.56555e-05
4927.2	0.0012085	0.00356232
4928.06	0.582275	5.49316e-07
4928.96	0.582184	1.30005e-05
4929.86	0.581268	0.0177399
4930.7	0.582306	-8.23975e-07
4931.6	0.582275	1.06506e-05
4932.5	0.581696	0.0125061
4933.34	0.582306	-3.66211e-07
4934.24	0.582336	8.72803e-06
4935.14	0.582214	0.00237793
4935.98	0.582275	-1.40381e-06
4936.88	0.582275	6.22559e-06
4937.78	0.582214	0.000562439
4938.62	0.582306	-1.77002e-06
4939.52	0.582214	5.18799e-06
4940.42	0.582214	0.000198639
4941.26	0.582275	-1.2207e-06
4942.16	0.582245	4.3335e-06
4943.06	0.582214	8.1665e-05
4943.9	0.582275	-2.34985e-06
4944.8	0.582214	2.89917e-06
4945.7	0.582245	4.20532e-05
4946.56	-0.696991	-0.0241089
4947.44	0.582275	2.47192e-06
4948.34	0.582336	2.77405e-05
4949.2	-0.697205	-0.0190735
4950.08	0.582275	1.80054e-06
4950.98	0.582306	2.13623e-05
4951.86	0.00106812	0.00515015
4952.72	0.582336	4.27246e-07
4953.62	0.582214	1.71814e-05
4954.5	0.00119629	0.00354645
4955.36	0.582275	-5.18799e-07
4956.26	0.582245	1.31531e-05
4957.16	0.581299	0.0177368
4958	0.582245	-2.74658e-07
4958.9	0.582275	1.01013e-05
4959.8	0.581635	0.0125305
4960.64	0.582275	-1.15967e-06
4961.54	0.582306	7.99561e-06
4962.44	0.582275	0.00242249
4963.28	0.582306	-1.86157e-06
4964.18	0.582184	5.58472e-06
4965.08	0.582184	0.000576782
4965.92	0.582245	-1.58691e-06
4966.82	0.582275	5.85937e-06
4967.72	0.582275	0.0002052
4968.56	0.582275	-2.01416e-06
4969.46	0.582214	4.15039e-06
4970.36	0.582245	8.53271e-05
4971.2	0.582275	-1.28174e-06
4972.1	0.582275	3.72314e-06
4973	0.582275	4.41895e-05
4973.86	-0.697021	-0.0241058
4974.74	0.582306	2.80762e-06
4975.64	0.582245	2.7771e-05
4976.5	-0.697296	-0.0190918
4977.38	0.582275	1.64795e-06
4978.28	0.582275	2.06909e-05
4979.16	0.00108337	0.00511993
4980.02	0.582245	1.46484e-06
4980.92	0.582214	1.64185e-05
4981.8	0.00120544	0.00352448
4982.66	0.582245	-2.13623e-07
4983.56	0.582275	1.38855e-05
4984.46	0.58136	0.0177338
4985.3	0.582275	-5.18799e-07
4986.2	0.582245	1.05591e-05
4987.1	0.581573	0.0125458
4987.94	0.582245	-8.23975e-07
4988.84	0.582214	8.78906e-06
4989.74	0.582214	0.00247131
4990.58	0.582306	-8.8501e-07
4991.48	0.582275	7.17163e-06
4992.38	0.582214	0.000588989
4993.22	0.582245	-1.86157e-06
4994.12	0.582245	6.56128e-06
4995.02	0.582306	0.000210175
4995.86	0.582245	-1.46484e-06
4996.76	0.582245	4.48608e-06
4997.66	0.582275	8.7677e-05
4998.5	0.582275	-1.86157e-06
4999.4	0.582245	3.72314e-06
5000.3	0.582275	4.49829e-05
5001.16	-0.69696	-0.0241119
5002.04	0.582245	2.99072e-06
5002.94	0.582275	2.90222e-05
5003.8	-0.697296	-0.0191193
5004.68	0.582275	2.53296e-06
5005.58	0.582245	2.14233e-05
5006.46	0.0010498	0.00509094
5007.32	0.582306	1.09863e-06
5008.22	0.582306	1.7395e-05
5009.1	0.00120239	0.00350494
5009.96	0.582306	-4.88281e-07
5010.86	0.582245	1.28174e-05
5011.76	0.581329	0.0177429
5012.6	0.582214	3.05176e-08
5013.5	0.582275	1.07727e-05
5014.4	0.581726	0.0125763
5015.24	0.582275	-4.57764e-07
5016.14	0.582245	9.09424e-06
5017.04	0.582184	0.00253265
5017.88	0.582275	-1.28174e-06
5018.78	0.582275	7.17163e-06
5019.68	0.582184	0.000604553
5020.52	0.582336	-9.76562e-07
5021.42	0.582275	6.74438e-06
5022.32	0.582245	0.000216431
5023.16	0.582275	-3.20435e-06
5024.06	0.582275	4.48608e-06
5024.96	0.582275	9.05151e-05
5025.8	0.582275	-3.11279e-06
5026.7	0.582306	3.75366e-06
5027.6	0.582214	4.54712e-05
5028.46	-0.697021	-0.0241608
5029.34	0.582306	3.57056e-06
5030.24	0.582245	2.95715e-05
5031.1	-0.697296	-0.0191711
5031.98	0.582214	1.28174e-06
5032.88	0.582245	2.07825e-05
5033.76	0.00104675	0.0050769
5034.62	0.582306	1.12915e-06
5035.52	0.582275	1.75171e-05
5036.4	0.00115356	0.00348999
5037.26	0.582245	1.34277e-06
5038.16	0.582245	1.33057e-05
5039.06	0.581329	0.0177399
5039.9	0.582275	3.35693e-07
5040.8	0.582275	1.01013e-05
5041.7	0.581696	0.0125916
5042.54	0.582306	-4.57764e-07
5043.44	0.582306	9.91821e-06
5044.34	0.582214	0.00257568
5045.18	0.582245	-6.10352e-07
5046.08	0.582245	7.47681e-06
5046.98	0.582123	0.000616455
5047.82	0.582245	-1.28174e-06
5048.72	0.582275	5.58472e-06
5049.62	0.582245	0.000222931
5050.46	0.582275	-9.46045e-07
5051.36	0.582214	4.97437e-06
5052.26	0.582275	9.25598e-05
5053.1	0.582184	-1.67847e-06
5054	0.582306	3.41797e-06
5054.9	0.582245	4.65393e-05
5055.76	-0.697021	-0.0241516
5056.64	0.582245	2.92969e-06
5057.54	0.582184	3.0426e-05
5058.4	-0.697296	-0.0191864
5059.28	0.582306	1.70898e-06
5060.18	0.582306	2.21863e-05
5061.06	0.00105591	0.00505066
5061.92	0.582306	1.67847e-06
5062.82	0.582245	1.72424e-05
5063.7	0.00116577	0.00346619
5064.56	0.582275	3.05176e-08
5065.46	0.582275	1.33972e-05
5066.36	0.58136	0.0177399
5067.2	0.582275	4.57764e-07
5068.1	0.582245	1.08643e-05
5069	0.581665	0.0126068
5069.84	0.582245	9.15527e-08
5070.74	0.582275	8.54492e-06
5071.64	0.582153	0.0026236
5072.48	0.582153	-7.32422e-07
5073.38	0.582275	6.98853e-06
5074.28	0.582123	0.000628967
5075.12	0.582275	-1.00708e-06
5076.02	0.582214	6.19507e-06
5076.92	0.582275	0.000229065
5077.76	0.582275	-1.5564e-06
5078.66	0.582214	4.15039e-06
5079.56	0.582245	9.51538e-05
5080.4	0.582336	-1.28174e-06
5081.3	0.582275	2.92969e-06
5082.2	0.582245	4.80347e-05
5083.06	-0.69696	-0.0241608
5083.94	0.582306	1.77002e-06
5084.84	0.582275	2.97852e-05
5085.7	-0.697296	-0.0191986
5086.58	0.582306	1.83105e-06
5087.48	0.582306	2.11487e-05
5088.36	0.00105896	0.00501923
5089.22	0.582245	1.64795e-06
5090.12	0.582184	1.58997e-05
5091	0.00119629	0.00344666
5091.86	0.582214	1.09863e-06
5092.76	0.582214	1.32751e-05
5093.66	0.581329	0.0177307
5094.5	0.582275	3.66211e-07
5095.4	0.582214	1.00708e-05
5096.3	0.581696	0.0126282
5097.14	0.582214	-7.62939e-07
5098.04	0.582245	7.32422e-06
5098.94	0.582184	0.00268005
5099.78	0.582275	-9.15527e-07
5100.68	0.582275	6.62231e-06
5101.58	0.582184	0.000644226
5102.42	0.582336	-1.86157e-06
5103.32	0.582306	4.73022e-06
5104.22	0.582306	0.000235901
5105.06	0.582275	-1.98364e-06
5105.96	0.582275	4.30298e-06
5106.86	0.582245	9.96704e-05
5107.7	0.582245	-2.92969e-06
5108.6	0.582275	3.54004e-06
5109.5	0.582245	4.92859e-05
5110.36	-0.69693	-0.0241699
5111.24	0.582306	2.99072e-06
5112.14	0.582275	2.95715e-05
5113	-0.697327	-0.019223
5113.88	0.582245	1.40381e-06
5114.78	0.582245	2.10571e-05
5115.66	0.00105286	0.0049942
5116.52	0.582275	7.93457e-07
5117.42	0.582275	1.69067e-05
5118.3	0.00119324	0.00342499
5119.16	0.582336	6.10352e-07
5120.06	0.582306	1.18713e-05
5120.96	0.581299	0.0177338
5121.8	0.582184	-2.44141e-07
5122.7	0.582214	9.82666e-06
5123.6	0.581665	0.0126465
5124.44	0.582275	-2.74658e-07
5125.34	0.582306	8.14819e-06
5126.24	0.582184	0.00273743
5127.08	0.582214	-8.54492e-07
5127.98	0.582245	7.1106e-06
5128.88	0.582214	0.000657349
5129.72	0.582275	-9.46045e-07
5130.62	0.582275	6.50024e-06
5131.52	0.582245	0.000243103
5132.36	0.582306	-1.83105e-06
5133.26	0.582245	4.05884e-06
5134.16	0.582275	0.000101379
5135	0.582306	-1.86157e-06
5135.9	0.582214	2.89917e-06
5136.8	0.582245	5.03845e-05
5137.66	-0.69696	-0.0241821
5138.54	0.582214	2.89917e-06
5139.44	0.582245	3.11584e-05
5140.3	-0.697266	-0.0192474
5141.18	0.582214	2.38037e-06
5142.08	0.582275	2.21863e-05
5142.96	0.00111084	0.00496704
5143.82	0.582306	9.46045e-07
5144.72	0.582245	1.68457e-05
5145.6	0.0011261	0.00340515
5146.46	0.582275	2.74658e-07
5147.36	0.582275	1.41296e-05
5148.26	0.58139	0.0177338
5149.1	0.582245	6.10352e-08
5150	0.582214	1.00098e-05
5150.9	0.581635	0.0126709
5151.74	0.582275	1.83105e-07
5152.64	0.582275	8.91113e-06
5153.54	0.582214	0.00278778
5154.38	0.582275	-1.2207e-06
5155.28	0.582214	6.92749e-06
5156.18	0.582184	0.000672607
5157.02	0.582245	-1.19019e-06
5157.92	0.582306	5.79834e-06
5158.82	0.582306	0.000249298
5159.66	0.582306	-2.50244e-06
5160.56	0.582245	3.69263e-06
5161.46	0.582275	0.000105957
5162.3	0.582336	-1.86157e-06
5163.2	0.582275	3.32642e-06
5164.1	0.582245	5.18494e-05
5164.96	-0.696991	-0.0241882
5165.84	0.582306	2.16675e-06
5166.74	0.582275	3.15552e-05
5167.6	-0.697327	-0.0192688
5168.48	0.582275	4.57764e-07
5169.38	0.582245	2.26135e-05
5170.26	0.00105896	0.00493439
5171.12	0.582275	7.62939e-07
5172.02	0.582184	1.72424e-05
5172.9	0.00115662	0.00337952
5173.76	0.582245	3.35693e-07
5174.66	0.582245	1.42517e-05
5175.56	0.581268	0.0177185
5176.4	0.582336	-4.57764e-07
5177.3	0.582275	1.08643e-05
5178.2	0.581665	0.0126892
5179.04	0.582306	1.2207e-07
5179.94	0.582214	9.15527e-06
5180.84	0.582153	0.00284851
5181.68	0.582275	-1.92261e-06
5182.58	0.582214	7.90405e-06
5183.48	0.582184	0.000685425
5184.32	0.582245	-2.22778e-06
5185.22	0.582214	5.70679e-06
5186.12	0.582184	0.000255829
5186.96	0.582275	-9.46045e-07
5187.86	0.582275	4.3335e-06
5188.76	0.582245	0.000108185
5189.6	0.582275	-2.34985e-06
5190.5	0.582245	2.99072e-06
5191.4	0.582275	5.33142e-05
5192.26	-0.69693	-0.0241943
5193.14	0.582275	1.58691e-06
5194.04	0.582214	3.27454e-05
5194.9	-0.697266	-0.0192963
5195.78	0.582214	1.89209e-06
5196.68	0.582306	2.32849e-05
5197.56	0.00104675	0.0049118
5198.42	0.582275	5.49316e-07
5199.32	0.582245	1.85852e-05
5200.2	0.00118713	0.00336761
5201.06	0.582275	3.35693e-07
5201.96	0.582275	1.43433e-05
5202.86	0.581329	0.0177216
5203.7	0.582245	2.13623e-07
5204.6	0.582245	1.08032e-05
5205.5	0.581573	0.0127014
5206.34	0.582245	0
5207.24	0.582245	1.03149e-05
5208.14	0.582245	0.00289978
5208.98	0.582245	-1.09863e-06
5209.88	0.582306	7.23267e-06
5210.78	0.582214	0.000698547
5211.62	0.582245	-2.10571e-06
5212.52	0.582306	5.43213e-06
5213.42	0.582275	0.000261871
5214.26	0.582184	-2.56348e-06
5215.16	0.582245	5.18799e-06
5216.06	0.582245	0.000111572
5216.9	0.582245	-2.28882e-06
5217.8	0.582275	3.41797e-06
5218.7	0.582245	5.45654e-05
5219.56	-0.697021	-0.0242096
5220.44	0.582214	2.47192e-06
5221.34	0.582275	3.34473e-05
5222.2	-0.697296	-0.0193146
5223.08	0.582245	8.54492e-07
5223.98	0.582214	2.23083e-05
5224.86	0.00104675	0.00488342
5225.72	0.582214	1.43433e-06
5226.62	0.582275	1.77917e-05
5227.5	0.00115356	0.00334137
5228.36	0.582214	9.15527e-07
5229.26	0.582275	1.474e-05
5230.16	0.581329	0.0177124
5231	0.582245	6.71387e-07
5231.9	0.582214	1.09863e-05
5232.8	0.581604	0.0127197
5233.64	0.582306	-1.31226e-06
5234.54	0.582245	9.61304e-06
5235.44	0.582245	0.00296387
5236.28	0.582214	-9.15527e-07
5237.18	0.582245	7.26318e-06
5238.08	0.582184	0.00071167
5238.92	0.582245	-1.28174e-06
5239.82	0.582214	6.83594e-06
5240.72	0.582275	0.000268951
5241.56	0.582245	-3.05176e-07
5242.46	0.582245	4.91333e-06
5243.36	0.582275	0.000114532
5244.2	0.582245	-2.19727e-06
5245.1	0.582275	4.27246e-06
5246	0.582245	5.49316e-05
5246.86	-0.696991	-0.0242096
5247.74	0.582275	3.44849e-06
5248.64	0.582275	3.18909e-05
5249.5	-0.697266	-0.0193359
5250.38	0.582275	2.80762e-06
5251.28	0.582245	2.26135e-05
5252.16	0.00105286	0.00485413
5253.02	0.582336	6.71387e-07
5253.92	0.582306	1.70898e-05
5254.8	0.00115967	0.00332581
5255.66	0.582245	4.57764e-07
5256.56	0.582275	1.40381e-05
5257.46	0.58136	0.0177094
5258.3	0.582245	1.2207e-07
5259.2	0.582245	1.10474e-05
5260.1	0.581604	0.0127441
5260.94	0.582275	-3.05176e-08
5261.84	0.582275	9.27734e-06
5262.74	0.582153	0.00300415
5263.58	0.582275	-5.79834e-07
5264.48	0.582214	7.78198e-06
5265.38	0.582184	0.000726013
5266.22	0.582245	-9.15527e-07
5267.12	0.582184	6.22559e-06
5268.02	0.582275	0.000275177
5268.86	0.582275	-1.70898e-06
5269.76	0.582306	4.3335e-06
5270.66	0.582245	0.000116943
5271.5	0.582275	-1.34277e-06
5272.4	0.582245	3.54004e-06
5273.3	0.582214	5.62744e-05
5274.16	-0.69696	-0.0242218
5275.04	0.582245	3.479e-06
5275.94	0.582275	3.25317e-05
5276.8	-0.697296	-0.0193573
5277.68	0.582306	1.58691e-06
5278.58	0.582245	2.22778e-05
5279.46	0.00102844	0.00483307
5280.32	0.582275	1.77002e-06
5281.22	0.582245	1.66016e-05
5282.1	0.00117798	0.00331085
5282.96	0.582275	2.13623e-07
5283.86	0.582275	1.40686e-05
5284.76	0.58136	0.0177124
5285.6	0.582275	5.49316e-07
5286.5	0.582275	1.14441e-05
5287.4	0.581665	0.0127533
5288.24	0.582275	-3.05176e-08
5289.14	0.582245	8.27026e-06
5290.04	0.582214	0.00306
5290.88	0.582214	3.05176e-08
5291.78	0.582245	7.35474e-06
5292.68	0.582214	0.000739136
5293.52	0.582275	-6.71387e-07
5294.42	0.582245	5.09644e-06
5295.32	0.582214	0.000281097
5296.16	0.582245	-1.28174e-06
5297.06	0.582214	4.18091e-06
5297.96	0.582275	0.000120178
5298.8	0.582275	-2.38037e-06
5299.7	0.582214	3.60107e-06
5300.6	0.582245	5.84106e-05
5301.46	-0.69693	-0.0242249
5302.34	0.582214	1.64795e-06
5303.24	0.582275	3.35999e-05
5304.1	-0.697296	-0.0193726
5304.98	0.582245	2.68555e-06
5305.88	0.582245	2.27051e-05
5306.76	0.00111694	0.00480469
5307.62	0.582336	9.76562e-07
5308.52	0.582245	1.70593e-05
5309.4	0.00119629	0.00329041
5310.26	0.582245	0
5311.16	0.582275	1.3031e-05
5312.06	0.581329	0.0177032
5312.9	0.582275	-1.52588e-07
5313.8	0.582245	1.11694e-05
5314.7	0.581604	0.0127747
5315.54	0.582306	0
5316.44	0.582214	8.88062e-06
5317.34	0.582153	0.00312683
5318.18	0.582306	-6.71387e-07
5319.08	0.582245	6.80542e-06
5319.98	0.582214	0.000754395
5320.82	0.582245	-1.19019e-06
5321.72	0.582245	5.18799e-06
5322.62	0.582153	0.000289337
5323.46	0.582245	-1.25122e-06
5324.36	0.582245	5.98145e-06
5325.26	0.582275	0.00012561
5326.1	0.582184	-1.70898e-06
5327	0.582214	2.44141e-06
5327.9	0.582245	5.92957e-05
5328.76	-0.69696	-0.0242432
5329.64	0.582214	2.22778e-06
5330.54	0.582306	3.43933e-05
5331.4	-0.697296	-0.0193939
5332.28	0.582275	1.5564e-06
5333.18	0.582214	2.38953e-05
5334.06	0.00111084	0.00477936
5334.92	0.582245	1.40381e-06
5335.82	0.582245	1.80359e-05
5336.7	0.00116272	0.00327057
5337.56	0.582184	-2.74658e-07
5338.46	0.582214	1.33057e-05
5339.36	0.581329	0.0177032
5340.2	0.582275	-3.35693e-07
5341.1	0.582275	1.15662e-05
5342	0.581635	0.0127808
5342.84	0.582306	6.10352e-08
5343.74	0.582275	8.3313e-06
5344.64	0.582153	0.00318024
5345.48	0.582275	-1.12915e-06
5346.38	0.582214	7.23267e-06
5347.28	0.582245	0.000768433
5348.12	0.582275	-5.49316e-07
5349.02	0.582184	5.24902e-06
5349.92	0.582306	0.000296906
5350.76	0.582184	-8.8501e-07
5351.66	0.582214	4.5166e-06
5352.56	0.582275	0.000128082
5353.4	0.582275	-2.89917e-06
5354.3	0.582214	2.53296e-06
5355.2	0.582184	6.2439e-05
5356.06	-0.69693	-0.0242523
5356.94	0.582184	1.49536e-06
5357.84	0.582214	3.61328e-05
5358.7	-0.697266	-0.0194244
5359.58	0.582275	2.01416e-06
5360.48	0.582214	2.44751e-05
5361.36	0.0010498	0.00475311
5362.22	0.582275	4.57764e-07
5363.12	0.582214	1.77307e-05
5364	0.00118103	0.0032547
5364.86	0.582214	-3.05176e-07
5365.76	0.582214	1.37329e-05
5366.66	0.58136	0.0177063
5367.5	0.582214	-2.13623e-07
5368.4	0.582245	1.07727e-05
5369.3	0.581635	0.0128082
5370.14	0.582275	-6.10352e-07
5371.04	0.582245	8.94165e-06
5371.94	0.582184	0.00324524
5372.78	0.582275	-9.76562e-07
5373.68	0.582275	8.23975e-06
5374.58	0.582184	0.000782471
5375.42	0.582245	-1.0376e-06
5376.32	0.582245	6.31714e-06
5377.22	0.582214	0.000304077
5378.06	0.582245	-2.2583e-06
5378.96	0.582214	3.96729e-06
5379.86	0.582306	0.000132782
5380.7	0.582306	-2.50244e-06
5381.6	0.582245	3.84521e-06
5382.5	0.582245	6.32629e-05
5383.36	-0.696991	-0.0242523
5384.24	0.582245	2.59399e-06
5385.14	0.582306	3.62854e-05
5386	-0.697296	-0.0194427
5386.88	0.582306	1.70898e-06
5387.78	0.582245	2.41089e-05
5388.66	0.00109253	0.00472687
5389.52	0.582245	1.37329e-06
5390.42	0.582245	1.81274e-05
5391.3	0.00121155	0.00323029
5392.16	0.582306	1.2207e-07
5393.06	0.582275	1.51672e-05
5393.96	0.58136	0.0177063
5394.8	0.582184	3.05176e-07
5395.7	0.582275	1.171875E-05
5396.6	0.581665	0.0128143
5397.44	0.582275	-7.01904e-07
5398.34	0.582275	9.73511e-06
5399.24	0.582153	0.00330566
5400.08	0.582214	-1.64795e-06
5400.98	0.582214	7.84302e-06
5401.88	0.582184	0.000794373
5402.72	0.582245	-8.23975e-07
5403.62	0.582245	6.65283e-06
5404.52	0.582275	0.000310425
5405.36	0.582306	-1.46484e-06
5406.26	0.582214	5.21851e-06
5407.16	0.582275	0.000135559
5408	0.582245	-2.83813e-06
5408.9	0.582245	3.78418e-06
5409.8	0.582214	6.63452e-05
5410.66	-0.69696	-0.0242645
5411.54	0.582245	3.02124e-06
5412.44	0.582306	3.66211e-05
5413.3	-0.697296	-0.019458
5414.18	0.582275	1.7395e-06
5415.08	0.582275	2.44141e-05
5415.96	0.00107422	0.00469971
5416.82	0.582214	1.46484e-06
5417.72	0.582245	1.93481e-05
5418.6	0.00116882	0.00321228
5419.46	0.582245	3.05176e-08
5420.36	0.582306	1.43738e-05
5421.26	0.581268	0.0176941
5422.1	0.582306	-1.2207e-07
5423	0.582275	1.25122e-05
5423.9	0.581665	0.0128387
5424.74	0.582275	-4.88281e-07
5425.64	0.582245	8.91113e-06
5426.54	0.582184	0.00335815
5427.38	0.582306	-9.76562e-07
5428.28	0.582275	8.23975e-06
5429.18	0.582153	0.0008078
5430.02	0.582245	-1.25122e-06
5430.92	0.582245	6.65283e-06
5431.82	0.582275	0.000316437
5432.66	0.582245	-2.53296e-06
5433.56	0.582275	4.48608e-06
5434.46	0.582275	0.000139191
5435.3	0.582275	-1.25122e-06
5436.2	0.582214	4.02832e-06
5437.1	0.582245	6.66504e-05
5437.96	-0.697021	-0.0242615
5438.84	0.582245	3.50952e-06
5439.74	0.582245	3.75061e-05
5440.6	-0.697266	-0.0194794
5441.48	0.582245	3.08228e-06
5442.38	0.582306	2.39868e-05
5443.26	0.00108337	0.0046756
5444.12	0.582245	1.31226e-06
5445.02	0.582275	1.77917e-05
5445.9	0.00115967	0.00319702
5446.76	0.582275	1.64795e-06
5447.66	0.582275	1.40381e-05
5448.56	0.58136	0.0176941
5449.4	0.582275	8.23975e-07
5450.3	0.582275	1.10474e-05
5451.2	0.581604	0.012854
5452.04	0.582214	6.10352e-08
5452.94	0.582184	9.85718e-06
5453.84	0.582214	0.00341125
5454.68	0.582306	-1.43433e-06
5454.82	0.582245	-1.89209e-06