File: Edgar/20230907/20230907/electrodeposition_WO3_thin_films_onto_ITO_A/wo3_film_continuous_electrodeposition_A/CA_2
Time (s)	WE(1).Potential (V)	WE(1).Current (A)
19.9108	-0.699585	-0.00466095
20.3108	-0.699432	-0.00480316
20.7108	-0.698914	-0.00478882
21.1108	-0.699799	-0.00470123
21.5108	-0.699249	-0.00459351
21.9108	-0.699371	-0.00448242
22.3108	-0.699738	-0.004375
22.7108	-0.698914	-0.00427246
23.1108	-0.699127	-0.0041745
23.5108	-0.699493	-0.00408112
23.9108	-0.698975	-0.00399261
24.3108	-0.699738	-0.00390808
24.7108	-0.699554	-0.00382782
25.1108	-0.699524	-0.00375122
25.5108	-0.699738	-0.00367828
25.9108	-0.699463	-0.0036087
26.3108	-0.699219	-0.00354248
26.7108	-0.698944	-0.00347961
27.1108	-0.698975	-0.00341888
27.5108	-0.699707	-0.00335815
27.9108	-0.699219	-0.00330444
28.3108	-0.69986	-0.00325195
28.7108	-0.699829	-0.00320129
29.1108	-0.699738	-0.00315308
29.5108	-0.699036	-0.00310638
29.9108	-0.699402	-0.00306183
30.3108	-0.699402	-0.0030188
30.7108	-0.698975	-0.00297699
31.1108	-0.699738	-0.00293701
31.5108	-0.699829	-0.00289825
31.9108	-0.69931	-0.00286102
32.3108	-0.699158	-0.00282501
32.7108	-0.699493	-0.00278992
33.1108	-0.699158	-0.00275604
33.5108	-0.699799	-0.00272339
33.9108	-0.69986	-0.00269135
34.3108	-0.698914	-0.00266052
34.7108	-0.699127	-0.00263062
35.1108	-0.698944	-0.00260162
35.5108	-0.699341	-0.00257324
35.9108	-0.699799	-0.00254608
36.3108	-0.699799	-0.00251953
36.7108	-0.699738	-0.00249329
37.1108	-0.699066	-0.00246826
37.5108	-0.699036	-0.00244415
37.9108	-0.699585	-0.00242035
38.3108	-0.699341	-0.00239746
38.7108	-0.699738	-0.00237488
39.1108	-0.699738	-0.00235291
39.5108	-0.699127	-0.00233185
39.9108	-0.69928	-0.0023111
40.3108	-0.699341	-0.00229095
40.7108	-0.699127	-0.00227112
41.1108	-0.699829	-0.00225128
41.5108	-0.69986	-0.00223297
41.9108	-0.699432	-0.00221436
42.3108	-0.699585	-0.00219635
42.7108	-0.699066	-0.00217896
43.1108	-0.699097	-0.00216156
43.5108	-0.698975	-0.00214447
43.9108	-0.699097	-0.0021283
44.3108	-0.699463	-0.00211243
44.7108	-0.699677	-0.00209717
45.1108	-0.699738	-0.00208191
45.5108	-0.699524	-0.00206665
45.9108	-0.699158	-0.00205231
46.3108	-0.699005	-0.00203766
46.7108	-0.699127	-0.00202332
47.1108	-0.699463	-0.00200958
47.5108	-0.699097	-0.00199585
47.9108	-0.69989	-0.00198212
48.3108	-0.699921	-0.00196899
48.7108	-0.699463	-0.00195618
49.1108	-0.699066	-0.00194336
49.5108	-0.699005	-0.00193085
49.9108	-0.699585	-0.00191864
50.3108	-0.699005	-0.00190674
50.7108	-0.698975	-0.00189453
51.1108	-0.698975	-0.00188324
51.5108	-0.699249	-0.00187134
51.9108	-0.69931	-0.00186005
52.3108	-0.699463	-0.00184906
52.7108	-0.699799	-0.00183838
53.1108	-0.699829	-0.0018277
53.5108	-0.699615	-0.00181702
53.9108	-0.699921	-0.00180664
54.3108	-0.699097	-0.00179657
54.7108	-0.699402	-0.0017865
55.1108	-0.699432	-0.00177673
55.5108	-0.699097	-0.00176666
55.9108	-0.69928	-0.0017572
56.3108	-0.699707	-0.00174744
56.7108	-0.699463	-0.00173828
57.1108	-0.699432	-0.00172943
57.5108	-0.699768	-0.00172058
57.9108	-0.699829	-0.00171173
58.3108	-0.699219	-0.00170288
58.7108	-0.69928	-0.00169403
59.1108	-0.699005	-0.00168579
59.5108	-0.699036	-0.00167725
59.9108	-0.699249	-0.00166901
60.3108	-0.698944	-0.00166046
60.7108	-0.69931	-0.00165253
61.1108	-0.699036	-0.00164459
61.5108	-0.69928	-0.00163666
61.9108	-0.698975	-0.00162842
62.3108	-0.699402	-0.00162048
62.7108	-0.699097	-0.00161224
63.1108	-0.699615	-0.00160492
63.5108	-0.69931	-0.00159729
63.9108	-0.699829	-0.00158936
64.3108	-0.699829	-0.00158173
64.7108	-0.69931	-0.0015744
65.1108	-0.699097	-0.00156677
65.5108	-0.699097	-0.00155914
65.9108	-0.69986	-0.00155182
66.3108	-0.699036	-0.00154449
66.7108	-0.699005	-0.00153717
67.1108	-0.699005	-0.00152985
67.5108	-0.699829	-0.00152283
67.9108	-0.699005	-0.0015155
68.3108	-0.699463	-0.00150848
68.7108	-0.699036	-0.00150146
69.1108	-0.699341	-0.00149445
69.5108	-0.699249	-0.00148773
69.9108	-0.699829	-0.00147888
70.3108	-0.699158	-0.00147308
70.7108	-0.699829	-0.00146637
71.1108	-0.699127	-0.00145966
71.5108	-0.699371	-0.00145325
71.9108	-0.69931	-0.00144714
72.3108	-0.699677	-0.00144043
72.7108	-0.69928	-0.00143433
73.1108	-0.699341	-0.00142822
73.5108	-0.699402	-0.00142181
73.9108	-0.699036	-0.00141571
74.3108	-0.699768	-0.0014093
74.7108	-0.699036	-0.00140289
75.1108	-0.699707	-0.00139679
75.5108	-0.699005	-0.00139038
75.9108	-0.699432	-0.00138428
76.3108	-0.699524	-0.00137817
76.7108	-0.699219	-0.00137207
77.1108	-0.699738	-0.00136536
77.5108	-0.698944	-0.00135925
77.9108	-0.699615	-0.00135345
78.3108	-0.699463	-0.00134735
78.7108	-0.699036	-0.00134155
79.1108	-0.69986	-0.00133575
79.5108	-0.699036	-0.00132965
79.9108	-0.69986	-0.00132385
80.3108	-0.699066	-0.00131805
80.7108	-0.698975	-0.00131226
81.1108	-0.699188	-0.00130646
81.5108	-0.699066	-0.00130096
81.9108	-0.699554	-0.00129517
82.3108	-0.699219	-0.00128937
82.7108	-0.699768	-0.00128387
83.1108	-0.699829	-0.00127869
83.5108	-0.699707	-0.00127289
83.9108	-0.699829	-0.0012674
84.3108	-0.69928	-0.00126221
84.7108	-0.699341	-0.00125671
85.1108	-0.699005	-0.00125153
85.5108	-0.699158	-0.00124634
85.9108	-0.699005	-0.00124115
86.3108	-0.699249	-0.00123566
86.7108	-0.699249	-0.00123077
87.1108	-0.699829	-0.00122559
87.5108	-0.699036	-0.0012204
87.9108	-0.699402	-0.00121521
88.3108	-0.69989	-0.00121033
88.7108	-0.699005	-0.00120514
89.1108	-0.699127	-0.00119995
89.5108	-0.699097	-0.00119507
89.9108	-0.699066	-0.00118988
90.3108	-0.699188	-0.001185
90.7108	-0.699066	-0.00118011
91.1108	-0.699829	-0.00117523
91.5108	-0.699707	-0.00117065
91.9108	-0.699829	-0.00116577
92.3108	-0.699554	-0.00116089
92.7108	-0.69986	-0.00115631
93.1108	-0.699188	-0.00115143
93.5108	-0.699432	-0.00114685
93.9108	-0.699097	-0.00114227
94.3108	-0.699127	-0.0011377
94.7108	-0.699036	-0.00113312
95.1108	-0.699005	-0.00112854
95.5108	-0.699097	-0.00112396
95.9108	-0.699463	-0.00111908
96.3108	-0.699097	-0.00111481
96.7108	-0.699677	-0.00111023
97.1108	-0.698975	-0.00110565
97.5108	-0.699677	-0.00110138
97.9108	-0.699036	-0.0010968
98.3108	-0.698975	-0.00109253
98.7108	-0.69931	-0.00108795
99.1108	-0.699799	-0.00108368
99.5108	-0.699158	-0.00107941
99.9108	-0.69986	-0.00107513
100.311	-0.699799	-0.00107056
100.711	-0.699219	-0.00106628
101.111	-0.699768	-0.00106201
101.511	-0.69928	-0.00105774
101.911	-0.699219	-0.00105347
102.311	-0.699738	-0.00104919
102.711	-0.699005	-0.00104492
103.111	-0.699768	-0.00104095
103.511	-0.69931	-0.00103607
103.911	-0.699005	-0.00103241
104.311	-0.699768	-0.00102844
104.711	-0.699615	-0.00102417
105.111	-0.699463	-0.0010202
105.511	-0.699799	-0.00101624
105.911	-0.699829	-0.00101196
106.311	-0.699158	-0.001008
106.711	-0.69986	-0.00100403
107.111	-0.699097	-0.00100006
107.511	-0.699707	-0.000996094
107.911	-0.699554	-0.000993347
108.311	-0.698975	-0.00098938
108.711	-0.699738	-0.000985718
109.111	-0.698792	-0.00098175
109.511	-0.699005	-0.000977783
109.911	-0.698853	-0.000974121
110.311	-0.698914	-0.000970154
110.711	-0.698822	-0.000966492
111.111	-0.699646	-0.000962524
111.511	-0.699127	-0.000958862
111.911	-0.699738	-0.0009552
112.311	-0.699707	-0.000951538
112.711	-0.699432	-0.000947876
113.111	-0.699158	-0.000944214
113.511	-0.698853	-0.000940857
113.911	-0.698761	-0.000937195
114.311	-0.69928	-0.000933533
114.711	-0.699402	-0.000930176
115.111	-0.699677	-0.000926819
115.511	-0.698883	-0.000923157
115.911	-0.698792	-0.0009198
116.311	-0.699707	-0.000916443
116.711	-0.699463	-0.000912781
117.111	-0.699036	-0.000909729
117.511	-0.699768	-0.000905762
117.911	-0.699158	-0.00090271
118.311	-0.698914	-0.000899353
118.711	-0.699707	-0.000895996
119.111	-0.698822	-0.000892639
119.511	-0.698822	-0.000889282
119.911	-0.698975	-0.00088623
120.311	-0.699646	-0.000882874
120.711	-0.699799	-0.000879517
121.111	-0.699524	-0.000876465
121.511	-0.699432	-0.000873413
121.911	-0.698883	-0.000870361
122.311	-0.698914	-0.00086731
122.711	-0.699554	-0.000864258
123.111	-0.699402	-0.000861206
123.511	-0.699463	-0.000858154
123.911	-0.699463	-0.000855103
124.311	-0.699005	-0.000851746
124.711	-0.699249	-0.000848999
125.111	-0.699036	-0.000845642
125.511	-0.699768	-0.00084259
125.911	-0.699829	-0.000839539
126.311	-0.699005	-0.000836182
126.711	-0.699585	-0.000833435
127.111	-0.699615	-0.000830688
127.511	-0.699249	-0.000827637
127.911	-0.699341	-0.00082489
128.311	-0.698792	-0.000822144
128.711	-0.698944	-0.000819092
129.111	-0.699005	-0.000816345
129.511	-0.699707	-0.000813599
129.911	-0.699646	-0.000810852
130.311	-0.698944	-0.000808105
130.711	-0.698975	-0.000805054
131.111	-0.699615	-0.000802612
131.511	-0.699799	-0.000799866
131.911	-0.699097	-0.000797119
132.311	-0.698914	-0.000794373
132.711	-0.699615	-0.000791931
133.111	-0.699646	-0.000789185
133.511	-0.699493	-0.000786743
133.911	-0.699554	-0.000783997
134.311	-0.699036	-0.000781555
134.711	-0.699158	-0.000778809
135.111	-0.699097	-0.000776062
135.511	-0.699066	-0.000773621
135.911	-0.699554	-0.000771179
136.311	-0.69931	-0.000768738
136.711	-0.699493	-0.000766296
137.111	-0.699463	-0.000763855
137.511	-0.699005	-0.000761414
137.911	-0.699646	-0.000758972
138.311	-0.699799	-0.000756531
138.711	-0.699554	-0.000754089
139.111	-0.699127	-0.000751648
139.511	-0.699219	-0.000749512
139.911	-0.698975	-0.00074707
140.311	-0.69928	-0.000744934
140.711	-0.699768	-0.000742493
141.111	-0.699707	-0.000740356
141.511	-0.698914	-0.000737915
141.911	-0.698883	-0.000735779
142.311	-0.699188	-0.000733337
142.711	-0.699646	-0.000731201
143.111	-0.699707	-0.00072876
143.511	-0.699371	-0.000726624
143.911	-0.698853	-0.000724487
144.311	-0.699768	-0.000721436
144.711	-0.699402	-0.000720215
145.111	-0.699371	-0.000718079
145.511	-0.699493	-0.000715942
145.911	-0.699097	-0.000713806
146.311	-0.699036	-0.00071167
146.711	-0.699799	-0.000709839
147.111	-0.698944	-0.000707703
147.511	-0.699249	-0.000705566
147.911	-0.698883	-0.00070343
148.311	-0.699585	-0.000701599
148.711	-0.699005	-0.000699463
149.111	-0.699677	-0.000697327
149.511	-0.699249	-0.000695496
149.911	-0.699646	-0.000693665
150.311	-0.699432	-0.000691528
150.711	-0.699127	-0.000689697
151.111	-0.699646	-0.000687561
151.511	-0.699127	-0.00068573
151.911	-0.699768	-0.000683899
152.311	-0.698883	-0.000682068
152.711	-0.699738	-0.000680237
153.111	-0.698914	-0.000678406
153.511	-0.699768	-0.000676575
153.911	-0.699127	-0.000674438
154.311	-0.699585	-0.000672913
154.711	-0.699188	-0.000671082
155.111	-0.699554	-0.00066925
155.511	-0.699219	-0.000667419
155.911	-0.699097	-0.000665588
156.311	-0.699127	-0.000663147
156.711	-0.69928	-0.000661926
157.111	-0.699066	-0.00065979
157.511	-0.699127	-0.000658264
157.911	-0.699097	-0.000656433
158.311	-0.698914	-0.000654602
158.711	-0.699066	-0.000653076
159.111	-0.698883	-0.000651245
159.511	-0.699005	-0.000649719
159.911	-0.699249	-0.000646362
160.311	-0.698944	-0.000645752
160.711	-0.699463	-0.000644226
161.111	-0.699005	-0.0006427
161.511	-0.699554	-0.000641174
161.911	-0.699371	-0.000639648
162.311	-0.699799	-0.000638123
162.711	-0.699554	-0.000636597
163.111	-0.699738	-0.000635071
163.511	-0.699677	-0.000633545
163.911	-0.699799	-0.000632019
164.311	-0.699005	-0.000630493
164.711	-0.699738	-0.000628967
165.111	-0.698914	-0.000627441
165.511	-0.699707	-0.00062561
165.911	-0.699677	-0.000624084
166.311	-0.699158	-0.000622559
166.711	-0.698853	-0.000621033
167.111	-0.699127	-0.000619507
167.511	-0.698944	-0.000617676
167.911	-0.699036	-0.000616455
168.311	-0.699005	-0.000614929
168.711	-0.698944	-0.000613708
169.111	-0.699066	-0.000612183
169.511	-0.698914	-0.000610657
169.911	-0.69928	-0.000609131
170.311	-0.698883	-0.0006073
170.711	-0.699463	-0.000606079
171.111	-0.699158	-0.000604553
171.511	-0.699554	-0.000603027
171.911	-0.699585	-0.000601807
172.311	-0.699493	-0.000600281
172.711	-0.699005	-0.000598755
173.111	-0.699463	-0.000597534
173.511	-0.699493	-0.000596313
173.911	-0.699219	-0.000594788
174.311	-0.699799	-0.000593567
174.711	-0.699371	-0.000592346
175.111	-0.698822	-0.00059082
175.511	-0.699463	-0.0005896
175.911	-0.69986	-0.000588074
176.311	-0.699799	-0.000586548
176.711	-0.699402	-0.000585327
177.111	-0.699799	-0.000584106
177.511	-0.699188	-0.000582275
177.911	-0.699829	-0.000581055
178.311	-0.699493	-0.000579834
178.711	-0.699799	-0.000578613
179.111	-0.699371	-0.000577393
179.511	-0.699615	-0.000576172
179.911	-0.699707	-0.000574951
180.311	-0.699677	-0.00057373
180.711	-0.699646	-0.00057251
181.111	-0.699615	-0.000571289
181.511	-0.699707	-0.000570374
181.911	-0.699799	-0.000569153
182.311	-0.699707	-0.000567627
182.711	-0.699677	-0.000566406
183.111	-0.699615	-0.000565491
183.511	-0.699127	-0.00056427
183.911	-0.699585	-0.000563049
184.311	-0.699036	-0.000561829
184.711	-0.69928	-0.000560608
185.111	-0.699677	-0.000559692
185.511	-0.699615	-0.000558472
185.911	-0.698883	-0.000557251
186.311	-0.699005	-0.000555725
186.711	-0.699005	-0.000555115
187.111	-0.699036	-0.000553894
187.511	-0.699524	-0.000552673
187.911	-0.698975	-0.000551758
188.311	-0.699066	-0.000550842
188.711	-0.698883	-0.000549622
189.111	-0.699066	-0.000548706
189.511	-0.699219	-0.000547485
189.911	-0.699402	-0.00054657
190.311	-0.699799	-0.000545349
190.711	-0.699615	-0.000544434
191.111	-0.699066	-0.000543213
191.511	-0.699097	-0.000542297
191.911	-0.69928	-0.000541077
192.311	-0.699646	-0.000540161
192.711	-0.699524	-0.000539246
193.111	-0.699005	-0.000538025
193.511	-0.699249	-0.000537109
193.911	-0.699371	-0.000536194
194.311	-0.699371	-0.000534668
194.711	-0.699707	-0.000534058
195.111	-0.699768	-0.000533447
195.511	-0.699127	-0.000532227
195.911	-0.699371	-0.000531006
196.311	-0.699493	-0.000530396
196.711	-0.699066	-0.00052948
197.111	-0.699585	-0.000528564
197.511	-0.699005	-0.000527649
197.911	-0.699036	-0.000526733
198.311	-0.699585	-0.000525513
198.711	-0.699768	-0.000524597
199.111	-0.699524	-0.000523682
199.511	-0.699066	-0.000522766
199.911	-0.699097	-0.000521851
200.311	-0.699738	-0.000520935
200.711	-0.699707	-0.00052002
201.111	-0.699097	-0.000519104
201.511	-0.699005	-0.000518188
201.911	-0.699707	-0.000517273
202.311	-0.699524	-0.000516663
202.711	-0.699432	-0.000515442
203.111	-0.699738	-0.000514526
203.511	-0.699799	-0.000513916
203.911	-0.698914	-0.000512695
204.311	-0.699677	-0.000511475
204.711	-0.699615	-0.000511169
205.111	-0.699127	-0.000510254
205.511	-0.699646	-0.000509644
205.911	-0.699493	-0.000508728
206.311	-0.69931	-0.0005078125
206.711	-0.698975	-0.000506897
207.111	-0.69931	-0.000506287
207.511	-0.699005	-0.000505371
207.911	-0.699615	-0.000504456
208.311	-0.699127	-0.000503845
208.711	-0.699677	-0.00050293
209.111	-0.699585	-0.000501709
209.511	-0.699036	-0.000501099
209.911	-0.699127	-0.000500488
210.311	-0.699341	-0.000499573
210.711	-0.699005	-0.000498657
211.111	-0.699799	-0.000498047
211.511	-0.699829	-0.000497131
211.911	-0.699738	-0.000496521
212.311	-0.69928	-0.000495483
212.711	-0.699524	-0.00049469
213.111	-0.699036	-0.000493927
213.511	-0.698853	-0.000493225
213.911	-0.699005	-0.000492371
214.311	-0.699646	-0.00049173
214.711	-0.698944	-0.000490906
215.111	-0.699432	-0.000490204
215.511	-0.699066	-0.000489563
215.911	-0.699677	-0.000488861
216.311	-0.699707	-0.000488129
216.711	-0.699463	-0.000487366
217.111	-0.699768	-0.000486542
217.511	-0.699097	-0.00048587
217.911	-0.699585	-0.000485199
218.311	-0.699066	-0.000484436
218.711	-0.699188	-0.000483734
219.111	-0.698914	-0.000483032
219.511	-0.699005	-0.0004823
219.911	-0.699615	-0.000481567
220.311	-0.699707	-0.000480957
220.711	-0.699738	-0.000480164
221.111	-0.699707	-0.000479584
221.511	-0.699066	-0.000478943
221.911	-0.699127	-0.000478363
222.311	-0.698975	-0.000477661
222.711	-0.699066	-0.000476929
223.111	-0.699493	-0.000476196
223.511	-0.699188	-0.000475708
223.911	-0.699615	-0.000475037
224.311	-0.699432	-0.000474396
224.711	-0.699707	-0.000473694
225.111	-0.699036	-0.000473083
225.511	-0.699097	-0.000472351
225.911	-0.699066	-0.000471771
226.311	-0.698975	-0.000471161
226.711	-0.699005	-0.00047052
227.111	-0.698944	-0.000469727
227.511	-0.699036	-0.000469086
227.911	-0.699036	-0.000468506
228.311	-0.698944	-0.000467804
228.711	-0.698975	-0.000467163
229.111	-0.698975	-0.000466461
229.511	-0.699432	-0.000465942
229.911	-0.699188	-0.000465485
230.311	-0.699677	-0.000464874
230.711	-0.699371	-0.000464264
231.111	-0.698883	-0.000463715
231.511	-0.699646	-0.000463196
231.911	-0.699219	-0.000462616
232.311	-0.699677	-0.000462097
232.711	-0.698944	-0.000461609
233.111	-0.699646	-0.00046106
233.511	-0.699249	-0.000460327
233.911	-0.699341	-0.0004599
234.311	-0.699371	-0.000459259
234.711	-0.699371	-0.000458771
235.111	-0.699371	-0.000458282
235.511	-0.698944	-0.000457703
235.911	-0.699677	-0.000457214
236.311	-0.699646	-0.000456635
236.711	-0.699219	-0.000456116
237.111	-0.699646	-0.000455627
237.511	-0.699097	-0.000455109
237.911	-0.699371	-0.00045462
238.311	-0.699677	-0.000453979
238.711	-0.698914	-0.000453369
239.111	-0.699158	-0.000452942
239.511	-0.698975	-0.000452393
239.911	-0.699249	-0.000451935
240.311	-0.699707	-0.000451294
240.711	-0.699646	-0.000450867
241.111	-0.699005	-0.000450378
241.511	-0.699005	-0.000449951
241.911	-0.699341	-0.000449463
242.311	-0.699554	-0.000448853
242.711	-0.699677	-0.000448456
243.111	-0.699738	-0.000447968
243.511	-0.699738	-0.000447388
243.911	-0.699188	-0.000446869
244.311	-0.699158	-0.000446381
244.711	-0.699707	-0.000445892
245.111	-0.699005	-0.000445435
245.511	-0.699463	-0.000444977
245.911	-0.699249	-0.00044455
246.311	-0.699036	-0.00044397
246.711	-0.699615	-0.000443695
247.111	-0.699707	-0.000443207
247.511	-0.699799	-0.000442749
247.911	-0.698975	-0.000442261
248.311	-0.699127	-0.000441895
248.711	-0.699127	-0.000441467
249.111	-0.699005	-0.000440979
249.511	-0.699646	-0.000440704
249.911	-0.699615	-0.000440582
250.311	-0.699799	-0.000440125
250.711	-0.699768	-0.000439728
251.111	-0.699554	-0.000439362
251.511	-0.699585	-0.000438873
251.911	-0.699371	-0.000438629
252.311	-0.698944	-0.000438263
252.711	-0.699066	-0.000437988
253.111	-0.699341	-0.000437653
253.511	-0.69928	-0.000437225
253.911	-0.699799	-0.00043692
254.311	-0.699219	-0.000436646
254.711	-0.698914	-0.000436218
255.111	-0.699585	-0.000433014
255.511	-0.699646	-0.000433685
255.911	-0.699585	-0.000433594
256.311	-0.699707	-0.000433594
256.711	-0.699005	-0.00043338
257.111	-0.699585	-0.000433014
257.511	-0.698944	-0.000432678
257.911	-0.699585	-0.000432434
258.311	-0.699005	-0.000432037
258.711	-0.699585	-0.000431671
259.111	-0.698944	-0.000431335
259.511	-0.699402	-0.000431091
259.911	-0.699432	-0.000430725
260.311	-0.698975	-0.000430359
260.711	-0.699799	-0.000429962
261.111	-0.699463	-0.000429718
261.511	-0.699463	-0.000429474
261.911	-0.699707	-0.000429169
262.311	-0.699005	-0.00042865
262.711	-0.699371	-0.000428436
263.111	-0.699677	-0.000428009
263.511	-0.699097	-0.000427734
263.911	-0.699036	-0.000427307
264.311	-0.699707	-0.000426971
264.711	-0.69928	-0.000426575
265.111	-0.699371	-0.000426239
265.511	-0.699707	-0.000425812
265.911	-0.698975	-0.000425507
266.311	-0.69931	-0.000425171
266.711	-0.699646	-0.000424744
267.111	-0.699371	-0.0004245
267.511	-0.699615	-0.000424072
267.911	-0.699432	-0.000423615
268.311	-0.699646	-0.000423187
268.711	-0.699036	-0.00042276
269.111	-0.699738	-0.000422363
269.511	-0.699646	-0.000422058
269.911	-0.699738	-0.000421753
270.311	-0.699341	-0.000421417
270.711	-0.699738	-0.000421051
271.111	-0.699677	-0.000420715
271.511	-0.699799	-0.00042041
271.911	-0.699097	-0.000419952
272.311	-0.699097	-0.000419678
272.711	-0.69928	-0.000418701
273.111	-0.699219	-0.000419067
273.511	-0.699738	-0.000418762
273.911	-0.699646	-0.000418396
274.311	-0.699005	-0.00041806
274.711	-0.698975	-0.000417694
275.111	-0.699646	-0.000417328
275.511	-0.699554	-0.000417023
275.911	-0.699158	-0.000416687
276.311	-0.699554	-0.000416412
276.711	-0.699188	-0.000416077
277.111	-0.698944	-0.000415833
277.511	-0.699066	-0.000415466
277.911	-0.699738	-0.000415161
278.311	-0.698914	-0.000414825
278.711	-0.698975	-0.000414459
279.111	-0.699005	-0.000414246
279.511	-0.699554	-0.000413971
279.911	-0.699585	-0.000414001
280.311	-0.699249	-0.000413971
280.711	-0.699158	-0.000413635
281.111	-0.699219	-0.0004133
281.511	-0.69931	-0.000412933
281.911	-0.699768	-0.000412476
282.311	-0.699677	-0.000412292
282.711	-0.699066	-0.000412109
283.111	-0.698975	-0.000411804
283.511	-0.698914	-0.000411621
283.911	-0.699677	-0.000411163
284.311	-0.698822	-0.000410919
284.711	-0.698944	-0.000410614
285.111	-0.698944	-0.000410431
285.511	-0.699738	-0.000410095
285.911	-0.699524	-0.000409668
286.311	-0.699432	-0.000409485
286.711	-0.699585	-0.000409119
287.111	-0.699127	-0.000408844
287.511	-0.699005	-0.000408539
287.911	-0.699615	-0.000408386
288.311	-0.699066	-0.000408112
288.711	-0.699799	-0.000407837
289.111	-0.69931	-0.000407654
289.511	-0.699768	-0.000407349
289.911	-0.699432	-0.000407104
290.311	-0.699738	-0.000406799
290.711	-0.699158	-0.000406555
291.111	-0.698914	-0.000406128
291.511	-0.698975	-0.000406036
291.911	-0.699768	-0.000405701
292.311	-0.699158	-0.000405304
292.711	-0.699127	-0.000405273
293.111	-0.699005	-0.000404846
293.511	-0.699677	-0.000404602
293.911	-0.699036	-0.000404449
294.311	-0.699738	-0.000404175
294.711	-0.699432	-0.000403961
295.111	-0.699524	-0.000403687
295.511	-0.699402	-0.000403229
295.911	-0.698944	-0.000403046
296.311	-0.699524	-0.000402771
296.711	-0.699371	-0.000402588
297.111	-0.699005	-0.000402252
297.511	-0.699768	-0.000402008
297.911	-0.698975	-0.000401764
298.311	-0.699524	-0.000401428
298.711	-0.699615	-0.000400909
299.111	-0.698975	-0.000400757
299.511	-0.699768	-0.000400482
299.911	-0.699646	-0.000400177
300.311	-0.699799	-0.000399994
300.711	-0.699432	-0.000398895
301.111	-0.699707	-0.000399414
301.511	-0.699036	-0.0003992
301.911	-0.699585	-0.000398987
302.311	-0.699341	-0.00039856
302.711	-0.699646	-0.000398407
303.111	-0.699585	-0.000389404
303.511	-0.698975	-0.000397186
303.911	-0.699005	-0.000397339
304.311	-0.699829	-0.000397339
304.711	-0.699707	-0.000397308
305.111	-0.699127	-0.000397003
305.511	-0.699554	-0.000396851
305.911	-0.699768	-0.000396667
306.311	-0.699463	-0.000396393
306.711	-0.699097	-0.000396301
307.111	-0.699158	-0.000396118
307.511	-0.699768	-0.000395752
307.911	-0.699158	-0.000395538
308.311	-0.698944	-0.000395233
308.711	-0.699646	-0.000395081
309.111	-0.699799	-0.000394867
309.511	-0.699158	-0.000394745
309.911	-0.698944	-0.000394592
310.311	-0.699738	-0.000394501
310.711	-0.699707	-0.000394135
311.111	-0.699432	-0.000393951
311.511	-0.699005	-0.000393707
311.911	-0.698944	-0.000393494
312.311	-0.699738	-0.000393341
312.711	-0.699738	-0.000393066
313.111	-0.699615	-0.000392731
313.511	-0.699677	-0.000392456
313.911	-0.698975	-0.000392212
314.311	-0.699707	-0.000392059
314.711	-0.699799	-0.000391785
315.111	-0.699738	-0.000391571
315.511	-0.699036	-0.000391479
315.911	-0.699463	-0.000391266
316.311	-0.699036	-0.000390808
316.711	-0.699127	-0.000390594
317.111	-0.698975	-0.000389893
317.511	-0.699127	-0.000390167
317.911	-0.698944	-0.000390045
318.311	-0.698914	-0.000389771
318.711	-0.699646	-0.000389465
319.111	-0.699036	-0.000389404
319.511	-0.699188	-0.000389252
319.911	-0.699829	-0.000388916
320.311	-0.698975	-0.000388794
320.711	-0.698944	-0.00038858
321.111	-0.699127	-0.000388397
321.511	-0.699768	-0.000388336
321.911	-0.699402	-0.000388
322.311	-0.699249	-0.000387848
322.711	-0.699493	-0.000387634
323.111	-0.699799	-0.000387421
323.511	-0.699463	-0.000387238
323.911	-0.699188	-0.000386963
324.311	-0.699524	-0.000386841
324.711	-0.699127	-0.000386566
325.111	-0.699768	-0.000386444
325.511	-0.698944	-0.000386139
325.911	-0.699646	-0.000386017
326.311	-0.699219	-0.000385803
326.711	-0.699615	-0.000385651
327.111	-0.69928	-0.000385559
327.511	-0.69931	-0.000385315
327.911	-0.699799	-0.000385223
328.311	-0.699585	-0.000385071
328.711	-0.699738	-0.000384949
329.111	-0.699799	-0.000384705
329.511	-0.699768	-0.00038443
329.911	-0.698914	-0.000384247
330.311	-0.699493	-0.000384033
330.711	-0.699829	-0.000383667
331.111	-0.699127	-0.000383636
331.511	-0.698853	-0.000383484
331.911	-0.699158	-0.000383209
332.311	-0.699127	-0.000382996
332.711	-0.699066	-0.000382843
333.111	-0.699097	-0.00038266
333.511	-0.699554	-0.000382507
333.911	-0.699249	-0.000382355
334.311	-0.699768	-0.000382172
334.711	-0.699707	-0.00038205
335.111	-0.699219	-0.000381866
335.511	-0.699066	-0.000381805
335.911	-0.699036	-0.000381561
336.311	-0.69928	-0.000381348
336.711	-0.699768	-0.000381348
337.111	-0.699738	-0.000381104
337.511	-0.699554	-0.000380798
337.911	-0.699066	-0.000380737
338.311	-0.699738	-0.000380463
338.711	-0.699188	-0.00038031
339.111	-0.698975	-0.000380157
339.511	-0.699768	-0.000380127
339.911	-0.698853	-0.000379852
340.311	-0.698975	-0.000379822
340.711	-0.698944	-0.000379517
341.111	-0.699677	-0.000379669
341.511	-0.699768	-0.000379578
341.911	-0.699036	-0.000379333
342.311	-0.699402	-0.000379303
342.711	-0.699707	-0.000379089
343.111	-0.699127	-0.000378815
343.511	-0.699341	-0.000378632
343.911	-0.699768	-0.000378387
344.311	-0.699036	-0.000378479
344.711	-0.699097	-0.000378235
345.111	-0.699158	-0.000378448
345.511	-0.699554	-0.000378265
345.911	-0.699829	-0.00037796
346.311	-0.698944	-0.000377838
346.711	-0.699585	-0.000377686
347.111	-0.699799	-0.000377533
347.511	-0.699219	-0.000377441
347.911	-0.699463	-0.00037738
348.311	-0.699158	-0.000377106
348.711	-0.699524	-0.000377167
349.111	-0.699707	-0.000376801
349.511	-0.699097	-0.000376617
349.911	-0.699005	-0.000376434
350.311	-0.699493	-0.000376373
350.711	-0.699768	-0.000376251
351.111	-0.699493	-0.000375946
351.511	-0.698944	-0.000375732
351.911	-0.699158	-0.000375397
352.311	-0.699738	-0.000375397
352.711	-0.699646	-0.000375183
353.111	-0.699493	-0.000375122
353.511	-0.699738	-0.000374969
353.911	-0.699097	-0.000374969
354.311	-0.699677	-0.000374542
354.711	-0.699585	-0.000374481
355.111	-0.699615	-0.000374451
355.511	-0.699005	-0.000374451
355.911	-0.699158	-0.000374237
356.311	-0.699677	-0.000374146
356.711	-0.699036	-0.00037384
357.111	-0.699677	-0.000373718
357.511	-0.699158	-0.000373474
357.911	-0.699432	-0.000373383
358.311	-0.699646	-0.000373047
358.711	-0.699738	-0.000373047
359.111	-0.699738	-0.000372803
359.511	-0.699463	-0.000372803
359.911	-0.699615	-0.00037262
360.311	-0.699463	-0.000372345
360.711	-0.699738	-0.000372498
361.111	-0.698883	-0.000372314
361.511	-0.698883	-0.000372284
361.911	-0.699524	-0.000371887
362.311	-0.699738	-0.000371857
362.711	-0.699036	-0.000371582
363.111	-0.699127	-0.000371429
363.511	-0.699402	-0.000371307
363.911	-0.699524	-0.000371338
364.311	-0.699768	-0.000371124
364.711	-0.699707	-0.000371246
365.111	-0.699158	-0.000371124
365.511	-0.699066	-0.000370789
365.911	-0.698944	-0.000370514
366.311	-0.69931	-0.000370361
366.711	-0.699707	-0.000370422
367.111	-0.699646	-0.000370636
367.511	-0.699707	-0.000370453
367.911	-0.699677	-0.000370392
368.311	-0.699005	-0.000370239
368.711	-0.699188	-0.000370209
369.111	-0.699066	-0.000369934
369.511	-0.699738	-0.000369873
369.911	-0.699677	-0.000369781
370.311	-0.69928	-0.00036969
370.711	-0.699707	-0.000369324
371.111	-0.699097	-0.000369415
371.511	-0.699188	-0.000369354
371.911	-0.699707	-0.00036911
372.311	-0.699493	-0.00036908
372.711	-0.699768	-0.000369141
373.111	-0.699341	-0.000368927
373.511	-0.699432	-0.000369019
373.911	-0.698853	-0.000368927
374.311	-0.699188	-0.000368958
374.711	-0.698914	-0.000368805
375.111	-0.699005	-0.000368744
375.511	-0.699677	-0.000368469
375.911	-0.699097	-0.000368286
376.311	-0.699402	-0.000368286
376.711	-0.699738	-0.000368225
377.111	-0.698944	-0.000368103
377.511	-0.699677	-0.000367889
377.911	-0.699188	-0.000367828
378.311	-0.699097	-0.000367767
378.711	-0.699524	-0.000367584
379.111	-0.699615	-0.000367767
379.511	-0.699707	-0.000367462
379.911	-0.69928	-0.000367523
380.311	-0.699707	-0.000367371
380.711	-0.69928	-0.000367371
381.111	-0.699707	-0.000367218
381.511	-0.698975	-0.000367126
381.911	-0.699219	-0.000367065
382.311	-0.699646	-0.000367035
382.711	-0.699005	-0.000367065
383.111	-0.699707	-0.00036676
383.511	-0.699158	-0.000366577
383.911	-0.699585	-0.000365204
384.311	-0.699768	-0.000366425
384.711	-0.699341	-0.00036618
385.111	-0.699066	-0.000365906
385.511	-0.699066	-0.000366241
385.911	-0.69986	-0.00036615
386.311	-0.698944	-0.00036618
386.711	-0.699829	-0.000366089
387.111	-0.699097	-0.000365997
387.511	-0.698975	-0.000365936
387.911	-0.699768	-0.000365662
388.311	-0.699432	-0.00036557
388.711	-0.699127	-0.000365387
389.111	-0.699493	-0.000365326
389.511	-0.699432	-0.000365234
389.911	-0.699768	-0.000365265
390.311	-0.699707	-0.000365112
390.711	-0.698944	-0.00036496
391.111	-0.699188	-0.000364899
391.511	-0.699493	-0.000364838
391.911	-0.699646	-0.000364746
392.311	-0.699493	-0.000364746
392.711	-0.699036	-0.000364777
393.111	-0.699249	-0.000364563
393.511	-0.698944	-0.000364532
393.911	-0.699768	-0.000364471
394.311	-0.699219	-0.000364349
394.711	-0.699371	-0.000364288
395.111	-0.699829	-0.000364288
395.511	-0.699066	-0.000364105
395.911	-0.69928	-0.000364075
396.311	-0.699127	-0.000363892
396.711	-0.699738	-0.000363708
397.111	-0.699646	-0.000363586
397.511	-0.699005	-0.000363586
397.911	-0.699738	-0.000363525
398.311	-0.69931	-0.000363525
398.711	-0.699097	-0.000363251
399.111	-0.699585	-0.00036322
399.511	-0.699646	-0.000363159
399.911	-0.699799	-0.000363068
400.311	-0.698944	-0.000363068
400.711	-0.699554	-0.000362823
401.111	-0.698914	-0.000362823
401.511	-0.699127	-0.000362671
401.911	-0.699524	-0.000362793
402.311	-0.699188	-0.000362732
402.711	-0.699371	-0.000362457
403.111	-0.698975	-0.000362457
403.511	-0.699402	-0.000362396
403.911	-0.698975	-0.000362244
404.311	-0.699432	-0.000362183
404.711	-0.699036	-0.000361877
405.111	-0.699493	-0.000361908
405.511	-0.699036	-0.000361816
405.911	-0.699127	-0.000361481
406.311	-0.699066	-0.00036142
406.711	-0.699066	-0.000361359
407.111	-0.699005	-0.000361389
407.511	-0.699554	-0.000361481
407.911	-0.69986	-0.000361389
408.311	-0.699768	-0.00036142
408.711	-0.698914	-0.000361389
409.111	-0.699341	-0.000361115
409.511	-0.698853	-0.000361084
409.911	-0.699371	-0.00036084
410.311	-0.699738	-0.000360718
410.711	-0.699371	-0.000360718
411.111	-0.699188	-0.000360809
411.511	-0.699585	-0.000360596
411.911	-0.699524	-0.000360596
412.311	-0.699463	-0.000360443
412.711	-0.699127	-0.000360321
413.111	-0.699097	-0.000360016
413.511	-0.699402	-0.000359924
413.911	-0.699738	-0.000360077
414.311	-0.699554	-0.000359863
414.711	-0.699768	-0.000359894
415.111	-0.699219	-0.000359802
415.511	-0.699829	-0.000359802
415.911	-0.699799	-0.000359955
416.311	-0.698944	-0.000359802
416.711	-0.698944	-0.000359619
417.111	-0.699188	-0.000359344
417.511	-0.699646	-0.000359344
417.911	-0.699646	-0.000359436
418.311	-0.698944	-0.000359283
418.711	-0.698914	-0.000359131
419.111	-0.699829	-0.000359406
419.511	-0.699646	-0.000359283
419.911	-0.698944	-0.000359039
420.311	-0.699615	-0.000359039
420.711	-0.698944	-0.000359009
421.111	-0.699127	-0.000359039
421.511	-0.699127	-0.000358856
421.911	-0.699707	-0.000358704
422.311	-0.699677	-0.000358765
422.711	-0.699036	-0.000358673
423.111	-0.699554	-0.000358734
423.511	-0.699158	-0.000358765
423.911	-0.698975	-0.000358704
424.311	-0.699799	-0.000358582
424.711	-0.699493	-0.000358521
425.111	-0.699005	-0.000358368
425.511	-0.699585	-0.000358368
425.911	-0.699615	-0.000358246
426.311	-0.699127	-0.000358063
426.711	-0.699524	-0.00035788
427.111	-0.699829	-0.000358063
427.511	-0.698944	-0.00035788
427.911	-0.698975	-0.000357819
428.311	-0.699219	-0.000357666
428.711	-0.699554	-0.000357635
429.111	-0.69986	-0.000357513
429.511	-0.699402	-0.000357574
429.911	-0.699066	-0.000357574
430.311	-0.699524	-0.000357361
430.711	-0.699036	-0.00035733
431.111	-0.699585	-0.00035733
431.511	-0.699768	-0.000357178
431.911	-0.698914	-0.000357086
432.311	-0.699097	-0.000356934
432.711	-0.699707	-0.000357086
433.111	-0.699799	-0.000356995
433.511	-0.698944	-0.000356842
433.911	-0.69931	-0.000356873
434.311	-0.699127	-0.000356995
434.711	-0.699188	-0.000356903
435.111	-0.698914	-0.000357056
435.511	-0.699829	-0.000357147
435.911	-0.699646	-0.000356842
436.311	-0.699585	-0.000357056
436.711	-0.698944	-0.000356934
437.111	-0.699219	-0.000357025
437.511	-0.69928	-0.000357025
437.911	-0.698975	-0.000356934
438.311	-0.698944	-0.000356537
438.711	-0.699615	-0.00035672
439.111	-0.699707	-0.000356812
439.511	-0.699585	-0.000356598
439.911	-0.699432	-0.000356567
440.311	-0.698975	-0.000356659
440.711	-0.699036	-0.000356506
441.111	-0.699158	-0.000355957
441.511	-0.699738	-0.000355927
441.911	-0.698883	-0.000356232
442.311	-0.699554	-0.000356354
442.711	-0.699799	-0.00035611
443.111	-0.699188	-0.000356018
443.511	-0.699493	-0.000355774
443.911	-0.699402	-0.000355865
444.311	-0.699524	-0.000356018
444.711	-0.699829	-0.00035614
445.111	-0.699738	-0.000355896
445.511	-0.699585	-0.000356201
445.911	-0.699493	-0.000356079
446.311	-0.699158	-0.000356049
446.711	-0.699341	-0.000355804
447.111	-0.699097	-0.000355774
447.511	-0.699188	-0.00035556
447.911	-0.698975	-0.000355408
448.311	-0.698944	-0.000355194
448.711	-0.699219	-0.000354126
449.111	-0.699249	-0.000355133
449.511	-0.69986	-0.000355286
449.911	-0.699768	-0.000355255
450.311	-0.698853	-0.000355164
450.711	-0.699768	-0.00035495
451.111	-0.69989	-0.000354797
451.511	-0.699738	-0.000354736
451.911	-0.699371	-0.000354828
452.311	-0.699829	-0.000354675
452.711	-0.699341	-0.000354614
453.111	-0.699768	-0.000354706
453.511	-0.699554	-0.000354492
453.911	-0.699677	-0.000354614
454.311	-0.699738	-0.000354492
454.711	-0.699799	-0.000354401
455.111	-0.699219	-0.000354279
455.511	-0.699707	-0.00035434
455.911	-0.699463	-0.000353973
456.311	-0.699341	-0.000354218
456.711	-0.699677	-0.000354065
457.111	-0.699066	-0.000354156
457.511	-0.699677	-0.000353943
457.911	-0.69986	-0.000353882
458.311	-0.699738	-0.000353851
458.711	-0.699493	-0.000353882
459.111	-0.699768	-0.000353546
459.511	-0.699249	-0.000353516
459.911	-0.699738	-0.000353577
460.311	-0.699066	-0.000353485
460.711	-0.699799	-0.000353546
461.111	-0.698883	-0.000353241
461.511	-0.69986	-0.000353241
461.911	-0.698975	-0.000353333
462.311	-0.699554	-0.000353088
462.711	-0.699219	-0.00035321
463.111	-0.699646	-0.00035318
463.511	-0.699554	-0.000353058
463.911	-0.698944	-0.000353149
464.311	-0.699585	-0.000352997
464.711	-0.69989	-0.000352814
465.111	-0.699799	-0.000352661
465.511	-0.699127	-0.000352753
465.911	-0.699768	-0.000352844
466.311	-0.699066	-0.000352753
466.711	-0.699615	-0.000352692
467.111	-0.699585	-0.000352509
467.511	-0.699158	-0.000352509
467.911	-0.699799	-0.000352234
468.311	-0.699158	-0.000352234
468.711	-0.698944	-0.000352264
469.111	-0.69986	-0.000352173
469.511	-0.699799	-0.000352203
469.911	-0.69986	-0.000351807
470.311	-0.699097	-0.000351868
470.711	-0.698975	-0.000351746
471.111	-0.698914	-0.000351593
471.511	-0.699066	-0.000351654
471.911	-0.699341	-0.000351837
472.311	-0.699707	-0.000351898
472.711	-0.699799	-0.000351776
473.111	-0.698914	-0.000351807
473.511	-0.699036	-0.0003515625
473.911	-0.699799	-0.000351379
474.311	-0.699768	-0.00035141
474.711	-0.699005	-0.000351318
475.111	-0.698975	-0.000351318
475.511	-0.699249	-0.000351166
475.911	-0.699188	-0.000351105
476.311	-0.69986	-0.000350891
476.711	-0.69928	-0.000351044
477.111	-0.699036	-0.000351044
477.511	-0.698944	-0.000351105
477.911	-0.699341	-0.000351135
478.311	-0.699829	-0.000351044
478.711	-0.699707	-0.00035083
479.111	-0.698944	-0.000350891
479.511	-0.699127	-0.00035083
479.911	-0.699097	-0.000350739
480.311	-0.699432	-0.000350708
480.711	-0.699738	-0.000350922
481.111	-0.699799	-0.000350861
481.511	-0.699707	-0.000350769
481.911	-0.699493	-0.000350922
482.311	-0.698883	-0.000350983
482.711	-0.698975	-0.000351105
483.111	-0.69928	-0.00035083
483.511	-0.698975	-0.000350861
483.911	-0.699799	-0.000351044
484.311	-0.699768	-0.0003508
484.711	-0.699188	-0.000351074
485.111	-0.698975	-0.000351166
485.511	-0.699127	-0.000351074
485.911	-0.698853	-0.000350952
486.311	-0.699371	-0.000351227
486.711	-0.699188	-0.000351105
487.111	-0.699097	-0.000351318
487.511	-0.699615	-0.000351074
487.911	-0.699646	-0.000351196
488.311	-0.698975	-0.000351074
488.711	-0.699036	-0.000351105
489.111	-0.699799	-0.000351105
489.511	-0.699738	-0.000351135
489.911	-0.699127	-0.000351013
490.311	-0.699738	-0.000351135
490.711	-0.699585	-0.000351288
491.111	-0.699707	-0.000351227
491.511	-0.698883	-0.000351379
491.911	-0.699829	-0.000351227
492.311	-0.699677	-0.000350983
492.711	-0.699005	-0.000351044
493.111	-0.699127	-0.000351105
493.511	-0.699768	-0.000351074
493.911	-0.699707	-0.000351013
494.311	-0.699463	-0.000351135
494.711	-0.698975	-0.000350952
495.111	-0.699432	-0.000350891
495.511	-0.699341	-0.00035083
495.911	-0.69928	-0.000350891
496.311	-0.699402	-0.000350891
496.711	-0.699524	-0.000350861
497.111	-0.699554	-0.000351044
497.511	-0.698944	-0.000351135
497.911	-0.69931	-0.000351013
498.311	-0.699249	-0.000351013
498.711	-0.699738	-0.00035141
499.111	-0.699799	-0.000351288
499.511	-0.699005	-0.000351196
499.911	-0.699066	-0.000351257
500.311	-0.69931	-0.000351288
500.711	-0.699005	-0.000351105
501.111	-0.699768	-0.000351044
501.511	-0.699768	-0.000351044
501.911	-0.699432	-0.000351349
502.311	-0.698914	-0.000351105
502.711	-0.698944	-0.000350769
503.111	-0.698853	-0.000351044
503.511	-0.699707	-0.000350891
503.911	-0.698914	-0.000350677
504.311	-0.699493	-0.000350861
504.711	-0.699432	-0.000350891
505.111	-0.698914	-0.0003508
505.511	-0.699524	-0.000350464
505.911	-0.699707	-0.000350525
506.311	-0.699768	-0.000350555
506.711	-0.699646	-0.000350555
507.111	-0.699005	-0.000350464
507.511	-0.699036	-0.000350494
507.911	-0.699249	-0.000350372
508.311	-0.699005	-0.000350555
508.711	-0.699707	-0.000350098
509.111	-0.699738	-0.000350159
509.511	-0.69928	-0.000350311
509.911	-0.699799	-0.000350189
510.311	-0.698944	-0.00035022
510.711	-0.699799	-0.000350342
511.111	-0.699066	-0.000350372
511.511	-0.699219	-0.000350128
511.911	-0.699188	-0.000350067
512.311	-0.699799	-0.000350098
512.711	-0.699738	-0.000349854
513.111	-0.69928	-0.000349915
513.511	-0.69931	-0.000349915
513.911	-0.699646	-0.00034967
514.311	-0.698975	-0.000349854
514.711	-0.699738	-0.000349518
515.111	-0.699829	-0.000349731
515.511	-0.699127	-0.000349762
515.911	-0.699799	-0.00034967
516.311	-0.698944	-0.000349518
516.711	-0.699097	-0.000349487
517.111	-0.699127	-0.000349731
517.511	-0.698975	-0.00034964
517.911	-0.699493	-0.000349518
518.311	-0.699738	-0.000349487
518.711	-0.699799	-0.000349213
519.111	-0.699432	-0.000348969
519.511	-0.699677	-0.000349152
519.911	-0.698975	-0.000349182
520.311	-0.699463	-0.000348999
520.711	-0.698944	-0.00034903
521.111	-0.699127	-0.000348938
521.511	-0.699097	-0.000348938
521.911	-0.699768	-0.000348999
522.311	-0.699463	-0.000348877
522.711	-0.699677	-0.000348419
523.111	-0.699371	-0.000348236
523.511	-0.699005	-0.000348236
523.911	-0.69928	-0.000348236
524.311	-0.699707	-0.000348053
524.711	-0.69928	-0.000347961
525.111	-0.699677	-0.0003479
525.511	-0.699615	-0.000347565
525.911	-0.699432	-0.000347443
526.311	-0.699707	-0.000347595
526.711	-0.699219	-0.000347382
527.111	-0.699738	-0.000347443
527.511	-0.699097	-0.000347382
527.911	-0.699402	-0.00034729
528.311	-0.699005	-0.00034729
528.711	-0.699768	-0.000347229
529.111	-0.699127	-0.000347229
529.511	-0.699188	-0.000347046
529.911	-0.699097	-0.000346985
530.311	-0.699127	-0.000346832
530.711	-0.699677	-0.000347168
531.111	-0.699219	-0.00034671
531.511	-0.699036	-0.00034671
531.911	-0.699341	-0.000346619
532.311	-0.698975	-0.000346649
532.711	-0.699677	-0.000346222
533.111	-0.699005	-0.00034613
533.511	-0.699493	-0.000346344
533.911	-0.699005	-0.000346375
534.311	-0.699707	-0.000346252
534.711	-0.699249	-0.000346313
535.111	-0.699463	-0.000346191
535.511	-0.699341	-0.000345795
535.911	-0.699493	-0.000345978
536.311	-0.699768	-0.00034613
536.711	-0.69931	-0.000345978
537.111	-0.699036	-0.0003461
537.511	-0.699097	-0.000345856
537.911	-0.699371	-0.000345886
538.311	-0.699127	-0.000345581
538.711	-0.699646	-0.000345886
539.111	-0.699341	-0.0003461
539.511	-0.699524	-0.000345825
539.911	-0.699615	-0.000345764
540.311	-0.699707	-0.000345917
540.711	-0.699768	-0.000345734
541.111	-0.699402	-0.000345673
541.511	-0.699097	-0.000345673
541.911	-0.699493	-0.00034549
542.311	-0.699768	-0.000345337
542.711	-0.699127	-0.000345398
543.111	-0.699463	-0.000345154
543.511	-0.699036	-0.000345093
543.911	-0.699005	-0.00034494
544.311	-0.699432	-0.000344879
544.711	-0.69931	-0.00034491
545.111	-0.699738	-0.000344788
545.511	-0.699707	-0.000344849
545.911	-0.699188	-0.000344757
546.311	-0.699219	-0.000344604
546.711	-0.699005	-0.000344421
547.111	-0.699005	-0.000344391
547.511	-0.699524	-0.000344269
547.911	-0.699768	-0.000344299
548.311	-0.699738	-0.000343903
548.711	-0.699524	-0.000343903
549.111	-0.699097	-0.000343567
549.511	-0.699005	-0.000343628
549.911	-0.699005	-0.000343658
550.311	-0.699768	-0.000343628
550.711	-0.699738	-0.000343445
551.111	-0.699005	-0.000343231
551.511	-0.698975	-0.000343323
551.911	-0.699799	-0.000343262
552.311	-0.699554	-0.00034317
552.711	-0.699005	-0.000343323
553.111	-0.699005	-0.000343201
553.511	-0.699738	-0.000342987
553.911	-0.699799	-0.000342804
554.311	-0.699188	-0.000342712
554.711	-0.698944	-0.000342773
555.111	-0.699677	-0.000342682
555.511	-0.699738	-0.000342682
555.911	-0.699677	-0.000342468
556.311	-0.698944	-0.000342804
556.711	-0.699829	-0.000342651
557.111	-0.699738	-0.000342499
557.511	-0.699768	-0.000342407
557.911	-0.698914	-0.000342255
558.311	-0.698914	-0.00034198
558.711	-0.699738	-0.000341827
559.111	-0.699219	-0.000341858
559.511	-0.69931	-0.000341705
559.911	-0.699432	-0.0003414
560.311	-0.699738	-0.000341339
560.711	-0.699371	-0.000341095
561.111	-0.699493	-0.000341095
561.511	-0.698975	-0.000341034
561.911	-0.698914	-0.000341278
562.311	-0.699066	-0.000341187
562.711	-0.699646	-0.0003414
563.111	-0.699524	-0.000341125
563.511	-0.699005	-0.000341095
563.911	-0.699463	-0.000341095
564.311	-0.698944	-0.000341248
564.711	-0.699768	-0.000341064
565.111	-0.699036	-0.000341003
565.511	-0.699799	-0.000341003
565.911	-0.699158	-0.000341003
566.311	-0.69928	-0.000341064
566.711	-0.699097	-0.000340912
567.111	-0.69928	-0.000340729
567.511	-0.699677	-0.000340576
567.911	-0.699188	-0.000340454
568.311	-0.699615	-0.000340759
568.711	-0.698944	-0.000340607
569.111	-0.698975	-0.000340576
569.511	-0.699036	-0.000340485
569.911	-0.699738	-0.000340637
570.311	-0.698914	-0.000340668
570.711	-0.698944	-0.000340881
571.111	-0.699799	-0.000340851
571.511	-0.699707	-0.000340637
571.911	-0.699005	-0.000340607
572.311	-0.698944	-0.000340454
572.711	-0.699371	-0.000340515
573.111	-0.699585	-0.000340546
573.511	-0.699799	-0.000340515
573.911	-0.699005	-0.00034024
574.311	-0.699371	-0.000340057
574.711	-0.699097	-0.000339966
575.111	-0.698914	-0.000340149
575.511	-0.698944	-0.000340088
575.911	-0.699768	-0.000340118
576.311	-0.698914	-0.000339996
576.711	-0.699158	-0.000340088
577.111	-0.699432	-0.000340027
577.511	-0.699127	-0.000340118
577.911	-0.699677	-0.000339935
578.311	-0.699432	-0.000340118
578.711	-0.699829	-0.000340179
579.111	-0.699341	-0.00034024
579.511	-0.699005	-0.000339996
579.911	-0.699738	-0.000339935
580.311	-0.699127	-0.000340088
580.711	-0.69989	-0.000339966
581.111	-0.699432	-0.000339752
581.511	-0.699585	-0.000339722
581.911	-0.699768	-0.000339691
582.311	-0.698944	-0.000339691
582.711	-0.69986	-0.000339722
583.111	-0.699036	-0.000339539
583.511	-0.699677	-0.000339844
583.911	-0.699127	-0.000339508
584.311	-0.699158	-0.000339447
584.711	-0.699738	-0.000339264
585.111	-0.698944	-0.000339294
585.511	-0.699829	-0.00033905
585.911	-0.69989	-0.000338928
586.311	-0.699371	-0.000338745
586.711	-0.699799	-0.000338593
587.111	-0.698944	-0.000338654
587.511	-0.699402	-0.000338501
587.911	-0.699768	-0.00033847
588.311	-0.698944	-0.000338593
588.711	-0.699158	-0.00033847
589.111	-0.699341	-0.000338501
589.511	-0.699005	-0.000338593
589.911	-0.699768	-0.000338593
590.311	-0.69986	-0.000338745
590.711	-0.699524	-0.000338715
591.111	-0.699432	-0.000338409
591.511	-0.699066	-0.000338745
591.911	-0.698914	-0.000338593
592.311	-0.699707	-0.000338654
592.711	-0.699799	-0.000338562
593.111	-0.699432	-0.000338409
593.511	-0.699615	-0.000338257
593.911	-0.699402	-0.000338043
594.311	-0.699829	-0.000337982
594.711	-0.699738	-0.000338043
595.111	-0.699646	-0.000338104
595.511	-0.699829	-0.000338043
595.911	-0.699249	-0.000337891
596.311	-0.699097	-0.000337921
596.711	-0.699829	-0.000337799
597.111	-0.698975	-0.000338013
597.511	-0.699768	-0.000338013
597.911	-0.699554	-0.000338043
598.311	-0.699005	-0.000338226
598.711	-0.699524	-0.00033786
599.111	-0.69931	-0.000337921
599.511	-0.699799	-0.000337616
599.911	-0.699799	-0.000337524
600.311	-0.699615	-0.00033783
600.711	-0.699036	-0.000337646
601.111	-0.699615	-0.00033728
601.511	-0.69928	-0.000337372
601.911	-0.699402	-0.000337402
602.311	-0.699829	-0.000337616
602.711	-0.699402	-0.000337891
603.111	-0.699371	-0.000337555
603.511	-0.699005	-0.000337585
603.911	-0.698975	-0.000337402
604.311	-0.698975	-0.000337189
604.711	-0.699219	-0.000337158
605.111	-0.699677	-0.000337219
605.511	-0.699554	-0.000337128
605.911	-0.69989	-0.000336914
606.311	-0.699768	-0.00033667
606.711	-0.699799	-0.000336823
607.111	-0.698883	-0.000336823
607.511	-0.699799	-0.000336639
607.911	-0.699799	-0.000336548
608.311	-0.699829	-0.000336548
608.711	-0.699066	-0.000336365
609.111	-0.699738	-0.000336395
609.511	-0.69928	-0.000336365
609.911	-0.699463	-0.000336639
610.311	-0.699371	-0.000336731
610.711	-0.699768	-0.000336517
611.111	-0.699738	-0.000336456
611.511	-0.699127	-0.00033606
611.911	-0.699738	-0.000336273
612.311	-0.699524	-0.000336334
612.711	-0.699585	-0.000336304
613.111	-0.698792	-0.000336212
613.511	-0.698944	-0.000336517
613.911	-0.699249	-0.000336243
614.311	-0.699341	-0.000336426
614.711	-0.699127	-0.0003367
615.111	-0.699646	-0.000336609
615.511	-0.69986	-0.000336548
615.911	-0.698914	-0.000336273
616.311	-0.699066	-0.000336334
616.711	-0.699188	-0.000336426
617.111	-0.699036	-0.000336365
617.511	-0.698944	-0.000336517
617.911	-0.699829	-0.000336395
618.311	-0.699677	-0.000336365
618.711	-0.698944	-0.000336334
619.111	-0.699768	-0.000335846
619.511	-0.699738	-0.0003359375
619.811	-0.69986	-0.000335968