File: Edgar/20240424/20240424/chronoamperommetry_steps/B/Chronoamperommetry_steps.txt
Time (s)	WE(1).Potential (V)	WE(1).Current (A)	External(1).External 2 (V)
61.7253	-0.898743	-0.00253204	3.15002
62.1853	-0.898132	-0.00174408	3.03345
62.6453	-0.899353	-0.00151489	2.89551
63.1053	-0.8984375	-0.0013681	2.77802
63.5653	-0.896912	-0.00127533	2.64221
64.0253	-0.899048	-0.0011969	2.54486
64.4853	-0.898743	-0.00113556	2.421875
64.9453	-0.898743	-0.00108307	2.30499
65.4053	-0.8984375	-0.00103699	2.22839
65.8653	-0.897827	-0.000996094	2.12982
66.3253	-0.899353	-0.000959167	2.05231
66.7853	-0.898743	-0.000924988	1.97388
67.2453	-0.897522	-0.000895081	1.91559
67.7053	-0.897217	-0.000866394	1.83624
68.1653	-0.898743	-0.000839233	1.7981
68.6253	-0.8984375	-0.00081604	1.71906
69.0853	-0.899048	-0.000791931	1.6806
69.5453	-0.897827	-0.000770264	1.62201
70.0053	-0.897217	-0.000750427	1.58173
70.4653	-0.899048	-0.000731201	1.54327
70.9253	-0.899048	-0.000713501	1.48346
71.3853	-0.898132	-0.000696716	1.46332
71.8453	-0.897217	-0.000681152	1.42487
72.3053	-0.898132	-0.000665283	1.40503
72.7653	-0.897827	-0.00065155	1.36658
73.2253	-0.899048	-0.000638428	1.32629
73.6853	-0.896912	-0.00062561	1.30768
74.1453	-0.897827	-0.000613098	1.28845
74.6053	-0.898132	-0.000601501	1.26343
75.0653	-0.899048	-0.00059021	1.22467
75.5253	-0.897522	-0.000580139	1.22406
75.9853	-0.897522	-0.000568848	1.20331
76.4453	-0.898743	-0.000559998	1.1853
76.9053	-0.897827	-0.000551147	1.18469
77.3653	-0.897522	-0.000542297	1.14685
77.8253	-0.899353	-0.000534668	1.12701
78.2853	-0.898743	-0.000526123	1.12732
78.7453	-0.8984375	-0.000518494	1.10626
79.2053	-0.899048	-0.000511475	1.10718
79.6653	-0.897217	-0.000504456	1.08734
80.1253	-0.897522	-0.000498627	1.06689
80.5853	-0.899048	-0.000492279	1.0675
81.0453	-0.898743	-0.000486359	1.04858
81.5053	-0.8984375	-0.000480682	1.02875
81.9653	-0.899353	-0.000474182	1.02936
82.4253	-0.898743	-0.000469269	1.00952
82.8853	-0.898743	-0.00046405	1.00952
83.3453	-0.897522	-0.000459198	1.00922
83.8053	-0.898743	-0.000454102	0.990295
84.2653	-0.897522	-0.000448914	0.98938
84.7253	-0.899048	-0.00044455	0.969849
85.1853	-0.899048	-0.000440491	0.970459
85.6453	-0.899353	-0.000436432	0.950317
86.1053	-0.898743	-0.000431885	0.949097
86.5653	-0.897827	-0.000427979	0.950623
87.0253	-0.897522	-0.00042453	0.931091
87.4853	-0.897827	-0.000420715	0.931091
87.9453	-0.898743	-0.000417023	0.931091
88.4053	-0.899048	-0.000413513	0.910645
88.8653	-0.899048	-0.000409546	0.931091
89.3253	-0.897522	-0.000407013	0.911255
89.7853	-0.899353	-0.00040329	0.890503
90.2453	-0.898743	-0.000400238	0.891724
90.7053	-0.899048	-0.000397461	0.911865
91.1653	-0.897827	-0.000393982	0.891113
91.6253	-0.898743	-0.000391693	0.892029
92.0853	-0.899353	-0.000388428	0.892334
92.5453	-0.8984375	-0.000386078	0.870667
93.0053	-0.897217	-0.000383423	0.892334
93.4653	-0.897217	-0.000380096	0.871887
93.9253	-0.898132	-0.000378143	0.872192
94.3853	-0.899353	-0.000375519	0.872192
94.8453	-0.898743	-0.000373474	0.853882
95.3053	-0.897217	-0.00037088	0.852661
95.7653	-0.8984375	-0.000368042	0.852661
96.2253	-0.897522	-0.000366394	0.851746
96.6853	-0.8984375	-0.000363647	0.83374
97.1453	-0.897522	-0.000362	0.852966
97.6053	-0.898743	-0.000359497	0.832825
98.0653	-0.897827	-0.000357391	0.83374
98.5253	-0.897522	-0.000355804	0.833435
98.9853	-0.898132	-0.000353333	0.83313
99.4453	-0.8984375	-0.000351288	0.833435
99.9053	-0.898743	-0.00035025	0.813599
100.365	-0.896606	-0.000347717	0.814209
100.825	-0.898743	-0.000345947	0.813293
101.285	-0.899048	-0.000343872	0.814209
101.745	-0.899658	-0.000342194	0.814514
102.205	-0.897522	-0.000341309	0.813599
102.665	-0.898743	-0.000338898	0.793152
103.125	-0.898132	-0.000337219	0.813904
103.585	-0.897522	-0.000335632	0.813599
104.045	-0.898132	-0.000333832	0.793152
104.505	-0.897522	-0.000332947	0.794067
104.965	-0.897522	-0.000331085	0.792542
105.425	-0.899048	-0.00032962	0.794067
105.885	-0.899048	-0.000327576	0.793762
106.345	-0.897827	-0.000325989	0.792847
106.805	-0.899048	-0.000324951	0.793762
107.265	-0.899048	-0.00032309	0.794678
107.725	-0.899048	-0.000322266	0.794067
108.185	-0.8984375	-0.000320557	0.792542
108.645	-0.898743	-0.000319519	0.774536
109.105	-0.899048	-0.000318054	0.774231
109.565	-0.897827	-0.000316284	0.774536
110.025	-0.899353	-0.000315765	0.774536
110.485	-0.897217	-0.000314148	0.773315
110.945	-0.899048	-0.000312805	0.773621
111.405	-0.897827	-0.000311981	0.774231
111.865	-0.898743	-0.000309784	0.773926
112.325	-0.897827	-0.000309082	0.774231
112.785	-0.897522	-0.000308014	0.774231
113.245	-0.8984375	-0.000307129	0.774841
113.705	-0.899353	-0.000305756	0.774231
114.165	-0.898743	-0.00030423	0.773315
114.625	-0.897827	-0.000303772	0.774536
115.085	-0.898132	-0.00030249	0.774231
115.545	-0.897522	-0.000301788	0.75531
116.005	-0.899048	-0.000300262	0.754089
116.465	-0.898743	-0.000299286	0.774231
116.925	-0.899353	-0.000298676	0.754395
117.385	-0.898132	-0.000297302	0.7547
117.845	-0.898743	-0.000296509	0.7547
118.305	-0.8984375	-0.000295166	0.755005
118.765	-0.897522	-0.000294373	0.754089
119.225	-0.897217	-0.000293854	0.754089
119.685	-0.899353	-0.000292023	0.755005
120.145	-0.897827	-0.00029129	0.753784
120.605	-0.898132	-0.000290558	0.7547
121.065	-0.899048	-0.000290009	0.735168
121.525	-0.897827	-0.000289459	0.734344
121.995	1.00006	0.00450745	0.773315
122.455	1.00037	0.0041449	0.793152
122.915	1.00128	0.00390381	0.852051
123.375	1.00159	0.00370026	0.890808
123.835	1.00128	0.00351379	0.949707
124.295	1.00067	0.00333374	0.989075
124.755	1.00189	0.00315796	1.0672
125.215	0.999756	0.0029837	1.14471
125.675	1.0022	0.00281219	1.22375
126.135	1.00159	0.00264465	1.3266
126.595	0.999146	0.00247284	1.42426
127.055	1.00006	0.00229584	1.58051
127.515	1.00159	0.00211914	1.73737
127.975	1.00067	0.0019458	1.93268
128.435	1.00037	0.00178101	2.24579
128.895	1.00006	0.00162415	2.60162
129.355	1.00098	0.00146667	2.87445
129.815	1.00067	0.00129395	3.06976
130.275	1.00189	0.00111572	3.10883
130.735	1.00006	0.000915222	3.10852
131.195	1.00128	0.000639343	3.10822
131.655	1.00098	0.000189331	3.12836
132.115	1.00098	0.000129395	3.12805
132.575	1.00037	0.000101501	3.1076
133.035	1.00159	8.47473e-05	3.12805
133.495	1.00189	7.35779e-05	3.12775
133.955	1.00128	6.53076e-05	3.12714
134.415	1.00067	5.87769e-05	3.12744
134.875	1.00037	5.26733e-05	3.12866
135.335	0.999756	4.89807e-05	3.12805
135.795	1.00159	4.46777e-05	3.12683
136.255	1.00037	4.14429e-05	3.12836
136.715	0.999146	3.90015e-05	3.12653
137.175	1.00189	3.60413e-05	3.12866
137.635	1.00128	3.40881e-05	3.12805
138.095	1.0022	3.18909e-05	3.14728
138.555	1.00067	3.03955e-05	3.14789
139.015	1.00037	2.84729e-05	3.12897
139.475	1.00006	2.70996e-05	3.12866
139.935	1.00067	2.64587e-05	3.12805
140.395	1.00189	2.45667e-05	3.16772
140.855	1.00037	2.37122e-05	3.12653
141.315	1.00037	2.23999e-05	3.10913
141.775	1.00189	2.12402e-05	3.12836
142.235	0.999756	2.04468e-05	3.14789
142.695	1.00128	1.90735e-05	3.12836
143.155	1.00037	1.86157e-05	3.14789
143.615	1.00159	1.79138e-05	3.14758
144.075	1.00006	1.76086e-05	3.12744
144.535	1.00159	1.66321e-05	3.14819
144.995	1.00006	1.62048e-05	3.14758
145.455	1.00189	1.58997e-05	3.12866
145.915	1.00006	1.54724e-05	3.12744
146.375	1.00189	1.44653e-05	3.12866
146.835	1.00067	1.40686e-05	3.12775
147.295	1.00006	1.36719e-05	3.14728
147.755	1.00098	1.33972e-05	3.14819
148.215	1.0022	1.25427e-05	3.12714
148.675	1.00037	1.2207e-05	3.14789
149.135	0.999756	1.25122e-05	3.14789
149.595	1.00037	1.19629e-05	3.12805
150.055	1.00037	1.14441e-05	3.12866
150.515	1.00189	1.10168e-05	3.16833
150.975	1.00159	1.14136e-05	3.14728
151.435	1.00067	1.10474e-05	3.14758
151.895	1.00037	1.0376e-05	3.12805
152.355	1.00159	1.00403e-05	3.14789
152.815	1.00067	1.01624e-05	3.14697
153.275	1.00006	9.61304e-06	3.1485
153.735	0.999756	9.39941e-06	3.12805
154.195	1.0022	9.21631e-06	3.12836
154.655	1.00128	8.88062e-06	3.14728
155.115	1.00159	9.09424e-06	3.14789
155.575	1.00037	9.09424e-06	3.14819
156.035	0.999756	8.48389e-06	3.12866
156.495	1.00037	8.63647e-06	3.1485
156.955	1.00037	8.27026e-06	3.14728
157.415	1.00159	8.14819e-06	3.14819
157.875	1.00006	7.84302e-06	3.14819
158.335	1.00098	7.50732e-06	3.16803
158.795	1.00159	7.84302e-06	3.14728
159.255	1.00067	7.38525e-06	3.14758
159.715	1.00098	7.08008e-06	3.14758
160.175	1.00159	7.01904e-06	3.14758
160.635	1.00067	7.23267e-06	3.12866
161.095	1.00006	7.01904e-06	3.14789
161.555	1.00128	6.53076e-06	3.12744
162.015	0.999756	6.5918e-06	3.14819
162.475	1.00128	6.74438e-06	3.14758
162.935	1.00037	6.68335e-06	3.12866
163.395	1.00067	6.68335e-06	3.14697
163.855	1.00037	6.34766e-06	3.12683
164.315	1.00159	6.80542e-06	3.14819
164.775	0.999756	6.22559e-06	3.12775
165.235	1.00067	5.70679e-06	3.14758
165.695	1.00067	6.073e-06	3.12866
166.155	0.999756	5.7373e-06	3.14819
166.615	1.00128	5.58472e-06	3.14789
167.075	1.00067	5.46265e-06	3.14697
167.535	1.00006	5.7373e-06	3.14758
167.995	1.00067	5.15747e-06	3.14758
168.455	1.00189	5.58472e-06	3.14667
168.915	1.00006	5.40161e-06	3.14789
169.375	1.00128	4.79126e-06	3.1485
169.835	1.00067	4.79126e-06	3.14819
170.295	1.00128	5.37109e-06	3.14758
170.755	1.00128	4.85229e-06	3.12805
171.215	1.00189	5.34058e-06	3.14606
171.675	1.00037	4.36401e-06	3.12836
172.135	1.00128	5.7373e-06	3.1662
172.595	1.00189	4.57764e-06	3.12866
173.055	1.00128	4.85229e-06	3.14789
173.515	1.00006	5.15747e-06	3.14667
173.975	0.999756	4.39453e-06	3.14758
174.435	1.00159	4.18091e-06	3.1485
174.895	1.00159	4.69971e-06	3.14667
175.355	1.00067	4.66919e-06	3.14728
175.815	1.00098	5.0354e-06	3.16742
176.275	1.00098	4.60815e-06	3.14728
176.735	1.00037	4.36401e-06	3.14789
177.195	1.00159	4.42505e-06	3.14819
177.655	1.0022	3.93677e-06	3.14758
178.115	1.00098	4.79126e-06	3.14758
178.575	1.00128	4.15039e-06	3.12744
179.035	1.00006	4.11987e-06	3.14758
179.495	1.00128	4.15039e-06	3.14758
179.955	1.00037	4.24194e-06	3.12714
180.415	1.00128	4.27246e-06	3.14789
180.875	0.999756	3.72314e-06	3.14789
181.335	0.999451	3.72314e-06	3.14728
181.805	-0.897827	-0.00225281	3.14972
182.265	-0.899353	-0.00172302	3.01422
182.725	-0.898132	-0.00151337	2.89581
183.185	-0.899353	-0.00137726	2.76031
183.645	-0.899048	-0.00128693	2.6239
184.105	-0.8984375	-0.00121307	2.51953
184.565	-0.897522	-0.00115112	2.40295
185.025	-0.898743	-0.00110016	2.30591
185.485	-0.897522	-0.00105377	2.20795
185.945	-0.899048	-0.00101288	2.13074
186.405	-0.897827	-0.000975952	2.03217
186.865	-0.899048	-0.000942383	1.95404
187.325	-0.897522	-0.000911865	1.87531
187.785	-0.897827	-0.000882263	1.83655
188.245	-0.899658	-0.000856323	1.75781
188.705	-0.898743	-0.000830383	1.71936
189.165	-0.899048	-0.00080719	1.66107
189.625	-0.897522	-0.000785828	1.6214
190.085	-0.898743	-0.000764771	1.5625
190.545	-0.897827	-0.000746155	1.52222
191.005	-0.896912	-0.000726318	1.48315
191.465	-0.897827	-0.000708923	1.44562
191.925	-0.898743	-0.000693054	1.40594
192.385	-0.898743	-0.000676575	1.38641
192.845	-0.898132	-0.000662842	1.36627
193.305	-0.8984375	-0.000648804	1.32751
193.765	-0.898132	-0.000635376	1.28845
194.225	-0.897827	-0.000623169	1.28845
194.685	-0.899353	-0.000610657	1.2442
195.145	-0.897217	-0.000600281	1.22498
195.605	-0.899353	-0.000587463	1.20453
196.065	-0.897827	-0.000577698	1.20453
196.525	-0.897522	-0.000567932	1.16638
196.985	-0.897522	-0.000558777	1.14594
197.445	-0.898132	-0.000549622	1.14594
197.905	-0.898743	-0.000539856	1.10596
198.365	-0.8984375	-0.000532227	1.10657
198.825	-0.897217	-0.000524902	1.08704
199.285	-0.899048	-0.000516052	1.08612
199.745	-0.897522	-0.000509949	1.08795
200.205	-0.898132	-0.000502014	1.0675
200.665	-0.897827	-0.00049646	1.04858
201.125	-0.898743	-0.000489868	1.04858
201.585	-0.899658	-0.000483765	1.04797
202.045	-0.899048	-0.000477661	1.02814
202.505	-0.899048	-0.000471741	1.01013
202.965	-0.897827	-0.000466888	1.00952
203.425	-0.899353	-0.000460632	0.990295
203.885	-0.898132	-0.000456024	0.971069
204.345	-0.899658	-0.000450989	0.970154
204.805	-0.898132	-0.000446106	0.970459
205.265	-0.8984375	-0.00044165	0.949707
205.725	-0.899048	-0.000436859	0.950928
206.185	-0.898132	-0.000432098	0.950928
206.645	-0.899353	-0.000428101	0.930786
207.105	-0.899353	-0.000424164	0.931091
207.565	-0.897522	-0.000420288	0.91156
208.025	-0.898132	-0.000415833	0.931091
208.485	-0.897217	-0.000412384	0.910645
208.945	-0.899048	-0.000408508	0.91156
209.405	-0.898743	-0.000405365	0.911865
209.865	-0.898132	-0.000401642	0.890808
210.325	-0.899048	-0.00039801	0.892334
210.785	-0.898743	-0.000395355	0.891724
211.245	-0.899048	-0.000391693	0.892029
211.705	-0.898132	-0.000389038	0.872803
212.165	-0.897217	-0.000386017	0.872192
212.625	-0.899353	-0.000382538	0.872192
213.085	-0.899353	-0.000379822	0.852051
213.545	-0.8984375	-0.000377106	0.853577
214.005	-0.898743	-0.000374634	0.853577
214.465	-0.897827	-0.000372009	0.853271
214.925	-0.897522	-0.000368927	0.852661
215.385	-0.898743	-0.0003671875	0.833435
215.845	-0.897217	-0.000364349	0.834045
216.305	-0.899048	-0.000361572	0.832825
216.765	-0.8984375	-0.00035968	0.834045
217.225	-0.897827	-0.000356873	0.834045
217.685	-0.899048	-0.000355103	0.833435
218.145	-0.897522	-0.0003526	0.83374
218.605	-0.899048	-0.000350616	0.813599
219.065	-0.898132	-0.000348358	0.814514
219.525	-0.897522	-0.000345673	0.814209
219.985	-0.898743	-0.000344543	0.814514
220.445	-0.897522	-0.000342529	0.833435
220.905	-0.899048	-0.000340271	0.813904
221.365	-0.8984375	-0.000338715	0.814209
221.825	-0.898743	-0.000336273	0.814514
222.285	-0.897827	-0.000335083	0.814514
222.745	-0.8984375	-0.00033313	0.794373
223.205	-0.899353	-0.000331055	0.793152
223.665	-0.899048	-0.000330048	0.794373
224.125	-0.897217	-0.000327759	0.793457
224.585	-0.8984375	-0.000326324	0.794678
225.045	-0.899353	-0.00032489	0.793762
225.505	-0.897827	-0.000323181	0.774536
225.965	-0.899658	-0.000321777	0.774231
226.425	-0.897217	-0.000320129	0.774536
226.885	-0.897522	-0.00031842	0.794067
227.345	-0.897217	-0.000317261	0.774536
227.805	-0.897827	-0.000315277	0.774231
228.265	-0.897217	-0.000314209	0.774231
228.725	-0.898132	-0.000312653	0.774231
229.185	-0.899048	-0.000311493	0.794067
229.645	-0.898132	-0.000310516	0.773621
230.105	-0.899353	-0.000308319	0.774536
230.565	-0.899048	-0.000307739	0.755005
231.025	-0.899353	-0.000305939	0.755005
231.485	-0.897827	-0.000304718	0.773621
231.945	-0.899048	-0.000303436	0.755005
232.405	-0.897827	-0.000302521	0.755005
232.865	-0.897827	-0.000301178	0.7547
233.325	-0.8984375	-0.000299896	0.75531
233.785	-0.899048	-0.000298553	0.75531
234.245	-0.897827	-0.000298065	0.755005
234.705	-0.898132	-0.000296234	0.753174
235.165	-0.897522	-0.000295258	0.754395
235.625	-0.899658	-0.000294891	0.755005
236.085	-0.8984375	-0.000292786	0.754395
236.545	-0.898132	-0.000292603	0.75531
237.005	-0.899658	-0.000291168	0.735138
237.465	-0.897827	-0.00029068	0.755615
237.925	-0.899048	-0.000289581	0.735352
238.385	-0.897827	-0.000288055	0.7547
238.845	-0.899353	-0.000287079	0.754089
239.305	-0.898743	-0.00028656	0.73526
239.765	-0.899353	-0.000285004	0.735199
240.225	-0.8984375	-0.000284393	0.754089
240.685	-0.897522	-0.000283752	0.735199
241.145	-0.897217	-0.000282745	0.734283
241.605	-0.898132	-0.000282288	0.735352
242.075	1.00128	0.00442017	0.773315
242.535	1.00159	0.00408661	0.813293
242.995	1.00006	0.00386108	0.832214
243.455	1.00159	0.00367126	0.891113
243.915	0.999756	0.0034964	0.929871
244.375	1.00098	0.00332947	0.98877
244.835	0.999756	0.00316345	1.0675
245.295	1.00189	0.00299927	1.1264
245.755	1.00128	0.00283722	1.2027
246.215	0.999756	0.00267548	1.32629
246.675	1.00189	0.00251007	1.40411
247.135	0.999451	0.0023407	1.54114
247.595	1.00006	0.00217041	1.69861
248.055	1.00098	0.00200195	1.89301
248.515	1.00006	0.00183624	2.16766
248.975	1.00128	0.00167908	2.47894
249.435	0.999756	0.00152588	2.7771
249.895	1.00128	0.00135681	3.01178
250.355	1.00067	0.00118164	3.08929
250.815	1.00159	0.000990906	3.0899
251.275	1.00037	0.000751343	3.08807
251.735	1.00037	0.000239563	3.0899
252.195	1.00067	0.000148102	3.10913
252.655	1.00159	0.000115295	3.10852
253.115	0.999451	9.56726e-05	3.10883
253.575	1.00067	8.31909e-05	3.10913
254.035	0.999756	7.34558e-05	3.10883
254.495	1.00098	6.59485e-05	3.12836
254.955	1.00037	5.9906e-05	3.10944
255.415	1.00098	5.46875e-05	3.10883
255.875	1.00006	5.09644e-05	3.10913
256.335	1.00037	4.67834e-05	3.12836
256.795	1.00128	4.38538e-05	3.10883
257.255	1.00006	4.09546e-05	3.12866
257.715	1.00098	3.85132e-05	3.12866
258.175	1.00006	3.68042e-05	3.12866
258.635	1.00006	3.46375e-05	3.14758
259.095	1.00098	3.26843e-05	3.12866
259.555	1.00006	3.07617e-05	3.12836
260.015	1.00159	2.98157e-05	3.12744
260.475	1.00006	2.89001e-05	3.12836
260.935	0.999451	2.71606e-05	3.12836
261.395	1.00098	2.63062e-05	3.12775
261.855	1.00006	2.48413e-05	3.12714
262.315	1.00037	2.34375e-05	3.14789
262.775	1.00159	2.30713e-05	3.14819
263.235	1.00067	2.22168e-05	3.12683
263.695	1.00006	2.11792e-05	3.14758
264.155	1.00006	2.04468e-05	3.14728
264.615	0.999756	1.92566e-05	3.12836
265.075	1.00159	1.86768e-05	3.10974
265.535	1.00067	1.90735e-05	3.12683
265.995	1.00098	1.75781e-05	3.12866
266.455	1.00128	1.7395e-05	3.10883
266.915	0.999451	1.69067e-05	3.12744
267.375	1.00159	1.63574e-05	3.12775
267.835	0.999756	1.58691e-05	3.14758
268.295	1.00189	1.51062e-05	3.12775
268.755	0.999756	1.53503e-05	3.10944
269.215	1.00006	1.42212e-05	3.10913
269.675	1.00067	1.41907e-05	3.12744
270.135	1.00159	1.37329e-05	3.12775
270.595	1.00037	1.3092e-05	3.10944
271.055	1.00037	1.297e-05	3.12836
271.515	1.00037	1.28784e-05	3.12836
271.975	1.00128	1.22375e-05	3.12836
272.435	1.00189	1.24512e-05	3.12866
272.895	1.00037	1.17493e-05	3.12744
273.355	0.999756	1.18713e-05	3.14819
273.815	1.00159	1.15662e-05	3.14728
274.275	1.00159	1.11084e-05	3.10913
274.735	1.00159	1.11389e-05	3.12836
275.195	1.00006	1.06506e-05	3.12866
275.655	1.00006	1.05286e-05	3.12805
276.115	1.00128	9.94873e-06	3.12836
276.575	1.00128	9.8877e-06	3.14789
277.035	1.00067	1.0376e-05	3.10852
277.495	1.00189	9.70459e-06	3.14789
277.955	1.00159	9.30786e-06	3.12805
278.415	1.00006	9.3689e-06	3.12866
278.875	1.00006	9.15527e-06	3.14697
279.335	1.00098	9.46045e-06	3.12836
279.795	1.00098	8.78906e-06	3.12836
280.255	1.00128	8.66699e-06	3.14758
280.715	1.00006	8.75854e-06	3.14758
281.175	1.00006	8.20923e-06	3.14697
281.635	1.00128	8.8501e-06	3.12866
282.095	1.00037	8.36182e-06	3.12775
282.555	1.00159	7.75146e-06	3.12836
283.015	1.00128	8.08716e-06	3.12866
283.475	1.00006	7.84302e-06	3.14697
283.935	1.00098	7.87354e-06	3.14789
284.395	1.00006	7.69043e-06	3.12836
284.855	0.999756	7.35474e-06	3.12805
285.315	1.00128	7.08008e-06	3.12805
285.775	1.00159	6.98853e-06	3.12805
286.235	0.999756	7.72095e-06	3.10913
286.695	1.00159	6.80542e-06	3.12805
287.155	1.00037	6.5918e-06	3.12836
287.615	1.00037	6.65283e-06	3.12805
288.075	1.00098	6.53076e-06	3.12775
288.535	1.00006	6.98853e-06	3.12866
288.995	1.00006	6.5918e-06	3.14789
289.455	1.00006	6.13403e-06	3.12805
289.915	1.00159	6.43921e-06	3.12805
290.375	1.00159	6.22559e-06	3.12805
290.835	1.00006	6.37817e-06	3.12836
291.295	1.00128	6.13403e-06	3.14789
291.755	0.999756	6.37817e-06	3.14636
292.215	1.00037	6.073e-06	3.14789
292.675	0.999756	5.58472e-06	3.12805
293.135	1.00159	6.22559e-06	3.12836
293.595	1.00159	5.58472e-06	3.14728
294.055	1.00067	5.58472e-06	3.12836
294.515	1.00037	5.7373e-06	3.12805
294.975	0.999451	5.24902e-06	3.12836
295.435	1.00067	5.61523e-06	3.12805
295.895	1.00037	5.21851e-06	3.12836
296.355	1.00159	5.12695e-06	3.12805
296.815	1.00098	5.24902e-06	3.12805
297.275	1.00128	5.15747e-06	3.12714
297.735	1.00006	5.40161e-06	3.12714
298.195	1.00006	5.18799e-06	3.12897
298.655	1.00067	5.18799e-06	3.14819
299.115	1.00098	5.12695e-06	3.12836
299.575	1.00067	4.5166e-06	3.14819
300.035	1.00098	5.12695e-06	3.12805
300.495	1.00037	4.94385e-06	3.12805
300.955	1.00159	4.97437e-06	3.12744
301.415	0.999451	4.91333e-06	3.12836
301.885	-0.897522	-0.00208405	3.11066
302.345	-0.897827	-0.00168884	2.97302
302.805	-0.8984375	-0.00149506	2.85736
303.265	-0.899048	-0.00137238	2.72034
303.725	-0.899048	-0.00128265	2.60284
304.185	-0.897827	-0.00121155	2.48016
304.645	-0.896912	-0.00115173	2.3642
305.105	-0.898132	-0.00110107	2.26685
305.565	-0.897522	-0.00105591	2.16858
306.025	-0.898132	-0.00101501	2.09137
306.485	-0.899658	-0.000977478	2.03247
306.945	-0.898132	-0.00094574	1.93359
307.405	-0.899048	-0.000914001	1.85516
307.865	-0.897217	-0.00088562	1.79779
308.325	-0.899658	-0.00085907	1.73889
308.785	-0.899048	-0.00083374	1.69922
309.245	-0.898743	-0.000810547	1.64124
309.705	-0.897827	-0.000787659	1.58142
310.165	-0.899048	-0.000768127	1.56281
310.625	-0.897827	-0.000748596	1.484375
311.085	-0.897522	-0.000730591	1.44531
311.545	-0.898743	-0.000712585	1.40594
312.005	-0.898132	-0.000695801	1.38489
312.465	-0.897827	-0.000681152	1.36597
312.925	-0.897827	-0.000665588	1.32721
313.385	-0.898743	-0.00065155	1.30798
313.845	-0.897522	-0.000637817	1.28784
314.305	-0.899353	-0.00062561	1.24481
314.765	-0.897827	-0.000614014	1.2442
315.225	-0.899048	-0.000601807	1.20453
315.685	-0.897217	-0.000591125	1.20392
316.145	-0.897827	-0.000580139	1.1853
316.605	-0.897522	-0.000570679	1.16608
317.065	-0.898743	-0.000561218	1.14594
317.525	-0.897522	-0.000552368	1.12732
317.985	-0.897522	-0.000543518	1.10626
318.445	-0.897217	-0.000534363	1.10718
318.905	-0.897827	-0.000526428	1.08765
319.365	-0.899353	-0.000519409	1.06781
319.825	-0.8984375	-0.000510559	1.0675
320.285	-0.896912	-0.000504456	1.04858
320.745	-0.899353	-0.000498108	1.04858
321.205	-0.899353	-0.000491547	1.02783
321.665	-0.897217	-0.000485535	1.02905
322.125	-0.899353	-0.000479492	1.00983
322.585	-0.897827	-0.000474243	0.989685
323.045	-0.897522	-0.000467712	0.990295
323.505	-0.898743	-0.000462921	0.990295
323.965	-0.897522	-0.000457275	0.970764
324.425	-0.898743	-0.000451996	0.949097
324.885	-0.898132	-0.000447571	0.950928
325.345	-0.898132	-0.000442352	0.950012
325.805	-0.899353	-0.000438019	0.931091
326.265	-0.897522	-0.000433319	0.931702
326.725	-0.899048	-0.000429108	0.911865
327.185	-0.899658	-0.000424866	0.911255
327.645	-0.898132	-0.000420197	0.890503
328.105	-0.899353	-0.000416809	0.910339
328.565	-0.898132	-0.000412689	0.911255
329.025	-0.898743	-0.000409302	0.911255
329.485	-0.897827	-0.000405487	0.891418
329.945	-0.897827	-0.000401611	0.872192
330.405	-0.897522	-0.00039856	0.872192
330.865	-0.899658	-0.000395081	0.871277
331.325	-0.897827	-0.000392212	0.872192
331.785	-0.897827	-0.000388977	0.852356
332.245	-0.898743	-0.00038501	0.853271
332.705	-0.897827	-0.0003828125	0.852661
333.165	-0.897522	-0.000379883	0.853271
333.625	-0.897522	-0.000376953	0.852966
334.085	-0.899353	-0.000373993	0.83313
334.545	-0.8984375	-0.000371246	0.852661
335.005	-0.897827	-0.000368988	0.83374
335.465	-0.897522	-0.000366211	0.83374
335.925	-0.899658	-0.000363647	0.833435
336.385	-0.899048	-0.000361206	0.834045
336.845	-0.898132	-0.000358795	0.83252
337.305	-0.898132	-0.000356873	0.814209
337.765	-0.8984375	-0.000353912	0.813599
338.225	-0.898743	-0.000352081	0.814514
338.685	-0.898132	-0.000349396	0.814209
339.145	-0.899048	-0.000347382	0.813904
339.605	-0.897522	-0.000345856	0.814209
340.065	-0.899658	-0.000342682	0.814819
340.525	-0.897827	-0.000341644	0.793457
340.985	-0.899048	-0.00033905	0.793762
341.445	-0.899658	-0.00033725	0.794373
341.905	-0.897217	-0.000335907	0.794373
342.365	-0.897827	-0.000333313	0.793762
342.825	-0.898132	-0.000331604	0.794373
343.285	-0.899353	-0.000329681	0.794067
343.745	-0.898743	-0.000327515	0.794067
344.205	-0.8984375	-0.000326721	0.794067
344.665	-0.8984375	-0.000324158	0.774231
345.125	-0.898132	-0.000323181	0.774231
345.585	-0.8984375	-0.000321136	0.773315
346.045	-0.897827	-0.000319672	0.773315
346.505	-0.897827	-0.000318848	0.774536
346.965	-0.8984375	-0.000316711	0.774536
347.425	-0.899048	-0.000315094	0.774231
347.885	-0.899048	-0.000313416	0.774841
348.345	-0.898132	-0.000312286	0.75531
348.805	-0.897522	-0.000311005	0.773315
349.265	-0.899353	-0.000309418	0.755005
349.725	-0.897217	-0.00030838	0.774841
350.185	-0.899048	-0.000306366	0.755005
350.645	-0.898132	-0.000305298	0.755005
351.105	-0.897827	-0.000304352	0.754395
351.565	-0.8984375	-0.000302032	0.754395
352.025	-0.897522	-0.000301483	0.7547
352.485	-0.8984375	-0.000299988	0.755005
352.945	-0.897827	-0.000298737	0.753479
353.405	-0.897522	-0.000297943	0.755005
353.865	-0.899353	-0.00029599	0.7547
354.325	-0.897522	-0.000295715	0.734924
354.785	-0.898132	-0.000293915	0.734985
355.245	-0.897827	-0.000293182	0.735168
355.705	-0.897522	-0.000292084	0.7547
356.165	-0.899048	-0.000290039	0.7547
356.625	-0.898132	-0.00029007	0.7547
357.085	-0.899048	-0.000288696	0.755005
357.545	-0.898132	-0.000287964	0.735107
358.005	-0.897217	-0.000286652	0.734039
358.465	-0.897522	-0.000285675	0.735077
358.925	-0.898743	-0.000284729	0.734955
359.385	-0.897217	-0.000283844	0.734985
359.845	-0.899963	-0.000282593	0.735168
360.305	-0.897827	-0.00028183	0.734924
360.765	-0.897522	-0.00028067	0.735291
361.225	-0.897827	-0.000280273	0.73407
361.685	-0.8984375	-0.00027829	0.734344
362.155	1.00098	0.00434296	0.752869
362.615	1.00006	0.0040332	0.812988
363.075	1.00067	0.00381866	0.851746
363.535	1.00098	0.00363708	0.871277
363.995	0.999146	0.00346771	0.930176
364.455	1.00067	0.00330688	0.988159
364.915	1.00128	0.00314545	1.04767
365.375	1.00159	0.00298431	1.12549
365.835	1.00037	0.00282654	1.203
366.295	1.00098	0.00266693	1.30676
366.755	0.999146	0.00250488	1.40472
367.215	1.00098	0.00233887	1.54083
367.675	1.00037	0.00217102	1.698
368.135	1.00037	0.00200439	1.87347
368.595	1.00128	0.00184143	2.14722
369.055	1.00067	0.00168579	2.47955
369.515	1.00098	0.00153351	2.75757
369.975	1.00037	0.00136444	2.99194
370.435	1.00159	0.00118927	3.07007
370.895	1.00006	0.00099762	3.06915
371.355	1.00037	0.000758972	3.06915
371.815	1.00067	0.000248657	3.08838
372.275	1.0025	0.000153137	3.10852
372.735	1.00128	0.000118927	3.08838
373.195	1.00006	9.90601e-05	3.10883
373.655	1.00098	8.55713e-05	3.08838
374.115	1.00159	7.6355e-05	3.1076
374.575	1.00159	6.79016e-05	3.08899
375.035	1.00159	6.19507e-05	3.10913
375.495	1.00037	5.68237e-05	3.10791
375.955	1.00067	5.31921e-05	3.10852
376.415	1.00098	4.89807e-05	3.10883
376.875	1.00159	4.54102e-05	3.1076
377.335	1.00159	4.26941e-05	3.1076
377.795	1.00006	3.9856e-05	3.10913
378.255	1.00189	3.75671e-05	3.10852
378.715	1.00037	3.59802e-05	3.10883
379.175	1.00098	3.37524e-05	3.12836
379.635	1.00159	3.21045e-05	3.08929
380.095	1.00067	3.04565e-05	3.10883
380.555	1.00189	2.96326e-05	3.1076
381.015	1.00037	2.80457e-05	3.12836
381.475	1.00098	2.65503e-05	3.10883
381.935	1.00128	2.59094e-05	3.10883
382.395	1.00006	2.46887e-05	3.10852
382.855	1.00037	2.40784e-05	3.12744
383.315	1.00037	2.27966e-05	3.10822
383.775	0.999756	2.23389e-05	3.10852
384.235	1.00067	2.13928e-05	3.10913
384.695	1.00159	2.06604e-05	3.10791
385.155	1.00067	1.9989e-05	3.10852
385.615	1.00128	1.89514e-05	3.10883
386.075	1.00128	1.91345e-05	3.12683
386.535	1.00037	1.8219e-05	3.12714
386.995	1.00037	1.78528e-05	3.10791
387.455	1.00189	1.69983e-05	3.12805
387.915	1.00159	1.64795e-05	3.10852
388.375	1.00128	1.64795e-05	3.12683
388.835	1.00159	1.55029e-05	3.12683
389.295	1.00006	1.53503e-05	3.12836
389.755	1.00006	1.50757e-05	3.12744
390.215	1.00067	1.45569e-05	3.12836
390.675	1.00006	1.45874e-05	3.10913
391.135	1.00037	1.36414e-05	3.10852
391.595	1.00037	1.37329e-05	3.12775
392.055	1.00128	1.32446e-05	3.12775
392.515	1.00037	1.27869e-05	3.10883
392.975	1.00098	1.28174e-05	3.10852
393.435	1.00067	1.23596e-05	3.12775
393.895	1.00006	1.26953e-05	3.10883
394.355	1.00006	1.22375e-05	3.10822
394.815	1.00006	1.16272e-05	3.10822
395.275	1.00189	1.13831e-05	3.12805
395.735	1.00098	1.08643e-05	3.12775
396.195	0.999451	1.09558e-05	3.10852
396.655	1.00128	1.06201e-05	3.10852
397.115	1.00159	1.04675e-05	3.12805
397.575	1.00006	1.02844e-05	3.12805
398.035	0.999756	9.82666e-06	3.12775
398.495	1.00159	9.765625E-06	3.10883
398.955	1.00006	9.64355e-06	3.10883
399.415	1.00098	9.61304e-06	3.10852
399.875	1.00067	9.70459e-06	3.10852
400.335	1.00128	8.75854e-06	3.12775
400.795	1.00067	9.64355e-06	3.10822
401.255	1.00189	8.81958e-06	3.1076
401.715	1.00037	8.54492e-06	3.10852
402.175	1.00159	8.94165e-06	3.14758
402.635	1.00159	8.57544e-06	3.10822
403.095	1.00098	8.14819e-06	3.10913
403.555	1.00128	8.54492e-06	3.12836
404.015	1.00006	8.05664e-06	3.10852
404.475	1.00098	8.57544e-06	3.10913
404.935	1.00037	8.48389e-06	3.12775
405.395	1.00037	7.65991e-06	3.12805
405.855	1.00037	8.11768e-06	3.10822
406.315	1.00037	7.47681e-06	3.10883
406.775	1.00006	7.75146e-06	3.12805
407.235	1.00159	7.23267e-06	3.10883
407.695	1.00189	7.26318e-06	3.10822
408.155	0.999756	7.38525e-06	3.10883
408.615	1.00159	6.7749e-06	3.12805
409.075	1.00037	7.41577e-06	3.10883
409.535	1.00037	6.7749e-06	3.10883
409.995	1.00098	6.74438e-06	3.10852
410.455	1.00098	6.95801e-06	3.10852
410.915	1.00067	6.2561e-06	3.10852
411.375	1.00098	6.65283e-06	3.10822
411.835	1.00006	6.46973e-06	3.12744
412.295	1.00067	6.62231e-06	3.1073
412.755	0.999756	6.31714e-06	3.10822
413.215	1.00037	5.79834e-06	3.10852
413.675	0.999451	6.74438e-06	3.12744
414.135	1.00159	6.19507e-06	3.10791
414.595	1.00159	6.01196e-06	3.08899
415.055	1.00159	6.10352e-06	3.12805
415.515	1.00006	5.52368e-06	3.12744
415.975	0.999756	6.01196e-06	3.12775
416.435	1.00098	5.7373e-06	3.12836
416.895	0.999756	5.61523e-06	3.12805
417.355	1.00128	5.95093e-06	3.12805
417.815	1.00067	5.18799e-06	3.10791
418.275	1.00159	5.82886e-06	3.12805
418.735	1.00006	5.82886e-06	3.12866
419.195	1.00037	5.43213e-06	3.12836
419.655	1.00159	5.67627e-06	3.12714
420.115	1.00098	5.0354e-06	3.12775
420.575	1.00159	5.37109e-06	3.12805
421.035	0.999756	5.43213e-06	3.12805
421.495	1.00159	5.27954e-06	3.12744
421.965	-0.8984375	-0.00198273	3.05084
422.425	-0.896912	-0.00165771	2.91534
422.885	-0.898743	-0.00147919	2.81738
423.345	-0.898743	-0.00136475	2.68127
423.805	-0.897827	-0.00127777	2.54395
424.265	-0.897827	-0.00120911	2.46216
424.725	-0.897217	-0.0011499	2.32513
425.185	-0.898743	-0.00109924	2.24701
425.645	-0.897827	-0.00105469	2.14905
426.105	-0.898743	-0.00101593	2.05048
426.565	-0.8984375	-0.000979919	1.97327
427.025	-0.899048	-0.000945435	1.89514
427.485	-0.898743	-0.000914612	1.83502
427.945	-0.897827	-0.00088623	1.77856
428.405	-0.897522	-0.00085968	1.69952
428.865	-0.897827	-0.000835266	1.66046
429.325	-0.899353	-0.000810852	1.60187
429.785	-0.897522	-0.000790405	1.5625
430.245	-0.898743	-0.000769043	1.50299
430.705	-0.8984375	-0.000749817	1.46454
431.165	-0.897522	-0.000731506	1.42456
431.625	-0.897522	-0.000713501	1.40533
432.085	-0.899048	-0.000697327	1.3858
432.545	-0.897827	-0.000681763	1.33179
433.005	-0.898743	-0.000666504	1.30615
433.465	-0.898132	-0.000652771	1.28876
433.925	-0.897827	-0.000639954	1.24359
434.385	-0.897217	-0.000626831	1.22406
434.845	-0.897217	-0.000614624	1.20392
435.305	-0.899353	-0.000603638	1.1853
435.765	-0.897217	-0.000592651	1.16577
436.225	-0.897827	-0.000581665	1.14685
436.685	-0.899353	-0.00057251	1.14685
437.145	-0.899048	-0.000562439	1.12732
437.605	-0.897522	-0.000553284	1.10718
438.065	-0.897827	-0.000544434	1.10657
438.525	-0.897522	-0.000536194	1.08765
438.985	-0.8984375	-0.000528259	1.06781
439.445	-0.898132	-0.000519714	1.06659
439.905	-0.898132	-0.000512695	1.04828
440.365	-0.897217	-0.000505371	1.02844
440.825	-0.899353	-0.000499451	1.04736
441.285	-0.897827	-0.0004935	0.98999
441.745	-0.899353	-0.000486023	0.989075
442.205	-0.897522	-0.000480988	0.98999
442.665	-0.897522	-0.000474854	0.990295
443.125	-0.899353	-0.000469482	0.950623
443.585	-0.899048	-0.000463715	0.970459
444.045	-0.897827	-0.000458893	0.949402
444.505	-0.897522	-0.000453827	0.949707
444.965	-0.899353	-0.000447968	0.931091
445.425	-0.897827	-0.000443604	0.930481
445.885	-0.898132	-0.000438751	0.91095
446.345	-0.899353	-0.000434479	0.911255
446.805	-0.897827	-0.000430542	0.911255
447.265	-0.8984375	-0.000425476	0.911255
447.725	-0.899353	-0.0004216	0.91095
448.185	-0.898132	-0.000417419	0.870972
448.645	-0.898743	-0.000413513	0.891724
449.105	-0.897217	-0.000410339	0.891418
449.565	-0.897827	-0.000406036	0.871582
450.025	-0.899048	-0.000402863	0.871277
450.485	-0.899353	-0.000399506	0.871887
450.945	-0.898132	-0.000396179	0.852966
451.405	-0.898743	-0.000392883	0.872498
451.865	-0.897522	-0.000389221	0.852661
452.325	-0.899048	-0.000386353	0.852661
452.785	-0.898132	-0.000383301	0.852966
453.245	-0.898132	-0.00038092	0.852966
453.705	-0.899658	-0.00037738	0.852966
454.165	-0.897522	-0.000374725	0.83313
454.625	-0.897522	-0.000372498	0.83374
455.085	-0.899048	-0.000368866	0.83374
455.545	-0.898132	-0.000366974	0.832214
456.005	-0.898743	-0.000364136	0.813904
456.465	-0.898132	-0.000361755	0.813599
456.925	-0.898743	-0.000359436	0.813904
457.385	-0.899658	-0.000356384	0.813904
457.845	-0.897217	-0.000354675	0.814209
458.305	-0.8984375	-0.000351624	0.812988
458.765	-0.8984375	-0.000349854	0.813904
459.225	-0.899048	-0.000347626	0.813904
459.685	-0.8984375	-0.00034494	0.814209
460.145	-0.897522	-0.000343872	0.793152
460.605	-0.8984375	-0.000341217	0.794067
461.065	-0.897217	-0.000339508	0.793762
461.525	-0.897522	-0.000337311	0.792542
461.985	-0.897827	-0.000335205	0.793457
462.445	-0.897827	-0.000333466	0.791626
462.905	-0.897522	-0.000331635	0.774231
463.365	-0.897217	-0.000329956	0.793457
463.825	-0.898743	-0.000328125	0.773926
464.285	-0.897522	-0.000326385	0.773621
464.745	-0.898743	-0.000324799	0.774536
465.205	-0.898132	-0.000322723	0.774231
465.665	-0.898743	-0.000321533	0.754089
466.125	-0.897217	-0.000319519	0.773926
466.585	-0.899353	-0.000317871	0.774536
467.045	-0.899963	-0.000316833	0.753784
467.505	-0.898132	-0.000314606	0.7547
467.965	-0.8984375	-0.000313995	0.754089
468.425	-0.898132	-0.000312073	0.754089
468.885	-0.898132	-0.000310547	0.754089
469.345	-0.897522	-0.000309692	0.754395
469.805	-0.897827	-0.000307281	0.753174
470.265	-0.897522	-0.000306549	0.755005
470.725	-0.897522	-0.000304962	0.7547
471.185	-0.899048	-0.000303558	0.7547
471.645	-0.8984375	-0.000302338	0.753204
472.105	-0.897522	-0.000300446	0.7547
472.565	-0.897827	-0.000299561	0.753784
473.025	-0.899048	-0.000298828	0.734894
473.485	-0.897217	-0.000297058	0.7341
473.945	-0.898132	-0.000295868	0.753479
474.405	-0.897522	-0.000294678	0.734894
474.865	-0.898132	-0.000294067	0.754089
475.325	-0.898743	-0.00029248	0.734039
475.785	-0.897522	-0.000291718	0.7547
476.245	-0.897827	-0.000290527	0.734802
476.705	-0.897522	-0.000289551	0.734894
477.165	-0.899048	-0.00028833	0.73407
477.625	-0.899048	-0.000287231	0.734924
478.085	-0.899353	-0.000286469	0.734863
478.545	-0.8984375	-0.000285034	0.734894
479.005	-0.897522	-0.000283905	0.734924
479.465	-0.898743	-0.000283417	0.734894
479.925	-0.899048	-0.00028186	0.734955
480.385	-0.899658	-0.000281036	0.714294
480.845	-0.8984375	-0.000280396	0.715363
481.305	-0.897827	-0.000279053	0.734863
481.775	1.00067	0.00478302	0.733887
482.235	1.0022	0.00428833	0.753784
482.695	1.00037	0.00399872	0.793152
483.155	0.999756	0.00379272	0.832214
483.615	1.00098	0.00361572	0.890503
484.075	0.999756	0.0034494	0.929565
484.535	0.999756	0.00328796	1.00861
484.995	1.00067	0.00312866	1.06689
485.455	1.00128	0.00296875	1.14532
485.915	1.00128	0.00281128	1.22345
486.375	1.00037	0.00265167	1.30615
486.835	1.00037	0.00248749	1.42303
487.295	0.999756	0.00231995	1.56097
487.755	1.00098	0.0021524	1.71753
488.215	1.00037	0.00198639	1.93329
488.675	1.00067	0.00182495	2.22595
489.135	1.00037	0.00167053	2.5415
489.595	1.00128	0.0015152	2.81525
490.055	0.999451	0.0013443	2.99164
490.515	1.00159	0.0011673	3.04932
490.975	1.00098	0.000971069	3.08838
491.435	0.999756	0.000715332	3.06976
491.895	1.00067	0.000224182	3.08899
492.355	1.00006	0.000147369	3.06946
492.815	1.00037	0.000115753	3.0896
493.275	1.00067	9.74426e-05	3.08899
493.735	1.00159	8.46863e-05	3.08899
494.195	1.00037	7.55615e-05	3.08929
494.655	1.00037	6.7688e-05	3.08899
495.115	1.00098	6.18286e-05	3.08807
495.575	1.00128	5.68542e-05	3.0899
496.035	1.00098	5.27344e-05	3.10852
496.495	0.999756	4.91028e-05	3.08838
496.955	0.999451	4.53491e-05	3.10852
497.415	1.00006	4.26025e-05	3.08899
497.875	1.00159	4.02222e-05	3.08777
498.335	1.00006	3.8269e-05	3.08838
498.795	1.00037	3.57971e-05	3.10883
499.255	1.00006	3.35388e-05	3.10822
499.715	1.00006	3.27759e-05	3.12683
500.175	1.00098	3.08533e-05	3.10852
500.635	1.00098	2.89612e-05	3.08899
501.095	1.00189	2.81982e-05	3.0896
501.555	0.999756	2.62756e-05	3.10913
502.015	1.00037	2.58789e-05	3.10852
502.475	1.00189	2.47192e-05	3.10852
502.935	0.999756	2.39868e-05	3.1076
503.395	1.00098	2.35291e-05	3.10822
503.855	1.00128	2.19116e-05	3.10883
504.315	1.00098	2.20032e-05	3.12775
504.775	1.00128	2.09656e-05	3.10883
505.235	1.0022	2.00806e-05	3.08838
505.695	0.999756	1.95923e-05	3.10852
506.155	1.00159	1.86157e-05	3.10913
506.615	0.999451	1.87073e-05	3.10852
507.075	1.00128	1.80664e-05	3.10638
507.535	1.00159	1.70898e-05	3.08929
507.995	1.00128	1.67542e-05	3.10852
508.455	1.00006	1.61133e-05	3.08929
508.915	1.00037	1.6449e-05	3.10791
509.375	1.00159	1.57471e-05	3.10852
509.835	1.00159	1.51672e-05	3.10852
510.295	1.0022	1.48926e-05	3.10822
510.755	1.00189	1.37939e-05	3.08929
511.215	1.00189	1.41602e-05	3.10913
511.675	1.00006	1.37634e-05	3.08899
512.135	1.00098	1.33972e-05	3.10913
512.595	1.00189	1.35193e-05	3.12744
513.055	1.00037	1.25122e-05	3.10883
513.515	1.00006	1.25122e-05	3.08899
513.975	1.00006	1.2146e-05	3.10852
514.435	1.00037	1.17798e-05	3.10883
514.895	1.00159	1.21765e-05	3.08746
515.355	1.00067	1.1322e-05	3.12866
515.815	1.0022	1.14441e-05	3.10883
516.275	1.00037	1.10474e-05	3.10883
516.735	1.00159	1.09558e-05	3.10791
517.195	0.999756	1.09253e-05	3.10822
517.655	1.00037	1.06812e-05	3.12775
518.115	1.00159	1.03455e-05	3.10791
518.575	1.00037	9.97925e-06	3.08899
519.035	1.00067	1.01929e-05	3.1073
519.495	1.00067	9.765625E-06	3.10791
519.955	1.00128	9.33838e-06	3.12744
520.415	1.00006	9.97925e-06	3.08807
520.875	1.00067	9.12476e-06	3.12775
521.335	1.00189	9.18579e-06	3.12836
521.795	1.00189	9.42993e-06	3.08777
522.255	1.00098	8.63647e-06	3.08899
522.715	1.00159	9.39941e-06	3.12775
523.175	0.999756	8.97217e-06	3.10852
523.635	1.00189	8.5144e-06	3.12714
524.095	1.00189	8.02612e-06	3.08868
524.555	0.999756	7.93457e-06	3.10883
525.015	1.00006	8.42285e-06	3.10883
525.475	1.00067	8.14819e-06	3.08838
525.935	1.00006	7.99561e-06	3.08868
526.395	1.00189	7.69043e-06	3.10883
526.855	0.999756	7.47681e-06	3.10913
527.315	1.00006	7.44629e-06	3.10852
527.775	0.999451	7.38525e-06	3.10883
528.235	1.00006	7.96509e-06	3.10852
528.695	1.00098	7.20215e-06	3.12805
529.155	1.00159	7.23267e-06	3.1076
529.615	1.00159	7.41577e-06	3.10699
530.075	1.00159	6.71387e-06	3.08899
530.535	1.00006	6.65283e-06	3.10852
530.995	1.00128	6.5918e-06	3.10822
531.455	1.00189	6.46973e-06	3.10852
531.915	1.00006	6.56128e-06	3.08929
532.375	1.00159	6.43921e-06	3.10822
532.835	1.00281	6.56128e-06	3.12836
533.295	1.00159	6.13403e-06	3.10944
533.755	1.00006	6.89697e-06	3.12683
534.215	1.00159	6.16455e-06	3.12775
534.675	1.00006	6.56128e-06	3.10822
535.135	1.00006	6.40869e-06	3.12744
535.595	0.999756	6.37817e-06	3.12805
536.055	1.00128	6.2561e-06	3.10822
536.515	1.00037	5.92041e-06	3.10822
536.975	1.00128	6.56128e-06	3.10791
537.435	1.00189	6.04248e-06	3.10791
537.895	1.00006	5.70679e-06	3.10852
538.355	1.00189	5.70679e-06	3.10913
538.815	1.00006	5.79834e-06	3.10699
539.275	1.00037	5.79834e-06	3.10883
539.735	1.00098	5.40161e-06	3.10699
540.195	1.00128	5.40161e-06	3.10852
540.655	1.00006	5.34058e-06	3.10822
541.115	1.00159	5.21851e-06	3.10852
541.575	1.00067	5.40161e-06	3.10852
542.045	-0.897827	-0.0019101	3.05145
542.505	-0.897522	-0.00162994	2.91473
542.965	-0.898743	-0.00146301	2.7594
543.425	-0.897827	-0.00135712	2.62268
543.885	-0.899048	-0.00127167	2.54456
544.345	-0.898743	-0.00120453	2.40356
544.805	-0.897522	-0.00114777	2.3056
545.265	-0.8984375	-0.00109711	2.22778
545.725	-0.898132	-0.00105347	2.1106
546.185	-0.8984375	-0.0010144	2.03217
546.645	-0.896912	-0.000978088	1.95374
547.105	-0.899048	-0.000945435	1.85547
547.565	-0.899048	-0.000913696	1.79626
548.025	-0.897827	-0.000885925	1.73767
548.485	-0.899353	-0.000859375	1.67999
548.945	-0.897827	-0.00083374	1.6394
549.405	-0.897827	-0.000811157	1.58112
549.865	-0.898743	-0.00078949	1.54297
550.325	-0.899048	-0.000769348	1.48407
550.785	-0.897522	-0.000749512	1.4447
551.245	-0.897522	-0.000731812	1.42426
551.705	-0.897827	-0.000714111	1.36597
552.165	-0.897827	-0.000697937	1.36627
552.625	-0.897827	-0.000681763	1.32782
553.085	-0.897217	-0.000667419	1.28784
553.545	-0.898743	-0.000653076	1.26282
554.005	-0.897522	-0.000639343	1.2439
554.465	-0.8984375	-0.000627441	1.22406
554.925	-0.899353	-0.000614929	1.20331
555.385	-0.8984375	-0.000603638	1.16547
555.845	-0.897827	-0.000592651	1.16608
556.305	-0.898743	-0.00058136	1.14655
556.765	-0.899353	-0.00057251	1.12579
557.225	-0.897827	-0.000563049	1.10687
557.685	-0.899353	-0.000553284	1.08704
558.145	-0.898743	-0.000544739	1.08643
558.605	-0.898132	-0.000536804	1.0672
559.065	-0.898132	-0.000528564	1.04797
559.525	-0.898132	-0.000520935	1.04675
559.985	-0.897217	-0.000513611	1.04828
560.445	-0.898743	-0.000506287	1.02753
560.905	-0.899048	-0.000499268	1.00952
561.365	-0.897827	-0.000493652	0.989685
561.825	-0.897522	-0.000486969	0.98999
562.285	-0.897827	-0.000482086	0.970459
562.745	-0.897827	-0.000475433	0.970154
563.205	-0.897217	-0.000469788	0.968628
563.665	-0.898743	-0.000464233	0.950317
564.125	-0.898743	-0.000459015	0.950317
564.585	-0.899353	-0.00045401	0.931091
565.045	-0.899048	-0.000448456	0.929871
565.505	-0.898743	-0.000444489	0.911865
565.965	-0.897827	-0.000439453	0.91095
566.425	-0.899353	-0.000434937	0.930176
566.885	-0.897522	-0.000430725	0.91156
567.345	-0.897522	-0.000426147	0.891724
567.805	-0.897522	-0.000422821	0.891418
568.265	-0.898743	-0.000418091	0.891724
568.725	-0.897217	-0.00041452	0.892029
569.185	-0.897217	-0.000410736	0.872192
569.645	-0.899658	-0.000406799	0.871887
570.105	-0.899048	-0.000403625	0.871277
570.565	-0.899353	-0.000399353	0.872192
571.025	-0.8984375	-0.000396362	0.852051
571.485	-0.8984375	-0.000392944	0.85144
571.945	-0.899658	-0.000389954	0.852966
572.405	-0.897827	-0.000386963	0.852356
572.865	-0.899048	-0.00038327	0.832825
573.325	-0.897827	-0.000380829	0.852661
573.785	-0.8984375	-0.000377747	0.852051
574.245	-0.899048	-0.000375122	0.832214
574.705	-0.899048	-0.000372223	0.83313
575.165	-0.8984375	-0.000369507	0.83313
575.625	-0.898132	-0.000367584	0.812683
576.085	-0.899048	-0.000364319	0.813904
576.545	-0.8984375	-0.00036203	0.813599
577.005	-0.899963	-0.0003591	0.812683
577.465	-0.898743	-0.000356812	0.812683
577.925	-0.8984375	-0.00035437	0.812988
578.385	-0.8984375	-0.000352264	0.794373
578.845	-0.898743	-0.000350372	0.793457
579.305	-0.897827	-0.00034787	0.792847
579.765	-0.898132	-0.000345978	0.793457
580.225	-0.897827	-0.000344116	0.793762
580.685	-0.8984375	-0.000341034	0.794067
581.145	-0.899048	-0.000339691	0.793152
581.605	-0.897522	-0.000337524	0.793457
582.065	-0.898132	-0.000335693	0.774231
582.525	-0.899353	-0.00033371	0.774231
582.985	-0.897217	-0.000331909	0.773926
583.445	-0.899353	-0.000330292	0.7724
583.905	-0.898132	-0.00032782	0.77301
584.365	-0.899353	-0.000326935	0.774231
584.825	-0.899048	-0.000324677	0.773926
585.285	-0.897827	-0.000322906	0.774231
585.745	-0.898132	-0.000321838	0.774536
586.205	-0.899048	-0.000319733	0.774231
586.665	-0.897827	-0.00031842	0.774536
587.125	-0.897217	-0.000316711	0.753479
587.585	-0.898743	-0.000315155	0.773621
588.045	-0.899048	-0.000313812	0.773621
588.505	-0.897827	-0.000312134	0.773621
588.965	-0.899658	-0.00031073	0.754395
589.425	-0.897522	-0.000309357	0.754395
589.885	-0.898743	-0.000307495	0.754395
590.345	-0.899048	-0.000306305	0.753784
590.805	-0.899048	-0.000304474	0.754395
591.265	-0.897522	-0.000303986	0.753784
591.725	-0.8984375	-0.000301636	0.733124
592.185	-0.897522	-0.000301331	0.734985
592.645	-0.897522	-0.000299866	0.753784
593.105	-0.898132	-0.000297729	0.734863
593.565	-0.898132	-0.000297424	0.734955
594.025	-0.8984375	-0.000295807	0.734772
594.485	-0.897522	-0.00029483	0.73407
594.945	-0.897827	-0.00029361	0.73465
595.405	-0.897827	-0.000292328	0.734894
595.865	-0.897827	-0.000291534	0.734711
596.325	-0.899048	-0.00029007	0.734772
596.785	-0.897522	-0.000289337	0.734863
597.245	-0.899353	-0.000287964	0.73465
597.705	-0.8984375	-0.000286713	0.73465
598.165	-0.899353	-0.000286102	0.733978
598.625	-0.897827	-0.000284485	0.715363
599.085	-0.899353	-0.000284058	0.734711
599.545	-0.897217	-0.000282471	0.733765
600.005	-0.899048	-0.000281921	0.734772
600.465	-0.898743	-0.000281067	0.734802
600.925	-0.897522	-0.000279968	0.734741
601.385	-0.899353	-0.000279053	0.734802
601.855	1.00159	0.00464325	0.733765
602.315	1.00067	0.00423065	0.753479
602.775	1.00189	0.00395996	0.813293
603.235	0.999756	0.00376251	0.831604
603.695	1.00189	0.00358856	0.890503
604.155	1.00006	0.00342499	0.949402
604.615	1.00159	0.00326508	1.008
605.075	1.00098	0.00310516	1.06659
605.535	1.00006	0.00294708	1.14471
605.995	1.00067	0.00278931	1.24237
606.455	0.999756	0.00262848	1.3446
606.915	1.00098	0.00246368	1.42334
607.375	1.00006	0.00229553	1.60034
607.835	1.00159	0.00212799	1.7572
608.295	1.00006	0.00196198	1.97205
608.755	1.00006	0.00180267	2.26471
609.215	1.00128	0.00164764	2.56134
609.675	1.00098	0.0014917	2.83447
610.135	1.00159	0.00131805	3.03101
610.595	1.00098	0.00113831	3.04962
611.055	1.00037	0.000932922	3.06915
611.515	1.00098	0.000649719	3.06793
611.975	1.00128	0.000199768	3.05054
612.435	1.00006	0.000138855	3.06976
612.895	1.00006	0.000112	3.06915
613.355	0.999756	9.49402e-05	3.06854
613.815	1.00098	8.255e-05	3.07007
614.275	1.00128	7.33337e-05	3.08899
614.735	1.00006	6.57654e-05	3.08868
615.195	1.00006	6.09741e-05	3.08929
615.655	1.00159	5.59692e-05	3.08807
616.115	1.00159	5.13916e-05	3.08899
616.575	0.999756	4.81567e-05	3.08929
617.035	1.00098	4.44031e-05	3.10883
617.495	1.00067	4.22058e-05	3.08868
617.955	1.00006	3.94287e-05	3.08777
618.415	1.00067	3.71094e-05	3.07007
618.875	1.00006	3.54309e-05	3.08899
619.335	1.00159	3.34167e-05	3.10852
619.795	0.999756	3.27759e-05	3.1073
620.255	1.00189	3.05481e-05	3.10852
620.715	1.00189	2.89917e-05	3.10852
621.175	1.00006	2.80151e-05	3.10852
621.635	1.00037	2.70081e-05	3.1073
622.095	1.00067	2.6062e-05	3.10791
622.555	1.00067	2.47803e-05	3.10822
623.015	1.00189	2.41089e-05	3.08777
623.475	1.00098	2.28882e-05	3.08929
623.935	1.00067	2.21863e-05	3.12714
624.395	1.00159	2.20642e-05	3.10791
624.855	1.00098	2.07825e-05	3.08868
625.315	1.00159	1.98669e-05	3.08868
625.775	0.999756	1.94092e-05	3.10822
626.235	1.00098	1.90735e-05	3.08838
626.695	1.00128	1.8219e-05	3.10883
627.155	0.999756	1.7395e-05	3.10791
627.615	1.00159	1.75171e-05	3.12805
628.075	1.00037	1.69678e-05	3.08838
628.535	1.00006	1.60828e-05	3.08868
628.995	1.00189	1.58691e-05	3.10852
629.455	0.999756	1.54724e-05	3.1076
629.915	1.00037	1.51367e-05	3.10852
630.375	1.0022	1.45264e-05	3.10852
630.835	1.00037	1.41907e-05	3.10883
631.295	1.00037	1.40991e-05	3.10822
631.755	1.00128	1.35803e-05	3.10822
632.215	0.999756	1.40076e-05	3.1073
632.675	1.00067	1.30005e-05	3.08868
633.135	1.00037	1.29089e-05	3.08899
633.595	1.00098	1.24207e-05	3.08899
634.055	1.00006	1.2146e-05	3.08868
634.515	0.999451	1.19629e-05	3.08899
634.975	1.00189	1.13831e-05	3.10883
635.435	1.00189	1.19324e-05	3.12683
635.895	1.00159	1.10779e-05	3.10822
636.355	1.00006	1.11084e-05	3.08899
636.815	1.00067	1.14441e-05	3.12714
637.275	1.00098	1.05896e-05	3.1073
637.735	0.999756	1.10168e-05	3.10883
638.195	1.00006	1.04675e-05	3.1073
638.655	1.00098	1.01929e-05	3.1076
639.115	1.00037	9.94873e-06	3.08868
639.575	1.00189	9.39941e-06	3.10822
640.035	0.999451	9.49097e-06	3.0896
640.495	1.00037	9.12476e-06	3.08838
640.955	1.00128	9.67407e-06	3.10883
641.415	0.999756	9.3689e-06	3.12683
641.875	1.00189	8.66699e-06	3.10883
642.335	1.00159	8.60596e-06	3.08868
642.795	0.999756	8.48389e-06	3.1076
643.255	1.00128	8.66699e-06	3.12805
643.715	0.999451	8.05664e-06	3.10791
644.175	1.00067	8.27026e-06	3.10852
644.635	1.00128	7.96509e-06	3.08899
645.095	1.00006	7.87354e-06	3.10822
645.555	0.999756	8.14819e-06	3.10791
646.015	1.00159	7.23267e-06	3.10822
646.475	1.00098	7.8125e-06	3.08929
646.935	1.00159	7.20215e-06	3.08868
647.395	1.00037	7.32422e-06	3.12836
647.855	1.00037	7.32422e-06	3.10852
648.315	1.00128	6.98853e-06	3.08929
648.775	1.00189	7.38525e-06	3.10913
649.235	1.00128	7.32422e-06	3.1073
649.695	1.00098	6.80542e-06	3.08868
650.155	1.00006	7.1106e-06	3.10852
650.615	1.0022	6.71387e-06	3.1073
651.075	1.00159	7.38525e-06	3.08929
651.535	1.00189	6.7749e-06	3.08868
651.995	1.00067	6.53076e-06	3.10852
652.455	1.00189	6.89697e-06	3.10791
652.915	1.00037	6.34766e-06	3.10822
653.375	1.00037	6.95801e-06	3.08899
653.835	1.00128	6.31714e-06	3.12592
654.295	1.00128	6.04248e-06	3.10822
654.755	1.00037	6.16455e-06	3.0896
655.215	1.00006	6.01196e-06	3.10822
655.675	1.00159	6.13403e-06	3.10883
656.135	1.00159	5.40161e-06	3.08929
656.595	1.00128	5.85937e-06	3.10822
657.055	1.00128	6.073e-06	3.08929
657.515	1.00067	5.7373e-06	3.10883
657.975	1.0022	5.64575e-06	3.08899
658.435	1.00159	5.15747e-06	3.10852
658.895	1.00037	5.64575e-06	3.10791
659.355	0.999756	5.52368e-06	3.08838
659.815	1.00128	5.27954e-06	3.08868
660.275	1.00128	5.40161e-06	3.10852
660.735	1.00189	5.37109e-06	3.10852
661.195	1.00067	6.01196e-06	3.10822
661.655	1.00128	5.43213e-06	3.08868
661.705	1.00159	5.5542e-06	3.10822