File: Edgar/20240503/20240503/electrodeposition_pulsed_potential_20240503_B/pulses_0_to_1000.txt
Time (s)	WE(1).Potential (V)	WE(1).Current (A)
181.722	-0.698181	-0.00356934
182.602	0.524597	-9.97925e-06
183.502	0.524689	-8.45337e-06
184.362	-0.698181	-0.00285431
185.242	0.524658	-9.15527e-06
186.142	0.524628	-7.93457e-06
187.022	0.00124817	0.000260498
187.882	0.524628	-8.66699e-06
188.782	0.524689	-7.75146e-06
189.662	0.00118713	4.953e-05
190.522	0.524597	-8.78906e-06
191.422	0.524628	-6.86646e-06
192.322	0.524689	6.76575e-05
193.162	0.524689	-9.06372e-06
194.062	0.524658	-7.78198e-06
194.962	0.524597	1.37634e-05
195.802	0.524628	-9.09424e-06
196.702	0.524597	-7.69043e-06
197.602	0.524628	4.94385e-06
198.442	0.524658	-9.30786e-06
199.342	0.524689	-7.56836e-06
200.242	0.524658	1.86157e-06
201.082	0.524628	-8.57544e-06
201.982	0.524689	-8.27026e-06
202.882	0.524628	-1.40381e-06
203.722	0.524658	-8.81958e-06
204.622	0.524658	-7.93457e-06
205.522	0.524628	-2.65503e-06
206.362	0.524658	-8.60596e-06
207.262	0.524719	-8.20923e-06
208.162	0.524628	-4.05884e-06
209.022	-0.69812	-0.00464478
209.902	0.524658	-7.72095e-06
210.802	0.524628	-4.48608e-06
211.662	-0.69812	-0.00359985
212.542	0.524628	-7.93457e-06
213.442	0.524689	-6.37817e-06
214.322	0.0013092	0.000770264
215.182	0.524689	-8.66699e-06
216.082	0.524597	-6.2561e-06
216.962	0.00120239	4.04968e-05
217.822	0.524689	-8.54492e-06
218.722	0.524628	-6.74438e-06
219.622	0.524567	5.85632e-05
220.462	0.524597	-8.42285e-06
221.362	0.524597	-7.1106e-06
222.262	0.524658	1.32446e-05
223.102	0.524567	-8.5144e-06
224.002	0.524628	-8.20923e-06
224.902	0.524658	4.02832e-06
225.742	0.524689	-9.18579e-06
226.642	0.524567	-8.05664e-06
227.542	0.524628	-5.49316e-07
228.382	0.524628	-8.72803e-06
229.282	0.524658	-8.17871e-06
230.182	0.524628	-1.77002e-06
231.022	0.524658	-8.54492e-06
231.922	0.524597	-8.30078e-06
232.822	0.524658	-4.88281e-06
233.662	0.524628	-8.75854e-06
234.562	0.524658	-7.62939e-06
235.462	0.524628	-5.27954e-06
236.322	-0.698029	-0.00587006
237.202	0.524628	-8.5144e-06
238.102	0.524658	-5.7373e-06
238.962	-0.69809	-0.00394989
239.842	0.524597	-9.46045e-06
240.742	0.524597	-6.04248e-06
241.622	0.00131836	0.00240692
242.482	0.524628	-8.8501e-06
243.382	0.524628	-6.46973e-06
244.262	0.00123901	3.9917e-05
245.122	0.524689	-9.18579e-06
246.022	0.524628	-7.17163e-06
246.922	0.524628	5.896e-05
247.762	0.524628	-9.15527e-06
248.662	0.524628	-7.17163e-06
249.562	0.524597	1.16577e-05
250.402	0.524628	-9.30786e-06
251.302	0.524658	-7.47681e-06
252.202	0.524658	2.74658e-06
253.042	0.524658	-9.61304e-06
253.942	0.524567	-8.27026e-06
254.842	0.524658	-8.8501e-07
255.682	0.524658	-9.85718e-06
256.582	0.524658	-8.08716e-06
257.482	0.524597	-2.83813e-06
258.322	0.524689	-9.61304e-06
259.222	0.524567	-8.8501e-06
260.122	0.524658	-5.18799e-06
260.962	0.524689	-9.91821e-06
261.862	0.524689	-8.45337e-06
262.762	0.524689	-5.46265e-06
263.622	-0.697937	-0.00683563
264.502	0.524658	-8.91113e-06
265.402	0.524628	-5.85937e-06
266.262	-0.698059	-0.00416473
267.142	0.524658	-8.97217e-06
268.042	0.524689	-7.20215e-06
268.922	0.00128784	0.00409363
269.782	0.524597	-8.17871e-06
270.682	0.524658	-6.37817e-06
271.562	0.00122375	6.640625E-05
272.422	0.524658	-9.552e-06
273.322	0.524628	-7.78198e-06
274.222	0.524628	6.35376e-05
275.062	0.524628	-8.69751e-06
275.962	0.524689	-7.35474e-06
276.862	0.524628	1.02234e-05
277.702	0.524658	-8.97217e-06
278.602	0.524658	-8.54492e-06
279.502	0.524658	1.83105e-06
280.342	0.524628	-8.60596e-06
281.242	0.524658	-8.05664e-06
282.142	0.524658	-1.7395e-06
282.982	0.524689	-9.39941e-06
283.882	0.524628	-8.36182e-06
284.782	0.524658	-4.3335e-06
285.622	0.524628	-9.00269e-06
286.522	0.524628	-7.99561e-06
287.422	0.524658	-4.97437e-06
288.262	0.524597	-9.3689e-06
289.162	0.524597	-8.75854e-06
290.062	0.524597	-6.46973e-06
290.922	-0.697998	-0.00759888
291.802	0.524628	-8.63647e-06
292.702	0.524597	-6.10352e-06
293.562	-0.698059	-0.00435425
294.442	0.524597	-8.81958e-06
295.342	0.524628	-7.01904e-06
296.222	0.00123291	0.00521698
297.082	0.524658	-9.24683e-06
297.982	0.524597	-7.75146e-06
298.862	0.00117798	0.000116516
299.722	0.524628	-8.05664e-06
300.622	0.524597	-7.08008e-06
301.522	0.524658	6.8573e-05
302.362	0.524658	-9.39941e-06
303.262	0.524689	-7.75146e-06
304.162	0.524628	9.39941e-06
305.002	0.524628	-8.91113e-06
305.902	0.524628	-7.84302e-06
306.802	0.524628	6.10352e-07
307.642	0.524628	-9.12476e-06
308.542	0.524689	-8.36182e-06
309.442	0.524658	-2.47192e-06
310.282	0.524658	-9.52148e-06
311.182	0.524689	-8.14819e-06
312.082	0.524597	-3.90625e-06
312.922	0.524689	-9.64355e-06
313.822	0.524658	-8.54492e-06
314.722	0.524597	-5.52368e-06
315.562	0.524597	-9.8877e-06
316.462	0.524658	-8.72803e-06
317.362	0.524689	-6.22559e-06
318.222	-0.697998	-0.00822449
319.102	0.524597	-8.27026e-06
320.002	0.524628	-6.71387e-06
320.862	-0.698151	-0.00454559
321.742	0.524567	-8.60596e-06
322.642	0.524628	-7.08008e-06
323.522	0.0012146	0.00598724
324.382	0.524658	-8.81958e-06
325.282	0.524658	-7.20215e-06
326.162	0.00116882	0.000193939
327.022	0.524628	-8.91113e-06
327.922	0.524658	-7.2937e-06
328.822	0.524628	7.49207e-05
329.662	0.524567	-8.78906e-06
330.562	0.524658	-8.94165e-06
331.462	0.524628	1.03455e-05
332.302	0.524658	-8.81958e-06
333.202	0.524719	-8.05664e-06
334.102	0.524597	1.2207e-06
334.942	0.524658	-9.3689e-06
335.842	0.524628	-8.02612e-06
336.742	0.524628	-2.99072e-06
337.582	0.524689	-9.12476e-06
338.482	0.524628	-7.96509e-06
339.382	0.524689	-4.91333e-06
340.222	0.524567	-9.18579e-06
341.122	0.524628	-8.45337e-06
342.022	0.524628	-5.34058e-06
342.862	0.524628	-9.21631e-06
343.762	0.524597	-8.57544e-06
344.662	0.524628	-6.74438e-06
345.522	-0.697906	-0.00878906
346.402	0.524597	-8.63647e-06
347.302	0.524658	-6.89697e-06
348.162	-0.69809	-0.00474396
349.042	0.524689	-9.27734e-06
349.942	0.524719	-7.87354e-06
350.822	0.00120544	0.00656586
351.682	0.524628	-8.48389e-06
352.582	0.524628	-7.47681e-06
353.462	0.001171875	0.000303802
354.322	0.52475	-8.69751e-06
355.222	0.524658	-7.65991e-06
356.122	0.524628	8.10547e-05
356.962	0.524689	-8.97217e-06
357.862	0.524628	-8.08716e-06
358.762	0.524658	9.91821e-06
359.602	0.524658	-8.5144e-06
360.502	0.524658	-8.60596e-06
361.402	0.524597	6.71387e-07
362.242	0.524658	-9.73511e-06
363.142	0.524597	-8.48389e-06
364.042	0.524658	-3.38745e-06
364.882	0.524689	-9.765625E-06
365.782	0.524658	-7.69043e-06
366.682	0.524567	-5.09644e-06
367.522	0.524689	-8.39233e-06
368.422	0.524628	-8.42285e-06
369.322	0.524689	-6.46973e-06
370.162	0.524628	-8.8501e-06
371.062	0.524689	-8.8501e-06
371.962	0.524597	-6.22559e-06
372.822	-0.697937	-0.00932312
373.702	0.524597	-8.66699e-06
374.602	0.524658	-6.89697e-06
375.462	-0.69812	-0.00495361
376.342	0.524597	-8.45337e-06
377.242	0.524689	-7.53784e-06
378.122	0.00120239	0.00703796
378.982	0.524658	-9.06372e-06
379.882	0.524567	-7.69043e-06
380.762	0.00119629	0.00044989
381.622	0.524628	-8.30078e-06
382.522	0.524628	-7.87354e-06
383.422	0.524689	9.03931e-05
384.262	0.524658	-9.33838e-06
385.162	0.524689	-8.17871e-06
386.062	0.524567	1.15356e-05
386.902	0.524689	-8.48389e-06
387.802	0.524597	-8.08716e-06
388.702	0.524567	9.46045e-07
389.542	0.524597	-8.63647e-06
390.442	0.524658	-8.30078e-06
391.342	0.524597	-2.96021e-06
392.182	0.524658	-8.97217e-06
393.082	0.524628	-9.27734e-06
393.982	0.524567	-4.3335e-06
394.822	0.524628	-8.78906e-06
395.722	0.524567	-8.02612e-06
396.622	0.524597	-5.92041e-06
397.462	0.524597	-8.48389e-06
398.362	0.524658	-8.20923e-06
399.262	0.524658	-7.01904e-06
400.122	-0.697937	-0.00984192
401.002	0.524628	-9.09424e-06
401.902	0.524597	-7.87354e-06
402.762	-0.698059	-0.00518036
403.642	0.524658	-9.09424e-06
404.542	0.524597	-7.41577e-06
405.422	0.00117798	0.00743683
406.282	0.524658	-9.3689e-06
407.182	0.524658	-8.54492e-06
408.062	0.0013031	0.00063324
408.922	0.524689	-8.66699e-06
409.822	0.524597	-8.60596e-06
410.722	0.524567	0.00010022
411.562	0.524658	-8.63647e-06
412.462	0.524628	-7.99561e-06
413.362	0.524628	1.22681e-05
414.202	0.524597	-8.60596e-06
415.102	0.524689	-8.91113e-06
416.002	0.524658	1.0376e-06
416.842	0.524719	-9.3689e-06
417.742	0.524658	-7.99561e-06
418.642	0.524597	-1.7395e-06
419.482	0.524597	-9.12476e-06
420.382	0.524628	-9.00269e-06
421.282	0.524597	-4.69971e-06
422.122	0.524658	-8.88062e-06
423.022	0.524689	-8.88062e-06
423.922	0.524628	-6.10352e-06
424.762	0.524628	-8.08716e-06
425.662	0.524597	-9.52148e-06
426.562	0.524658	-6.56128e-06
427.422	-0.697876	-0.0103333
428.302	0.524628	-9.21631e-06
429.202	0.524628	-7.44629e-06
430.062	-0.698059	-0.00541473
430.942	0.524567	-9.21631e-06
431.842	0.524628	-6.65283e-06
432.722	0.00105591	0.00777588
433.582	0.524689	-8.78906e-06
434.482	0.524658	-7.99561e-06
435.362	0.00133057	0.000846558
436.222	0.524658	-8.91113e-06
437.122	0.524597	-7.26318e-06
438.022	0.524658	0.000111481
438.862	0.524628	-9.06372e-06
439.762	0.524597	-8.08716e-06
440.662	0.524597	1.41602e-05
441.502	0.524658	-8.81958e-06
442.402	0.524658	-9.42993e-06
443.302	0.524658	1.95313e-06
444.142	0.524597	-8.72803e-06
445.042	0.524689	-8.66699e-06
445.942	0.524658	-2.41089e-06
446.782	0.524658	-9.58252e-06
447.682	0.524597	-8.97217e-06
448.582	0.524628	-4.21143e-06
449.422	0.524628	-8.75854e-06
450.322	0.524628	-8.66699e-06
451.222	0.524597	-6.16455e-06
452.062	0.524719	-9.30786e-06
452.962	0.524719	-8.8501e-06
453.862	0.524658	-5.98145e-06
454.722	-0.697876	-0.0108093
455.602	0.524628	-8.42285e-06
456.502	0.524628	-7.32422e-06
457.362	-0.698029	-0.0056543
458.242	0.524658	-9.46045e-06
459.142	0.524628	-7.04956e-06
460.022	0.00106201	0.00806885
460.882	0.524658	-8.88062e-06
461.782	0.524628	-7.62939e-06
462.662	0.00129395	0.001073
463.522	0.524689	-8.69751e-06
464.422	0.524658	-8.75854e-06
465.322	0.524597	0.000125214
466.162	0.524689	-8.69751e-06
467.062	0.524658	-7.93457e-06
467.962	0.524689	1.52893e-05
468.802	0.524628	-9.00269e-06
469.702	0.524628	-9.24683e-06
470.602	0.524628	3.11279e-06
471.442	0.524628	-8.81958e-06
472.342	0.524628	-7.93457e-06
473.242	0.524658	-1.37329e-06
474.082	0.524658	-9.24683e-06
474.982	0.524628	-8.97217e-06
475.882	0.524689	-3.72314e-06
476.722	0.524567	-8.42285e-06
477.622	0.524628	-9.15527e-06
478.522	0.524628	-4.94385e-06
479.362	0.524689	-8.63647e-06
480.262	0.524628	-8.3313e-06
481.162	0.524628	-5.40161e-06
482.022	-0.697876	-0.0112732
482.902	0.524597	-9.24683e-06
483.802	0.524689	-7.01904e-06
484.662	-0.698029	-0.00589813
485.542	0.524658	-9.21631e-06
486.442	0.524658	-7.65991e-06
487.322	0.00098877	0.00834045
488.182	0.524689	-8.20923e-06
489.082	0.524628	-7.26318e-06
489.962	0.00130615	0.00132324
490.822	0.524689	-9.27734e-06
491.722	0.524628	-7.99561e-06
492.622	0.524689	0.000141113
493.462	0.524628	-9.64355e-06
494.362	0.524658	-8.63647e-06
495.262	0.524597	1.79749e-05
496.102	0.524628	-8.14819e-06
497.002	0.524658	-8.42285e-06
497.902	0.524628	4.21143e-06
498.742	0.524658	-9.33838e-06
499.642	0.524658	-8.42285e-06
500.542	0.524597	-5.49316e-07
501.382	0.524628	-8.91113e-06
502.282	0.524628	-8.94165e-06
503.182	0.524628	-3.20435e-06
504.022	0.524658	-9.06372e-06
504.922	0.524658	-9.09424e-06
505.822	0.524658	-4.82178e-06
506.662	0.524628	-8.66699e-06
507.562	0.524628	-9.00269e-06
508.462	0.524628	-5.61523e-06
509.322	-0.697784	-0.0116943
510.202	0.524628	-9.15527e-06
511.102	0.524628	-6.95801e-06
511.962	-0.697937	-0.00613983
512.842	0.524628	-9.12476e-06
513.742	0.524597	-7.04956e-06
514.622	0.00102844	0.00855408
515.482	0.524628	-9.09424e-06
516.382	0.524567	-7.01904e-06
517.262	0.00127563	0.00158386
518.122	0.524628	-8.63647e-06
519.022	0.524689	-8.39233e-06
519.922	0.524689	0.000160095
520.762	0.524567	-8.88062e-06
521.662	0.524597	-7.72095e-06
522.562	0.524658	1.9928e-05
523.402	0.524658	-9.09424e-06
524.302	0.524628	-7.99561e-06
525.202	0.524628	5.31006e-06
526.042	0.524628	-8.8501e-06
526.942	0.524628	-7.99561e-06
527.842	0.524658	-3.05176e-08
528.682	0.524597	-8.94165e-06
529.582	0.524567	-8.27026e-06
530.482	0.524689	-2.80762e-06
531.322	0.524597	-8.8501e-06
532.222	0.524658	-9.58252e-06
533.122	0.524628	-4.27246e-06
533.962	0.524628	-8.94165e-06
534.862	0.524658	-7.87354e-06
535.762	0.524658	-5.85937e-06
536.622	-0.697784	-0.0120972
537.502	0.524689	-9.06372e-06
538.402	0.524628	-6.01196e-06
539.262	-0.697937	-0.00637848
540.142	0.524597	-8.94165e-06
541.042	0.524597	-6.65283e-06
541.922	0.00101318	0.00874023
542.782	0.524628	-9.21631e-06
543.682	0.524628	-6.80542e-06
544.562	0.00125122	0.00184296
545.422	0.524658	-9.0332e-06
546.322	0.524658	-7.20215e-06
547.222	0.524658	0.000183685
548.062	0.524628	-9.30786e-06
548.962	0.524689	-8.11768e-06
549.862	0.524628	2.09351e-05
550.702	0.524689	-8.8501e-06
551.602	0.524597	-7.69043e-06
552.502	0.524689	5.49316e-06
553.342	0.524689	-1.00098e-05
554.242	0.524628	-8.36182e-06
555.142	0.524658	-1.2207e-07
555.982	0.524628	-9.52148e-06
556.882	0.524628	-8.05664e-06
557.782	0.524689	-1.70898e-06
558.622	0.524628	-8.72803e-06
559.522	0.524628	-8.81958e-06
560.422	0.524689	-4.11987e-06
561.262	0.524628	-9.09424e-06
562.162	0.524689	-9.24683e-06
563.062	0.524689	-5.06592e-06
563.922	-0.697754	-0.0124756
564.802	0.524567	-8.27026e-06
565.702	0.524567	-5.37109e-06
566.562	-0.697968	-0.00661865
567.442	0.524597	-9.00269e-06
568.342	0.524628	-6.56128e-06
569.222	0.00101929	0.00891418
570.082	0.524628	-8.75854e-06
570.982	0.524658	-6.80542e-06
571.862	0.00128174	0.00209747
572.722	0.524628	-9.15527e-06
573.622	0.524628	-7.84302e-06
574.522	0.524628	0.000211578
575.362	0.524658	-8.81958e-06
576.262	0.524658	-7.2937e-06
577.162	0.524597	2.38953e-05
578.002	0.524628	-9.73511e-06
578.902	0.524658	-8.14819e-06
579.802	0.524628	7.53784e-06
580.642	0.524628	-9.765625E-06
581.542	0.524597	-7.69043e-06
582.442	0.524658	1.15967e-06
583.282	0.524628	-9.15527e-06
584.182	0.524658	-7.99561e-06
585.082	0.524658	-1.64795e-06
585.922	0.524628	-9.33838e-06
586.822	0.524628	-8.66699e-06
587.722	0.524658	-3.96729e-06
588.562	0.524658	-8.75854e-06
589.462	0.524628	-8.3313e-06
590.362	0.524689	-4.66919e-06
591.222	-0.697693	-0.0128326
592.102	0.524597	-8.78906e-06
593.002	0.524658	-5.27954e-06
593.862	-0.697937	-0.00685669
594.742	0.524689	-8.3313e-06
595.642	0.524628	-6.37817e-06
596.522	0.000961304	0.00906372
597.382	0.524628	-7.93457e-06
598.282	0.524628	-6.50024e-06
599.162	0.00125427	0.00234558
600.022	0.524628	-9.61304e-06
600.922	0.524689	-6.31714e-06
601.822	0.524658	0.000245758
602.662	0.524597	-8.36182e-06
603.562	0.524597	-7.69043e-06
604.462	0.524628	2.54822e-05
605.302	0.524658	-8.27026e-06
606.202	0.524689	-7.56836e-06
607.102	0.524689	7.50732e-06
607.942	0.524628	-9.3689e-06
608.842	0.524658	-7.23267e-06
609.742	0.524597	2.04468e-06
610.582	0.524628	-9.15527e-06
611.482	0.524628	-8.17871e-06
612.382	0.524689	-1.83105e-06
613.222	0.524658	-9.42993e-06
614.122	0.524658	-7.35474e-06
615.022	0.524628	-2.74658e-06
615.862	0.524658	-9.00269e-06
616.762	0.524628	-7.56836e-06
617.662	0.524597	-4.79126e-06
618.522	-0.697723	-0.0131714
619.402	0.524628	-8.20923e-06
620.302	0.524658	-5.15747e-06
621.162	-0.697968	-0.00708893
622.042	0.524628	-8.69751e-06
622.942	0.524689	-6.28662e-06
623.822	0.000961304	0.00917969
624.682	0.524658	-9.09424e-06
625.582	0.524628	-6.68335e-06
626.462	0.00123596	0.00258118
627.322	0.524628	-8.48389e-06
628.222	0.524628	-6.43921e-06
629.122	0.524658	0.000288025
629.962	0.524628	-9.0332e-06
630.862	0.524628	-7.32422e-06
631.762	0.524628	2.83203e-05
632.602	0.524658	-8.66699e-06
633.502	0.524719	-6.95801e-06
634.402	0.524658	9.27734e-06
635.242	0.524658	-8.78906e-06
636.142	0.524628	-7.1106e-06
637.042	0.524628	2.74658e-06
637.882	0.524628	-9.06372e-06
638.782	0.524689	-7.01904e-06
639.682	0.524506	-9.46045e-07
640.522	0.524597	-9.39941e-06
641.422	0.524597	-7.99561e-06
642.322	0.524658	-3.32642e-06
643.162	0.524628	-9.552e-06
644.062	0.524689	-7.84302e-06
644.962	0.524628	-4.18091e-06
645.822	-0.697723	-0.0134766
646.702	0.524658	-8.27026e-06
647.602	0.524689	-5.34058e-06
648.462	-0.697937	-0.0073172
649.342	0.524597	-8.36182e-06
650.242	0.524658	-5.88989e-06
651.122	0.00100708	0.00928345
651.982	0.524567	-8.42285e-06
652.882	0.524628	-5.67627e-06
653.762	0.00128479	0.00280548
654.622	0.524658	-9.06372e-06
655.522	0.524628	-6.86646e-06
656.422	0.524689	0.0003414
657.262	0.524628	-7.8125e-06
658.162	0.524658	-7.01904e-06
659.062	0.524628	3.07617e-05
659.902	0.524628	-8.66699e-06
660.802	0.524628	-7.08008e-06
661.702	0.524567	1.05591e-05
662.542	0.524628	-8.72803e-06
663.442	0.524719	-7.38525e-06
664.342	0.524628	3.60107e-06
665.182	0.524597	-8.42285e-06
666.082	0.524597	-7.53784e-06
666.982	0.524628	-1.25122e-06
667.822	0.524628	-8.69751e-06
668.722	0.524628	-7.59888e-06
669.622	0.524567	-2.83813e-06
670.462	0.524628	-9.73511e-06
671.362	0.524597	-8.17871e-06
672.262	0.524689	-4.30298e-06
673.122	-0.697662	-0.0137909
674.002	0.524658	-8.17871e-06
674.902	0.524658	-4.48608e-06
675.762	-0.697968	-0.0075531
676.642	0.524719	-8.08716e-06
677.542	0.524689	-6.19507e-06
678.422	0.00101624	0.009375
679.282	0.524536	-7.90405e-06
680.182	0.524658	-6.19507e-06
681.062	0.00124817	0.00302094
681.922	0.524628	-7.78198e-06
682.822	0.524628	-6.43921e-06
683.722	0.524658	0.00040686
684.562	0.524628	-9.00269e-06
685.462	0.524628	-7.26318e-06
686.362	0.524597	3.39966e-05
687.202	0.524689	-8.66699e-06
688.102	0.524719	-7.99561e-06
689.002	0.524597	1.18408e-05
689.842	0.524628	-8.60596e-06
690.742	0.524597	-7.84302e-06
691.642	0.524567	3.93677e-06
692.482	0.524658	-7.99561e-06
693.382	0.524658	-7.72095e-06
694.282	0.524658	3.66211e-07
695.122	0.524658	-8.57544e-06
696.022	0.524658	-7.53784e-06
696.922	0.524628	-2.89917e-06
697.762	0.524658	-8.72803e-06
698.662	0.524658	-8.05664e-06
699.562	0.524628	-4.11987e-06
700.422	-0.697632	-0.0140686
701.302	0.524628	-6.7749e-06
702.202	0.524628	-5.46265e-06
703.062	-0.697998	-0.00778198
703.942	0.524628	-7.8125e-06
704.842	0.524628	-5.21851e-06
705.722	0.000958252	0.00944519
706.582	0.524628	-8.48389e-06
707.482	0.524658	-5.88989e-06
708.362	0.00125427	0.00321991
709.222	0.524658	-8.81958e-06
710.122	0.524658	-6.40869e-06
711.022	0.524658	0.000495911
711.862	0.524658	-7.90405e-06
712.762	0.524628	-6.65283e-06
713.662	0.524628	3.64685e-05
714.502	0.524689	-7.90405e-06
715.402	0.52475	-7.47681e-06
716.302	0.524628	1.34277e-05
717.142	0.524628	-8.14819e-06
718.042	0.524628	-6.86646e-06
718.942	0.524628	3.54004e-06
719.782	0.524658	-7.17163e-06
720.682	0.524658	-7.56836e-06
721.582	0.524628	7.93457e-07
722.422	0.524597	-7.90405e-06
723.322	0.524628	-8.11768e-06
724.222	0.524597	-1.92261e-06
725.062	0.524597	-9.3689e-06
725.962	0.524689	-8.42285e-06
726.862	0.524658	-3.08228e-06
727.722	-0.697601	-0.0143372
728.602	0.524658	-7.84302e-06
729.502	0.524597	-4.27246e-06
730.362	-0.697968	-0.00799866
731.242	0.524689	-7.99561e-06
732.142	0.524628	-5.34058e-06
733.022	0.000961304	0.00949707
733.882	0.524658	-8.8501e-06
734.782	0.524597	-5.31006e-06
735.662	0.00120239	0.00341034
736.522	0.524506	-7.8125e-06
737.422	0.524628	-6.53076e-06
738.322	0.52475	0.000589294
739.162	0.524689	-8.14819e-06
740.062	0.524597	-6.62231e-06
740.962	0.524628	3.97949e-05
741.802	0.524689	-8.39233e-06
742.702	0.524567	-7.20215e-06
743.602	0.524658	1.51978e-05
744.442	0.524628	-8.8501e-06
745.342	0.524689	-7.59888e-06
746.242	0.524658	5.76782e-06
747.082	0.524658	-7.72095e-06
747.982	0.524658	-7.14111e-06
748.882	0.524658	1.25122e-06
749.722	0.524597	-7.8125e-06
750.622	0.524658	-7.96509e-06
751.522	0.524658	-2.01416e-06
752.362	0.524658	-7.84302e-06
753.262	0.524567	-6.98853e-06
754.162	0.524658	-3.9978e-06
755.022	-0.697601	-0.014566
755.902	0.524658	-7.84302e-06
756.802	0.524628	-3.72314e-06
757.662	-0.697968	-0.008203125
758.542	0.524597	-8.36182e-06
759.442	0.524628	-5.37109e-06
760.322	0.00101624	0.0095459
761.182	0.524658	-8.02612e-06
762.082	0.524567	-5.31006e-06
762.962	0.00124817	0.00357391
763.822	0.524628	-8.11768e-06
764.722	0.524689	-6.7749e-06
765.622	0.524689	0.000762939
766.462	0.524597	-8.23975e-06
767.362	0.524597	-6.74438e-06
768.262	0.524658	4.34265e-05
769.102	0.524597	-8.97217e-06
770.002	0.524597	-7.41577e-06
770.902	0.524658	1.60522e-05
771.742	0.524628	-8.39233e-06
772.642	0.524658	-7.23267e-06
773.542	0.524597	6.16455e-06
774.382	0.524689	-8.57544e-06
775.282	0.524567	-6.5918e-06
776.182	0.524567	2.50244e-06
777.022	0.524658	-8.36182e-06
777.922	0.524658	-8.3313e-06
778.822	0.524658	-1.28174e-06
779.662	0.524658	-8.42285e-06
780.562	0.524597	-7.69043e-06
781.462	0.524658	-2.56348e-06
782.322	-0.697601	-0.0148315
783.202	0.524597	-7.47681e-06
784.102	0.524628	-4.02832e-06
784.962	-0.697937	-0.0084259
785.842	0.524658	-8.05664e-06
786.742	0.524628	-4.88281e-06
787.622	0.000973511	0.00957947
788.482	0.524689	-8.14819e-06
789.382	0.524597	-5.85937e-06
790.262	0.00122375	0.00373901
791.122	0.524658	-8.48389e-06
792.022	0.524689	-6.10352e-06
792.922	0.524841	0.00103577
793.762	0.524658	-8.60596e-06
794.662	0.524658	-6.40869e-06
795.562	0.524658	4.62952e-05
796.402	0.524658	-8.30078e-06
797.302	0.524597	-7.50732e-06
798.202	0.524628	1.79443e-05
799.042	0.524658	-8.23975e-06
799.942	0.524658	-7.72095e-06
800.842	0.524628	8.20923e-06
801.682	0.524658	-9.24683e-06
802.582	0.524567	-7.75146e-06
803.483	0.524658	2.65503e-06
804.323	0.524628	-8.3313e-06
805.223	0.524628	-7.53784e-06
806.123	0.524567	1.52588e-07
806.963	0.524689	-8.02612e-06
807.863	0.524689	-7.8125e-06
808.763	0.524658	-2.19727e-06
809.623	-0.697601	-0.0150635
810.503	0.524628	-7.75146e-06
811.403	0.524597	-3.60107e-06
812.263	-0.697906	-0.00863953
813.143	0.524658	-8.39233e-06
814.043	0.524628	-4.48608e-06
814.923	0.00100098	0.00960083
815.783	0.524628	-8.69751e-06
816.683	0.524689	-5.43213e-06
817.563	0.00117798	0.00388123
818.423	0.524658	-8.20923e-06
819.323	0.524567	-5.43213e-06
820.223	0.524872	0.00164032
821.063	0.524628	-8.42285e-06
821.963	0.524597	-6.68335e-06
822.863	0.524658	5.10864e-05
823.703	0.524628	-8.8501e-06
824.603	0.524628	-6.80542e-06
825.503	0.524628	2.02637e-05
826.343	0.524628	-9.12476e-06
827.243	0.524658	-7.26318e-06
828.143	0.524597	9.15527e-06
828.983	0.524689	-8.88062e-06
829.883	0.524628	-6.56128e-06
830.783	0.524597	4.11987e-06
831.623	0.524597	-8.3313e-06
832.523	0.524689	-7.72095e-06
833.423	0.524597	7.32422e-07
834.263	0.524628	-8.11768e-06
835.163	0.524658	-7.14111e-06
836.063	0.524658	-1.34277e-06
836.923	-0.697632	-0.0153015
837.803	0.524597	-7.50732e-06
838.703	0.524628	-2.74658e-06
839.563	-0.697906	-0.00884705
840.443	0.524628	-8.97217e-06
841.343	0.524597	-3.479e-06
842.223	0.00098877	0.00960693
843.083	0.524628	-8.81958e-06
843.983	0.524628	-4.30298e-06
844.863	0.0012085	0.0040155
845.723	0.524658	-7.59888e-06
846.623	0.524628	-4.3335e-06
847.523	0.525146	0.00350555
848.363	0.524597	-8.14819e-06
849.263	0.524658	-5.5542e-06
850.163	0.524628	5.4657e-05
851.003	0.524628	-8.57544e-06
851.903	0.524658	-6.16455e-06
852.803	0.524658	2.10571e-05
853.643	0.524658	-8.97217e-06
854.543	0.524628	-6.98853e-06
855.443	0.524658	1.02844e-05
856.283	0.524658	-8.11768e-06
857.183	0.524628	-6.43921e-06
858.083	0.524658	4.60815e-06
858.923	0.524658	-8.27026e-06
859.823	0.524597	-7.44629e-06
860.723	0.524628	7.01904e-07
861.563	0.524628	-9.552e-06
862.463	0.524689	-7.87354e-06
863.363	0.524689	-8.54492e-07
864.223	-0.69751	-0.0155334
865.103	0.524628	-7.75146e-06
866.003	0.524597	-2.10571e-06
866.863	-0.697906	-0.00906067
867.743	0.524658	-8.08716e-06
868.643	0.524628	-4.42505e-06
869.523	0.000964355	0.00962219
870.383	0.524689	-7.41577e-06
871.283	0.524658	-4.05884e-06
872.163	0.00119934	0.00414246
873.023	0.524628	-8.54492e-06
873.923	0.524658	-4.54712e-06
874.823	0.52478	0.00585236
875.663	0.524628	-8.78906e-06
876.563	0.524628	-6.04248e-06
877.463	0.524689	5.82886e-05
878.303	0.524658	-9.21631e-06
879.203	0.52475	-6.01196e-06
880.103	0.524597	2.20642e-05
880.943	0.524658	-8.54492e-06
881.843	0.524628	-6.31714e-06
882.743	0.524597	1.0437e-05
883.583	0.524628	-8.3313e-06
884.483	0.524597	-6.22559e-06
885.383	0.524597	5.85937e-06
886.223	0.524658	-8.60596e-06
887.123	0.524658	-6.68335e-06
888.023	0.524628	6.10352e-07
888.863	0.524597	-8.97217e-06
889.763	0.524689	-7.2937e-06
890.663	0.524658	-6.10352e-07
891.523	-0.697571	-0.0157654
892.403	0.524567	-7.78198e-06
893.303	0.524658	-3.08228e-06
894.163	-0.697937	-0.00926819
895.043	0.524628	-7.87354e-06
895.943	0.524719	-2.89917e-06
896.823	0.000970459	0.00962524
897.683	0.524658	-8.57544e-06
898.583	0.524658	-3.78418e-06
899.463	0.0012146	0.00425598
900.323	0.524658	-7.75146e-06
901.223	0.524658	-4.79126e-06
902.123	0.524628	0.00694641
902.963	0.524658	-8.08716e-06
903.863	0.524628	-5.43213e-06
904.763	0.524567	6.17676e-05
905.603	0.524628	-8.63647e-06
906.503	0.524597	-5.88989e-06
907.403	0.524628	2.40173e-05
908.243	0.524628	-7.93457e-06
909.143	0.524628	-6.10352e-06
910.043	0.524628	1.14441e-05
910.883	0.524658	-7.99561e-06
911.783	0.524628	-6.04248e-06
912.683	0.524597	5.82886e-06
913.523	0.524658	-7.96509e-06
914.423	0.524658	-7.04956e-06
915.323	0.524628	1.64795e-06
916.163	0.524658	-8.57544e-06
917.063	0.524628	-7.04956e-06
917.963	0.524658	-1.52588e-07
918.823	-0.69751	-0.0159698
919.703	0.524597	-7.41577e-06
920.603	0.524567	-1.83105e-06
921.463	-0.697876	-0.0094574
922.343	0.524628	-7.41577e-06
923.243	0.524689	-2.04468e-06
924.123	0.000939941	0.00961609
924.983	0.524689	-6.89697e-06
925.883	0.524658	-3.96729e-06
926.763	0.00122375	0.00435883
927.623	0.524689	-7.59888e-06
928.523	0.524628	-4.66919e-06
929.423	0.524445	0.0076355
930.263	0.524658	-7.84302e-06
931.163	0.524628	-4.69971e-06
932.063	0.524628	6.56128e-05
932.903	0.524658	-8.17871e-06
933.803	0.524658	-4.63867e-06
934.703	0.524658	2.51465e-05
935.543	0.524597	-8.66699e-06
936.443	0.524689	-5.98145e-06
937.343	0.524658	1.25732e-05
938.183	0.524628	-7.90405e-06
939.083	0.524628	-6.073e-06
939.983	0.524658	6.16455e-06
940.823	0.524567	-8.02612e-06
941.723	0.524689	-6.19507e-06
942.623	0.524658	2.22778e-06
943.463	0.524628	-9.12476e-06
944.363	0.524567	-6.7749e-06
945.263	0.524567	0
946.123	-0.69751	-0.0161804
947.003	0.524628	-7.08008e-06
947.903	0.524658	-1.46484e-06
948.763	-0.697906	-0.00965576
949.643	0.524719	-7.14111e-06
950.543	0.524628	-3.11279e-06
951.423	0.000979614	0.00960999
952.283	0.524628	-7.44629e-06
953.183	0.524628	-4.05884e-06
954.063	0.00120239	0.00445496
954.923	0.524628	-6.95801e-06
955.823	0.524628	-4.27246e-06
956.723	0.524384	0.00819397
957.563	0.524597	-7.59888e-06
958.463	0.524658	-5.24902e-06
959.363	0.524597	7.01904e-05
960.203	0.524597	-7.72095e-06
961.103	0.524628	-6.28662e-06
962.003	0.524597	2.71606e-05
962.843	0.524658	-7.56836e-06
963.743	0.524628	-6.16455e-06
964.643	0.524658	1.28174e-05
965.483	0.524628	-7.99561e-06
966.383	0.524658	-6.74438e-06
967.283	0.524658	5.95093e-06
968.123	0.524658	-8.02612e-06
969.023	0.524658	-5.79834e-06
969.923	0.524628	2.59399e-06
970.763	0.524628	-7.99561e-06
971.663	0.524658	-6.83594e-06
972.563	0.524628	3.66211e-07
973.423	-0.69754	-0.0163849
974.303	0.524628	-7.17163e-06
975.203	0.524628	-1.49536e-06
976.063	-0.697784	-0.00984192
976.943	0.524689	-7.65991e-06
977.843	0.524689	-2.56348e-06
978.723	0.000912476	0.00959473
979.583	0.524658	-7.65991e-06
980.483	0.524658	-3.63159e-06
981.363	0.00119934	0.00453949
982.223	0.524658	-6.68335e-06
983.123	0.524658	-3.96729e-06
984.023	0.524384	0.00865479
984.863	0.524689	-7.1106e-06
985.763	0.524628	-4.94385e-06
986.663	0.524506	7.50122e-05
987.503	0.524628	-8.5144e-06
988.403	0.524597	-5.7373e-06
989.303	0.524628	2.91138e-05
990.143	0.524628	-7.20215e-06
991.043	0.524628	-5.64575e-06
991.943	0.524658	1.48315e-05
992.783	0.524628	-8.5144e-06
993.683	0.524628	-6.2561e-06
994.583	0.524628	6.80542e-06
995.423	0.524567	-8.36182e-06
996.323	0.524628	-4.88281e-06
997.223	0.524597	2.74658e-06
998.063	0.524536	-7.20215e-06
998.963	0.524628	-5.70679e-06
999.863	0.524628	1.46484e-06
1000.72	-0.697571	-0.0165771
1001.6	0.524628	-6.46973e-06
1002.5	0.524628	-1.00708e-06
1003.36	-0.697906	-0.010022
1004.24	0.524658	-7.1106e-06
1005.14	0.524658	-2.74658e-06
1006.02	0.000942993	0.00956726
1006.88	0.524658	-7.38525e-06
1007.78	0.524628	-3.14331e-06
1008.66	0.00119934	0.00461761
1009.52	0.524658	-8.27026e-06
1010.42	0.524567	-3.23486e-06
1011.32	0.524323	0.00906677
1012.16	0.524597	-7.17163e-06
1013.06	0.524658	-4.66919e-06
1013.96	0.524628	8.0719e-05
1014.8	0.524658	-7.84302e-06
1015.7	0.524597	-5.31006e-06
1016.6	0.524567	3.05481e-05
1017.44	0.524628	-7.90405e-06
1018.34	0.524689	-5.43213e-06
1019.24	0.524567	1.5564e-05
1020.08	0.524628	-7.44629e-06
1020.98	0.524628	-5.58472e-06
1021.88	0.524658	8.02612e-06
1022.72	0.524597	-7.26318e-06
1023.62	0.524628	-6.62231e-06
1024.52	0.524658	2.99072e-06
1025.36	0.524658	-7.90405e-06
1026.26	0.524628	-7.47681e-06
1027.16	0.524689	1.2207e-06
1028.02	-0.697418	-0.0167664
1028.9	0.524689	-6.7749e-06
1029.8	0.524628	-7.62939e-07
1030.66	-0.697845	-0.010202
1031.54	0.524597	-6.5918e-06
1032.44	0.524628	-2.62451e-06
1033.32	0.000915527	0.00953979
1034.18	0.524719	-7.38525e-06
1035.08	0.524597	-3.78418e-06
1035.96	0.00118713	0.00468475
1036.82	0.524658	-7.59888e-06
1037.72	0.524658	-4.02832e-06
1038.62	0.524261	0.00942688
1039.46	0.524628	-7.84302e-06
1040.36	0.524628	-5.31006e-06
1041.26	0.524689	8.63647e-05
1042.1	0.524658	-7.56836e-06
1043	0.524658	-6.10352e-06
1043.9	0.524628	3.21045e-05
1044.74	0.524689	-7.01904e-06
1045.64	0.524628	-5.34058e-06
1046.54	0.524628	1.69373e-05
1047.38	0.524597	-7.8125e-06
1048.28	0.524658	-5.92041e-06
1049.18	0.524628	8.48389e-06
1050.02	0.524628	-6.95801e-06
1050.92	0.524689	-6.34766e-06
1051.82	0.524597	4.54712e-06
1052.66	0.524658	-8.08716e-06
1053.56	0.524658	-6.7749e-06
1054.46	0.524689	1.40381e-06
1055.32	-0.697449	-0.0169617
1056.2	0.524689	-6.2561e-06
1057.1	0.524628	1.83105e-07
1057.96	-0.697815	-0.010376
1058.84	0.524567	-6.71387e-06
1059.74	0.524658	-2.62451e-06
1060.62	0.000921631	0.00950623
1061.48	0.524628	-6.68335e-06
1062.38	0.524689	-3.50952e-06
1063.26	0.00120239	0.00474365
1064.12	0.524628	-7.56836e-06
1065.02	0.524597	-4.21143e-06
1065.92	0.524261	0.00975037
1066.76	0.524658	-7.69043e-06
1067.66	0.524689	-4.97437e-06
1068.56	0.524628	9.198e-05
1069.4	0.524689	-7.62939e-06
1070.3	0.524567	-5.76782e-06
1071.2	0.524567	3.43933e-05
1072.04	0.524658	-7.01904e-06
1072.94	0.524597	-6.073e-06
1073.84	0.524628	1.77307e-05
1074.68	0.524597	-7.20215e-06
1075.58	0.524628	-6.28662e-06
1076.48	0.524628	9.24683e-06
1077.32	0.524628	-7.20215e-06
1078.22	0.524597	-4.76074e-06
1079.12	0.524597	5.12695e-06
1079.96	0.524597	-8.20923e-06
1080.86	0.524628	-6.10352e-06
1081.76	0.524628	1.40381e-06
1082.62	-0.697479	-0.0171509
1083.5	0.524628	-6.2561e-06
1084.4	0.524658	2.44141e-07
1085.26	-0.697815	-0.0105499
1086.14	0.524597	-6.46973e-06
1087.04	0.524658	-2.0752e-06
1087.92	0.000949097	0.00948486
1088.78	0.524689	-7.38525e-06
1089.68	0.524628	-2.80762e-06
1090.56	0.00120239	0.00480072
1091.42	0.524658	-7.14111e-06
1092.32	0.524597	-3.26538e-06
1093.22	0.524292	0.0100525
1094.06	0.524628	-7.59888e-06
1094.96	0.524628	-4.73022e-06
1095.86	0.524658	9.82666e-05
1096.7	0.524628	-7.2937e-06
1097.6	0.524567	-4.48608e-06
1098.5	0.524689	3.54309e-05
1099.34	0.524658	-7.93457e-06
1100.24	0.524628	-6.28662e-06
1101.14	0.524658	1.84021e-05
1101.98	0.524658	-7.50732e-06
1102.88	0.524628	-5.7373e-06
1103.78	0.524658	1.0437e-05
1104.62	0.524597	-8.23975e-06
1105.52	0.524628	-6.34766e-06
1106.42	0.524658	4.63867e-06
1107.26	0.524628	-8.02612e-06
1108.16	0.524597	-6.62231e-06
1109.06	0.524628	2.80762e-06
1109.92	-0.69751	-0.0173279
1110.8	0.524628	-7.38525e-06
1111.7	0.524628	4.88281e-07
1112.56	-0.697815	-0.0107239
1113.44	0.524658	-7.59888e-06
1114.34	0.524689	-1.64795e-06
1115.22	0.000930786	0.00943604
1116.08	0.524628	-7.65991e-06
1116.98	0.524689	-2.2583e-06
1117.86	0.00119019	0.00484894
1118.72	0.524628	-7.62939e-06
1119.62	0.524658	-4.08936e-06
1120.52	0.524231	0.0103333
1121.36	0.524567	-7.8125e-06
1122.26	0.524658	-4.18091e-06
1123.16	0.524597	0.000106964
1124	0.524597	-7.26318e-06
1124.9	0.524628	-4.91333e-06
1125.8	0.524597	3.85132e-05
1126.64	0.524628	-7.84302e-06
1127.54	0.524658	-5.12695e-06
1128.44	0.524628	1.84631e-05
1129.28	0.524658	-7.84302e-06
1130.18	0.524628	-5.12695e-06
1131.08	0.524597	1.08337e-05
1131.92	0.524597	-7.53784e-06
1132.82	0.524658	-6.28662e-06
1133.72	0.524658	6.34766e-06
1134.56	0.524658	-7.75146e-06
1135.46	0.524628	-6.01196e-06
1136.36	0.524628	2.38037e-06
1137.22	-0.697388	-0.017511
1138.1	0.524658	-7.08008e-06
1139	0.524658	1.15967e-06
1139.86	-0.697754	-0.0108826
1140.74	0.524567	-6.31714e-06
1141.64	0.524628	-4.57764e-07
1142.52	0.000930786	0.00941162
1143.38	0.524597	-7.41577e-06
1144.28	0.524628	-2.56348e-06
1145.16	0.00120544	0.00489624
1146.02	0.524658	-6.65283e-06
1146.92	0.524658	-2.38037e-06
1147.82	0.524261	0.0105988
1148.66	0.524597	-7.59888e-06
1149.56	0.524658	-2.96021e-06
1150.46	0.524658	0.000112549
1151.3	0.524658	-7.38525e-06
1152.2	0.524628	-3.78418e-06
1153.1	0.524597	3.96423e-05
1153.94	0.524597	-6.74438e-06
1154.84	0.524628	-5.46265e-06
1155.74	0.524597	2.11182e-05
1156.58	0.524628	-8.5144e-06
1157.48	0.524689	-5.7373e-06
1158.38	0.524689	1.23901e-05
1159.22	0.524597	-7.78198e-06
1160.12	0.524658	-6.19507e-06
1161.02	0.524597	6.98853e-06
1161.86	0.524597	-7.59888e-06
1162.76	0.524597	-6.10352e-06
1163.66	0.524658	3.63159e-06
1164.52	-0.697479	-0.0176849
1165.4	0.524658	-6.86646e-06
1166.3	0.524658	8.54492e-07
1167.16	-0.697754	-0.0110443
1168.04	0.524628	-7.78198e-06
1168.94	0.524628	-5.49316e-07
1169.82	0.000933838	0.00935364
1170.68	0.524628	-7.56836e-06
1171.58	0.524658	-1.52588e-06
1172.46	0.00117493	0.00493073
1173.32	0.524628	-7.90405e-06
1174.22	0.524658	-3.2959e-06
1175.12	0.524261	0.0108368
1175.96	0.524658	-7.62939e-06
1176.86	0.524689	-3.96729e-06
1177.76	0.524628	0.00012027
1178.6	0.524628	-7.2937e-06
1179.5	0.524658	-4.08936e-06
1180.4	0.524597	4.06799e-05
1181.24	0.524628	-7.2937e-06
1182.14	0.524689	-5.85937e-06
1183.04	0.524597	2.02942e-05
1183.88	0.524597	-7.04956e-06
1184.78	0.524628	-5.24902e-06
1185.68	0.524597	1.17798e-05
1186.52	0.524658	-7.47681e-06
1187.42	0.524628	-5.76782e-06
1188.32	0.524658	6.16455e-06
1189.16	0.524628	-8.63647e-06
1190.06	0.524658	-5.5542e-06
1190.96	0.524628	3.41797e-06
1191.82	-0.697418	-0.0178497
1192.7	0.524658	-6.34766e-06
1193.6	0.524658	1.43433e-06
1194.46	-0.697754	-0.0111938
1195.34	0.524628	-5.58472e-06
1196.24	0.524658	-1.83105e-07
1197.12	0.00093689	0.00930481
1197.98	0.524689	-7.41577e-06
1198.88	0.524658	-2.56348e-06
1199.76	0.0012085	0.0049649
1200.62	0.524689	-7.41577e-06
1201.52	0.524597	-2.34985e-06
1202.42	0.524231	0.0110687
1203.26	0.524658	-7.32422e-06
1204.16	0.524597	-2.7771e-06
1205.06	0.524628	0.000128754
1205.9	0.524628	-7.41577e-06
1206.8	0.524689	-4.42505e-06
1207.7	0.524628	4.29688e-05
1208.54	0.524597	-7.47681e-06
1209.44	0.524658	-5.00488e-06
1210.34	0.524658	2.21252e-05
1211.18	0.524658	-7.14111e-06
1212.08	0.524628	-4.39453e-06
1212.98	0.524689	1.19019e-05
1213.82	0.524597	-7.32422e-06
1214.72	0.524628	-5.79834e-06
1215.62	0.524628	7.50732e-06
1216.46	0.524597	-8.08716e-06
1217.36	0.524597	-6.10352e-06
1218.26	0.524628	4.11987e-06
1219.12	-0.697357	-0.0180267
1220	0.524628	-5.21851e-06
1220.9	0.524689	2.0752e-06
1221.76	-0.697876	-0.0113739
1222.64	0.524597	-6.53076e-06
1223.54	0.524628	-2.13623e-07
1224.42	0.000921631	0.00927429
1225.28	0.524628	-5.52368e-06
1226.18	0.524597	-1.0376e-06
1227.06	0.00119019	0.00500519
1227.92	0.524597	-6.50024e-06
1228.82	0.524628	-2.01416e-06
1229.72	0.524139	0.0112793
1230.56	0.524658	-7.84302e-06
1231.46	0.524628	-2.92969e-06
1232.36	0.524628	0.000135803
1233.2	0.524567	-6.86646e-06
1234.1	0.524658	-3.8147e-06
1235	0.524597	4.42505e-05
1235.84	0.524597	-7.23267e-06
1236.74	0.524628	-3.93677e-06
1237.64	0.524597	2.29492e-05
1238.48	0.524628	-7.72095e-06
1239.38	0.524628	-4.63867e-06
1240.28	0.524628	1.32446e-05
1241.12	0.524689	-7.78198e-06
1242.02	0.524628	-5.24902e-06
1242.92	0.524658	7.69043e-06
1243.76	0.524689	-8.11768e-06
1244.66	0.524658	-5.0354e-06
1245.56	0.524658	4.66919e-06
1246.42	-0.697449	-0.0182007
1247.3	0.524689	-6.073e-06
1248.2	0.524628	1.70898e-06
1249.06	-0.697754	-0.0115204
1249.94	0.524658	-6.83594e-06
1250.84	0.524628	6.10352e-08
1251.72	0.000891113	0.00922546
1252.58	0.524628	-6.50024e-06
1253.48	0.524689	-1.43433e-06
1254.36	0.00121765	0.00503265
1255.22	0.524597	-6.65283e-06
1256.12	0.524658	-2.10571e-06
1257.02	0.52417	0.0114899
1257.86	0.524719	-7.1106e-06
1258.76	0.524658	-3.11279e-06
1259.66	0.524597	0.000146576
1260.5	0.524689	-7.20215e-06
1261.4	0.524658	-2.83813e-06
1262.3	0.524628	4.66919e-05
1263.14	0.524628	-7.8125e-06
1264.04	0.524658	-4.54712e-06
1264.94	0.524597	2.41699e-05
1265.78	0.524536	-6.50024e-06
1266.68	0.524689	-3.87573e-06
1267.58	0.524658	1.41296e-05
1268.42	0.524658	-8.20923e-06
1269.32	0.524597	-4.66919e-06
1270.22	0.524567	7.90405e-06
1271.06	0.524658	-7.69043e-06
1271.96	0.524597	-4.48608e-06
1272.86	0.524689	4.5166e-06
1273.72	-0.697357	-0.0183594
1274.6	0.524628	-5.92041e-06
1275.5	0.524567	1.7395e-06
1276.36	-0.697784	-0.0116608
1277.24	0.524628	-6.86646e-06
1278.14	0.524689	3.35693e-07
1279.02	0.000894165	0.00918884
1279.88	0.524658	-5.24902e-06
1280.78	0.524658	-3.05176e-07
1281.66	0.0012207	0.005065
1282.52	0.524658	-7.1106e-06
1283.42	0.524658	-2.44141e-06
1284.32	0.524109	0.0116821
1285.16	0.524658	-6.34766e-06
1286.06	0.524628	-2.86865e-06
1286.96	0.524597	0.000155396
1287.8	0.524658	-6.40869e-06
1288.7	0.524628	-3.93677e-06
1289.6	0.524567	4.79126e-05
1290.44	0.524658	-7.23267e-06
1291.34	0.524658	-3.78418e-06
1292.24	0.524658	2.56042e-05
1293.08	0.524658	-7.75146e-06
1293.98	0.524597	-4.11987e-06
1294.88	0.524628	1.42212e-05
1295.72	0.524597	-7.1106e-06
1296.62	0.524658	-4.02832e-06
1297.52	0.524719	8.88062e-06
1298.36	0.524689	-7.53784e-06
1299.26	0.524689	-4.85229e-06
1300.16	0.524628	4.42505e-06
1301.02	-0.697357	-0.0185272
1301.9	0.524628	-5.92041e-06
1302.8	0.524689	1.89209e-06
1303.66	-0.697784	-0.0118195
1304.54	0.524658	-5.49316e-06
1305.44	0.524658	9.15527e-08
1306.32	0.000918579	0.00913086
1307.18	0.524536	-4.57764e-06
1308.08	0.524628	-1.25122e-06
1308.96	0.00119324	0.00508362
1309.82	0.524658	-6.89697e-06
1310.72	0.524628	-2.31934e-06
1311.62	0.524109	0.0118652
1312.46	0.524597	-5.70679e-06
1313.36	0.524597	-2.13623e-06
1314.26	0.524658	0.000169495
1315.1	0.524628	-7.35474e-06
1316	0.524628	-3.2959e-06
1316.9	0.524597	4.99268e-05
1317.74	0.524658	-6.46973e-06
1318.64	0.524658	-3.9978e-06
1319.54	0.524597	2.6001e-05
1320.38	0.524658	-7.38525e-06
1321.28	0.524658	-5.09644e-06
1322.18	0.524597	1.48315e-05
1323.02	0.524658	-6.98853e-06
1323.92	0.524689	-4.69971e-06
1324.82	0.524689	9.70459e-06
1325.66	0.524628	-7.04956e-06
1326.56	0.524658	-4.91333e-06
1327.46	0.524628	5.67627e-06
1328.32	-0.697296	-0.0186798
1329.2	0.524658	-5.31006e-06
1330.1	0.524658	1.86157e-06
1330.96	-0.697754	-0.0119659
1331.84	0.524628	-4.76074e-06
1332.74	0.524628	1.15967e-06
1333.62	0.000857544	0.00907288
1334.48	0.524689	-5.79834e-06
1335.38	0.524597	-1.28174e-06
1336.26	0.00116272	0.00509918
1337.12	0.524628	-5.61523e-06
1338.02	0.524597	-2.44141e-06
1338.92	0.524048	0.0120453
1339.76	0.524719	-6.10352e-06
1340.66	0.524689	-3.11279e-06
1341.56	0.524628	0.000182617
1342.4	0.524628	-7.1106e-06
1343.3	0.524689	-3.2959e-06
1344.2	0.524628	5.15442e-05
1345.04	0.524628	-7.53784e-06
1345.94	0.524658	-4.69971e-06
1346.84	0.524658	2.74963e-05
1347.68	0.524658	-7.50732e-06
1348.58	0.524628	-5.0354e-06
1349.48	0.524628	1.6571e-05
1350.32	0.524658	-6.073e-06
1351.22	0.524658	-5.52368e-06
1352.12	0.524597	9.85718e-06
1352.96	0.524658	-7.08008e-06
1353.86	0.524597	-5.12695e-06
1354.76	0.524658	5.24902e-06
1355.62	-0.697327	-0.0187317
1356.5	0.524719	-5.52368e-06
1357.4	0.524628	1.77002e-06
1358.26	-0.697693	-0.01203
1359.14	0.524658	-6.34766e-06
1360.04	0.524628	3.05176e-07
1360.92	0.000930786	0.00905151
1361.78	0.524628	-5.95093e-06
1362.68	0.524567	-1.00708e-06
1363.56	0.00116577	0.00512787
1364.42	0.524658	-6.04248e-06
1365.32	0.524689	-1.43433e-06
1366.22	0.524078	0.0121857
1367.06	0.524658	-6.28662e-06
1367.96	0.524658	-2.2583e-06
1368.86	0.524628	0.000189667
1369.7	0.524658	-7.14111e-06
1370.6	0.524628	-3.50952e-06
1371.5	0.524597	5.44128e-05
1372.34	0.524658	-7.04956e-06
1373.24	0.524628	-4.36401e-06
1374.14	0.524689	2.78931e-05
1374.98	0.524658	-7.53784e-06
1375.88	0.524658	-4.97437e-06
1376.78	0.524597	1.651e-05
1377.62	0.524658	-7.23267e-06
1378.52	0.524628	-5.67627e-06
1379.42	0.524597	1.02844e-05
1380.26	0.524689	-6.56128e-06
1381.16	0.524628	-5.49316e-06
1382.06	0.524658	5.0354e-06
1382.92	-0.697327	-0.0188965
1383.8	0.524597	-6.01196e-06
1384.7	0.524719	2.92969e-06
1385.56	-0.697723	-0.0121887
1386.44	0.524628	-5.31006e-06
1387.34	0.524658	1.19019e-06
1388.22	0.000894165	0.00897827
1389.08	0.524689	-6.04248e-06
1389.98	0.524597	-1.12915e-06
1390.86	0.00120239	0.00513245
1391.72	0.524597	-6.95801e-06
1392.62	0.524658	-2.01416e-06
1393.52	0.524109	0.0123505
1394.36	0.524658	-6.53076e-06
1395.26	0.524628	-2.89917e-06
1396.16	0.524658	0.000206024
1397	0.524658	-6.37817e-06
1397.9	0.524628	-2.65503e-06
1398.8	0.524658	5.64575e-05
1399.64	0.524658	-6.40869e-06
1400.54	0.524597	-3.90625e-06
1401.44	0.524658	2.90222e-05
1402.28	0.524719	-7.44629e-06
1403.18	0.524658	-4.42505e-06
1404.08	0.524628	1.72729e-05
1404.92	0.524658	-7.2937e-06
1405.82	0.524628	-5.31006e-06
1406.72	0.524658	1.15051e-05
1407.56	0.524689	-7.8125e-06
1408.46	0.524689	-6.37817e-06
1409.36	0.524597	6.7749e-06
1410.22	-0.697266	-0.0190521
1411.1	0.524628	-6.22559e-06
1412	0.524689	3.96729e-06
1412.86	-0.697662	-0.0123322
1413.74	0.524658	-5.0354e-06
1414.64	0.524658	6.40869e-07
1415.52	0.000857544	0.00891113
1416.38	0.524628	-5.40161e-06
1417.28	0.524689	-5.18799e-07
1418.16	0.00119019	0.00513062
1419.02	0.524658	-6.13403e-06
1419.92	0.524658	-1.28174e-06
1420.82	0.524078	0.0125092
1421.66	0.524658	-6.37817e-06
1422.56	0.524628	-3.11279e-06
1423.46	0.524597	0.00022467
1424.3	0.524628	-5.92041e-06
1425.2	0.524567	-3.54004e-06
1426.1	0.524628	5.88684e-05
1426.94	0.524658	-6.46973e-06
1427.84	0.524628	-3.9978e-06
1428.74	0.524658	2.96936e-05
1429.58	0.524689	-6.86646e-06
1430.48	0.524658	-3.90625e-06
1431.38	0.524567	1.79749e-05
1432.22	0.524628	-7.47681e-06
1433.12	0.524658	-4.48608e-06
1434.02	0.524719	1.08948e-05
1434.86	0.524628	-7.47681e-06
1435.76	0.524658	-5.64575e-06
1436.66	0.524628	6.83594e-06
1437.52	-0.697296	-0.0192078
1438.4	0.524628	-6.19507e-06
1439.3	0.524628	4.69971e-06
1440.16	-0.697723	-0.0124817
1441.04	0.524689	-5.88989e-06
1441.94	0.524689	2.16675e-06
1442.82	0.000891113	0.00883789
1443.68	0.524597	-6.19507e-06
1444.58	0.524689	5.49316e-07
1445.46	0.00119019	0.00513153
1446.32	0.524628	-6.86646e-06
1447.22	0.524689	-1.43433e-06
1448.12	0.524078	0.0126648
1448.96	0.524628	-6.71387e-06
1449.86	0.524597	-2.19727e-06
1450.76	0.524628	0.000244049
1451.6	0.524658	-6.19507e-06
1452.5	0.524628	-2.34985e-06
1453.4	0.524689	6.1554e-05
1454.24	0.524628	-7.2937e-06
1455.14	0.524658	-3.78418e-06
1456.04	0.524658	3.07617e-05
1456.88	0.524628	-7.38525e-06
1457.78	0.524628	-3.63159e-06
1458.68	0.524597	1.93176e-05
1459.52	0.524658	-6.95801e-06
1460.42	0.524689	-4.76074e-06
1461.32	0.524628	1.20239e-05
1462.16	0.524628	-8.11768e-06
1463.06	0.524628	-5.18799e-06
1463.96	0.524658	7.14111e-06
1464.82	-0.697296	-0.0193542
1465.7	0.524689	-5.98145e-06
1466.6	0.524628	3.72314e-06
1467.46	-0.697662	-0.012616
1468.34	0.524628	-5.24902e-06
1469.24	0.524658	2.41089e-06
1470.12	0.000872803	0.00876465
1470.98	0.524689	-6.04248e-06
1471.88	0.524628	-9.15527e-08
1472.76	0.00115051	0.00513123
1473.62	0.524597	-6.98853e-06
1474.52	0.524597	2.13623e-07
1475.42	0.524048	0.0128021
1476.26	0.524628	-6.16455e-06
1477.16	0.524658	-1.70898e-06
1478.06	0.524628	0.000266541
1478.9	0.524628	-6.86646e-06
1479.8	0.524689	-2.31934e-06
1480.7	0.524597	6.54602e-05
1481.54	0.524628	-7.50732e-06
1481.68	0.524628	-7.2937e-06