File: Edgar/20240605/20240605/LSV_test_20240605_A/LSV_0p25mVps_1
Time (s)	WE(1).Current (A)	WE(1).Potential (V)
61.1085	5.77087e-07	0.998535
61.2061	5.62439e-07	0.995178
61.3038	5.34668e-07	0.993347
61.4014	5.15747e-07	0.990295
61.4991	5.05066e-07	0.986023
61.5967	4.92249e-07	0.985107
61.6944	4.73022e-07	0.982361
61.792	4.49219e-07	0.980835
61.8897	4.40674e-07	0.9765625
61.9874	4.26331e-07	0.975952
62.085	4.12903e-07	0.97229
62.1827	4.07104e-07	0.97168
62.2803	3.96118e-07	0.966797
62.378	3.78723e-07	0.966492
62.4756	3.68347e-07	0.962219
62.5733	3.59497e-07	0.961914
62.671	3.51868e-07	0.956726
62.7686	3.32947e-07	0.957336
62.8663	3.39966e-07	0.954285
62.9639	3.28064e-07	0.952148
63.0616	3.21045e-07	0.948792
63.1592	3.07312e-07	0.94635
63.2569	2.97241e-07	0.944214
63.3545	2.948e-07	0.941162
63.4522	2.84424e-07	0.937805
63.5499	2.81677e-07	0.935364
63.6475	2.78625e-07	0.934448
63.7452	2.6886e-07	0.930176
63.8428	2.62756e-07	0.928345
63.9405	2.54211e-07	0.925598
64.0381	2.5177e-07	0.924683
64.1358	2.4231e-07	0.921631
64.2334	2.5116e-07	0.918274
64.3311	2.46582e-07	0.914917
64.4288	2.29797e-07	0.914917
64.5264	2.23389e-07	0.912781
64.6241	2.19727e-07	0.908508
64.7217	2.19116e-07	0.907898
64.8194	2.12402e-07	0.903931
64.917	2.20947e-07	0.90271
65.0147	2.1759e-07	0.898743
65.1124	2.03552e-07	0.897217
65.21	2.02026e-07	0.895386
65.3077	2.01111e-07	0.892944
65.4053	1.96838e-07	0.888672
65.503	1.87683e-07	0.888672
65.6006	1.98364e-07	0.88501
65.6983	1.96533e-07	0.881958
65.7959	1.87073e-07	0.878296
65.8936	1.83105e-07	0.876465
65.9913	1.79443e-07	0.874329
66.0889	1.78833e-07	0.872192
66.1866	1.7395e-07	0.870361
66.2842	1.78223e-07	0.867615
66.3819	1.84326e-07	0.866699
66.4795	1.73645e-07	0.864258
66.5772	1.69067e-07	0.861511
66.6748	1.67542e-07	0.858154
66.7725	1.67847e-07	0.856018
66.8702	1.58997e-07	0.852661
66.9678	1.6449e-07	0.85144
67.0655	1.76697e-07	0.848999
67.1631	1.58997e-07	0.846863
67.2608	1.57166e-07	0.844727
67.3584	1.53809e-07	0.841064
67.4561	1.49536e-07	0.838623
67.5538	1.47095e-07	0.834656
67.6514	1.48926e-07	0.834045
67.7491	1.57776e-07	0.830383
67.8467	1.51062e-07	0.827942
67.9444	1.4679e-07	0.826416
68.042	1.4679e-07	0.823059
68.1397	1.38855e-07	0.821838
68.2373	1.37634e-07	0.817871
68.335	1.39465e-07	0.816345
68.4327	1.51367e-07	0.814209
68.5303	1.3916e-07	0.811462
68.628	1.36414e-07	0.808716
68.7256	1.42822e-07	0.806885
68.8233	1.34277e-07	0.803528
68.9209	1.26648e-07	0.800781
69.0186	1.34888e-07	0.79834
69.1162	1.42517e-07	0.79834
69.2139	1.34583e-07	0.793457
69.3116	1.2146e-07	0.793457
69.4092	1.28784e-07	0.790405
69.5069	1.27869e-07	0.787964
69.6045	1.19324e-07	0.783997
69.7022	1.24817e-07	0.783081
69.7998	1.33972e-07	0.781555
69.8975	1.27563e-07	0.777283
69.9952	1.20544e-07	0.776367
70.0928	1.19019e-07	0.773621
70.1905	1.12915e-07	0.769043
70.2881	1.18408e-07	0.767822
70.3858	1.14746e-07	0.765991
70.4834	1.26038e-07	0.761719
70.5811	1.16577e-07	0.759277
70.6787	1.07422e-07	0.757446
70.7764	1.16577e-07	0.757141
70.8741	1.11389e-07	0.752563
70.9717	1.06506e-07	0.751404
71.0694	1.12915e-07	0.74823
71.167	1.20239e-07	0.746338
71.2647	1.13525e-07	0.743896
71.3623	1.06812e-07	0.741333
71.46	1.09863e-07	0.737518
71.5576	1.04065e-07	0.736389
71.6553	1.00403e-07	0.734314
71.753	1.00403e-07	0.730103
71.8506	1.12915e-07	0.728821
71.9483	1.05286e-07	0.72522
72.0459	9.91821e-08	0.722687
72.1436	9.94873e-08	0.721832
72.2412	9.64355e-08	0.717743
72.3389	9.49097e-08	0.715179
72.4366	9.91821e-08	0.713989
72.5342	9.82971e-08	0.710571
72.6319	9.1156e-08	0.709229
72.7295	8.39844e-08	0.70639
72.8272	8.11157e-08	0.703125
72.9248	8.13904e-08	0.701996
73.0225	7.66602e-08	0.699188
73.1201	8.28552e-08	0.696075
73.2178	9.21631e-08	0.693481
73.3155	8.61206e-08	0.692383
73.4131	7.34863e-08	0.688293
73.5108	8.13599e-08	0.686218
73.6084	7.53784e-08	0.68512
73.7061	7.01904e-08	0.681427
73.8037	7.18994e-08	0.680328
73.9014	8.51135e-08	0.67807
73.999	8.04443e-08	0.673828
74.0967	7.20825e-08	0.672394
74.1944	7.49512e-08	0.669098
74.292	6.79932e-08	0.66687
74.3897	6.61011e-08	0.664398
74.4873	6.43311e-08	0.662018
74.585	7.66296e-08	0.660645
74.6826	7.91931e-08	0.657043
74.7803	6.72302e-08	0.655975
74.878	6.32019e-08	0.653015
74.9756	6.25305e-08	0.649933
75.0733	6.32629e-08	0.648376
75.1709	5.82581e-08	0.646271
75.2686	7.23267e-08	0.643402
75.3662	6.38428e-08	0.639648
75.4639	6.00586e-08	0.638214
75.5615	6.00281e-08	0.636902
75.6592	5.93262e-08	0.633392
75.7569	5.84412e-08	0.631775
75.8545	5.32227e-08	0.628754
75.9522	6.53076e-08	0.62561
76.0498	6.05774e-08	0.623352
76.1475	5.18188e-08	0.621002
76.2451	5.35583e-08	0.619568
76.3428	5.60913e-08	0.615723
76.4404	5.49011e-08	0.61441
76.5381	4.10767e-08	0.611603
76.6358	5.91431e-08	0.609253
76.7334	5.52368e-08	0.605316
76.8311	4.52576e-08	0.602936
76.9287	4.81567e-08	0.602753
77.0264	4.67834e-08	0.599701
77.124	4.62341e-08	0.597748
77.2217	3.6499e-08	0.595459
77.3194	4.87061e-08	0.592285
77.417	5.15442e-08	0.588593
77.5147	3.90625E-08	0.586792
77.6123	4.00085e-08	0.585419
77.71	3.8269e-08	0.582825
77.8076	4.22668e-08	0.57901
77.9053	3.15247e-08	0.57785
78.0029	4.01611e-08	0.575592
78.1006	4.10461e-08	0.571564
78.1983	3.68652e-08	0.570099
78.2959	3.27759e-08	0.568298
78.3936	3.39661e-08	0.565613
78.4912	3.35999e-08	0.562805
78.5889	2.83508e-08	0.560699
78.6865	3.46069e-08	0.556915
78.7842	3.27759e-08	0.554718
78.8818	2.55432e-08	0.551941
78.9795	2.59094e-08	0.55072
79.0772	2.36206e-08	0.54895
79.1748	2.35291e-08	0.544556
79.2725	2.00806e-08	0.544067
79.3701	2.24915e-08	0.540375
79.4678	2.96631e-08	0.53717
79.5654	2.01416e-08	0.53537
79.6631	1.36414e-08	0.532593
79.7608	1.74255e-08	0.53186
79.8584	1.60522e-08	0.527679
79.9561	5.31006e-09	0.527039
80.0537	1.51672e-08	0.52356
80.1514	1.49841e-08	0.520294
80.249	1.31836e-08	0.518982
80.3467	7.90405e-09	0.515198
80.4443	4.08936e-09	0.514587
80.542	4.73022e-09	0.510437
80.6397	-4.5166e-09	0.509766
80.7373	5.92041e-09	0.507324
80.835	1.42517e-08	0.504547
80.9326	-4.27246e-10	0.502686
81.0303	-5.859375E-09	0.499573
81.1279	-7.1106e-09	0.495789
81.2256	-1.02539e-08	0.493652
81.3232	-1.91956e-08	0.492615
81.4209	-1.61743e-08	0.489258
81.5186	-2.44141e-09	0.487
81.6162	-6.74438e-09	0.485291
81.7139	-1.90735e-08	0.483002
81.8115	-1.93176e-08	0.479614
81.9092	-2.4353e-08	0.476593
82.0068	-2.88696e-08	0.475098
82.1045	-2.85339e-08	0.472137
82.2022	-1.20239e-08	0.470581
82.2998	-1.98975e-08	0.466827
82.3975	-3.20129e-08	0.465668
82.4951	-3.44543e-08	0.461517
82.5928	-3.94897e-08	0.460297
82.6904	-3.81165e-08	0.457336
82.7881	-4.29993e-08	0.455475
82.8857	-3.30505e-08	0.453705
82.9834	-3.57666e-08	0.44989
83.0811	-4.44946e-08	0.448914
83.1787	-4.90417e-08	0.444824
83.2764	-5.31616e-08	0.443634
83.374	-5.08118e-08	0.440216
83.4717	-6.29883e-08	0.437683
83.5693	-5.04761e-08	0.43634
83.667	-4.70581e-08	0.433655
83.7646	-6.3446e-08	0.431702
83.8623	-7.16858e-08	0.429321
83.96	-6.97021e-08	0.425629
84.0576	-7.52869e-08	0.423004
84.1553	-7.9071e-08	0.421875
84.2529	-8.08411e-08	0.418884
84.3506	-6.83289e-08	0.41626
84.4482	-7.47375e-08	0.41394
84.5459	-8.74023e-08	0.412354
84.6436	-9.00879e-08	0.410217
84.7412	-9.60388e-08	0.406097
84.8389	-9.45129e-08	0.405029
84.9365	-1.03149e-07	0.401917
85.0342	-9.00879e-08	0.399994
85.1318	-1.00281e-07	0.39621
85.2295	-1.07544e-07	0.395081
85.3271	-1.16669e-07	0.392639
85.4248	-1.13892e-07	0.388763
85.5225	-1.2442e-07	0.388397
85.6201	-1.27747e-07	0.38382
85.7178	-1.14532e-07	0.381592
85.8154	-1.18622e-07	0.379608
85.9131	-1.29486e-07	0.377472
86.0107	-1.38489e-07	0.375977
86.1084	-1.44989e-07	0.372589
86.206	-1.40869e-07	0.370941
86.3037	-1.56586e-07	0.366974
86.4014	-1.48193e-07	0.364929
86.499	-1.47308e-07	0.36377
86.5967	-1.57593e-07	0.360626
86.6943	-1.68396e-07	0.356995
86.792	-1.70898e-07	0.354797
86.8896	-1.76514e-07	0.352753
86.9873	-1.89606e-07	0.349792
87.085	-1.8634e-07	0.34906
87.1826	-1.7981e-07	0.346527
87.2803	-1.87714e-07	0.344055
87.3779	-1.9574e-07	0.341919
87.4756	-2.06635e-07	0.338898
87.5732	-2.1344e-07	0.335602
87.6709	-2.17987e-07	0.334595
87.7685	-2.25983e-07	0.332153
87.8662	-2.14417e-07	0.328461
87.9639	-2.21313e-07	0.327087
88.0615	-2.39746e-07	0.324188
88.1592	-2.44873e-07	0.322662
88.2568	-2.49603e-07	0.318787
88.3545	-2.56683e-07	0.318054
88.4521	-2.68066e-07	0.313538
88.5498	-2.64343e-07	0.311188
88.6474	-2.68616e-07	0.310028
88.7451	-2.82928e-07	0.306305
88.8428	-2.94861e-07	0.304291
88.9404	-2.98035e-07	0.301483
89.0381	-3.05664e-07	0.299774
89.1357	-3.70483e-07	0.296265
89.2334	-3.5675e-07	0.294983
89.331	-3.60413e-07	0.292908
89.4287	-3.66211e-07	0.290436
89.5264	-3.91846e-07	0.286926
89.624	-4.03748e-07	0.284363
89.7217	-4.15649e-07	0.281342
89.8193	-4.34875e-07	0.280396
89.917	-4.38843e-07	0.276733
90.0146	-4.3335e-07	0.273743
90.1123	-4.47388e-07	0.272644
90.2099	-4.74854e-07	0.269531
90.3076	-4.89502e-07	0.268036
90.4053	-4.99878e-07	0.266144
90.5029	-5.20935e-07	0.26236
90.6006	-5.31311e-07	0.259216
90.6982	-5.26733e-07	0.258636
90.7959	-5.51758e-07	0.254517
90.8935	-5.65796e-07	0.253784
90.9912	-5.91125e-07	0.250275
91.0888	-5.98755e-07	0.247284
91.1865	-6.18896e-07	0.246063
91.2842	-6.52771e-07	0.242645
91.3818	-6.46057e-07	0.239807
91.4795	-6.64368e-07	0.238159
91.5771	-6.83594e-07	0.234985
91.6748	-7.13806e-07	0.233429
91.7724	-7.36084e-07	0.230316
91.8701	-7.48901e-07	0.228821
91.9678	-7.86743e-07	0.22522
92.0654	-7.86133e-07	0.224487
92.1631	-8.06885e-07	0.222168
92.2607	-8.34045e-07	0.217957
92.3584	-8.66089e-07	0.216858
92.456	-8.95996e-07	0.214905
92.5537	-9.07898e-07	0.210754
92.6513	-9.552e-07	0.209595
92.749	-9.56421e-07	0.205811
92.8467	-9.68323e-07	0.203278
92.9443	-1.01196e-06	0.201294
93.042	-1.04004e-06	0.199402
93.1396	-1.08002e-06	0.197632
93.2373	-1.09344e-06	0.1953125
93.3349	-1.13495e-06	0.192108
93.4326	-1.16333e-06	0.190521
93.5302	-1.17615e-06	0.187347
93.6279	-1.21704e-06	0.184784
93.7256	-1.25092e-06	0.1828
93.8232	-1.29791e-06	0.1796875
93.9209	-1.3205e-06	0.178162
94.0185	-1.34796e-06	0.175354
94.1162	-1.40442e-06	0.173676
94.2138	-1.41083e-06	0.169952
94.3115	-1.45782e-06	0.167267
94.4092	-1.49719e-06	0.164703
94.5068	-1.54419e-06	0.163544
94.6045	-1.58752e-06	0.161438
94.7021	-1.61499e-06	0.158722
94.7998	-1.68365e-06	0.15564
94.8974	-1.698e-06	0.152863
94.9951	-1.74316e-06	0.151733
95.0927	-1.79504e-06	0.1492
95.1904	-1.83502e-06	0.146179
95.2881	-1.90338e-06	0.143188
95.3857	-1.93146e-06	0.140472
95.4834	-1.99982e-06	0.13916
95.581	-2.03156e-06	0.135376
95.6787	-2.06696e-06	0.13269
95.7763	-2.1463e-06	0.132141
95.874	-2.18506e-06	0.128326
95.9716	-2.25555e-06	0.126801
96.0693	-2.29004e-06	0.124725
96.167	-2.35352e-06	0.121735
96.2646	-2.42462e-06	0.119263
96.3623	-2.4469e-06	0.117554
96.4599	-2.53479e-06	0.114136
96.5576	-2.58636e-06	0.112671
96.6552	-2.65137e-06	0.110077
96.7529	-2.72339e-06	0.107544
96.8506	-2.77405e-06	0.105499
96.9482	-2.86041e-06	0.103302
97.0459	-2.88574e-06	0.098938
97.1435	-2.97821e-06	0.098175
97.2412	-3.04749e-06	0.0956726
97.3388	-3.74451e-06	0.0918884
97.4365	-3.83911e-06	0.0904541
97.5341	-3.94287e-06	0.0868835
97.6318	-4.04663e-06	0.0848694
97.7295	-4.14734e-06	0.0821533
97.8271	-4.24194e-06	0.0795288
97.9248	-4.36096e-06	0.0762634
98.0224	-4.48914e-06	0.0739136
98.1201	-4.59595e-06	0.0715332
98.2177	-4.71802e-06	0.0697937
98.3154	-4.85229e-06	0.0669556
98.413	-4.96216e-06	0.0660095
98.5107	-5.078125E-06	0.0627747
98.6084	-5.21545e-06	0.0603638
98.706	-5.35889e-06	0.0576477
98.8037	-5.50232e-06	0.0562134
98.9013	-5.6488e-06	0.052002
98.999	-5.78918e-06	0.0501404
99.0966	-5.93872e-06	0.0473389
99.1943	-6.0791e-06	0.0465912
99.292	-6.23169e-06	0.0426361
99.3896	-6.40259e-06	0.0417755
99.4873	-6.57654e-06	0.0391724
99.5849	-6.73828e-06	0.0350067
99.6826	-6.90002e-06	0.0342346
99.7802	-7.09229e-06	0.0312134
99.8779	-7.25708e-06	0.0294342
99.9755	-7.43713e-06	0.0254059
100.073	-7.63855e-06	0.023587
100.171	-7.85217e-06	0.021109
100.269	-8.05359e-06	0.0189392
100.366	-8.24585e-06	0.0162567
100.464	-8.47168e-06	0.014621
100.561	-8.66699e-06	0.0105865
100.659	-8.87756e-06	0.0088623
100.757	-9.11865e-06	0.00705566
100.854	-9.35364e-06	0.0038269
100.952	-9.59778e-06	0.00129089
101.05	-9.83582e-06	-0.0012207
101.147	-1.00952e-05	-0.00270386
101.245	-1.03363e-05	-0.0046936
101.343	-1.05896e-05	-0.00884094
101.44	-1.0849e-05	-0.00947266
101.538	-1.1142e-05	-0.0125671
101.636	-1.14349e-05	-0.0161072
101.733	-1.17249e-05	-0.017038
101.831	-1.20209e-05	-0.0198364
101.929	-1.23352e-05	-0.0224579
102.026	-1.26251e-05	-0.0253082
102.124	-1.29547e-05	-0.0272858
102.222	-1.32996e-05	-0.0291077
102.319	-1.36353e-05	-0.0327911
102.417	-1.3974e-05	-0.0352325
102.515	-1.4325e-05	-0.0380768
102.612	-1.47156e-05	-0.0404083
102.71	-1.50635e-05	-0.0410889
102.808	-1.54449e-05	-0.0450897
102.905	-1.58539e-05	-0.0478271
103.003	-1.62598e-05	-0.0490631
103.101	-1.66809e-05	-0.0512085
103.198	-1.71112e-05	-0.0531311
103.296	-1.75507e-05	-0.0567017
103.394	-1.79932e-05	-0.0597839
103.491	-1.84387e-05	-0.06073
103.589	-1.89209e-05	-0.0649109
103.686	-1.94305e-05	-0.0652771
103.784	-1.99158e-05	-0.0680237
103.882	-2.04285e-05	-0.0718994
103.979	-2.09595e-05	-0.0726013
104.077	-2.14966e-05	-0.0757446
104.175	-2.2052e-05	-0.078949
104.272	-2.26196e-05	-0.0809937
104.37	-2.32239e-05	-0.0823059
104.468	-2.3819e-05	-0.0849304
104.565	-2.44537e-05	-0.0870972
104.663	-2.50854e-05	-0.0895386
104.761	-2.57355e-05	-0.0919495
104.858	-2.63824e-05	-0.0963135
104.956	-2.70782e-05	-0.0967712
105.054	-2.77924e-05	-0.0992432
105.151	-2.85187e-05	-0.102234
105.249	-2.92633e-05	-0.104004
105.347	-3.00201e-05	-0.107056
105.444	-3.08075e-05	-0.109894
105.542	-3.15857e-05	-0.112671
105.64	-3.24066e-05	-0.114929
105.737	-3.32794e-05	-0.118317
105.835	-3.414e-05	-0.119934
105.933	-3.50189e-05	-0.122101
106.03	-3.59161e-05	-0.124756
106.128	-3.68469e-05	-0.126923
106.226	-3.77869e-05	-0.129822
106.323	-3.8736e-05	-0.131958
106.421	-3.9743e-05	-0.135193
106.518	-4.07745e-05	-0.136841
106.616	-4.18182e-05	-0.139221
106.714	-4.28772e-05	-0.141785
106.811	-4.39758e-05	-0.143982
106.909	-4.5105e-05	-0.146423
107.007	-4.62341e-05	-0.150085
107.104	-4.73938e-05	-0.151489
107.202	-4.86145e-05	-0.15509
107.3	-4.98657e-05	-0.156921
107.397	-5.11169e-05	-0.159241
107.495	-5.23987e-05	-0.161285
107.593	-5.37415e-05	-0.163757
107.69	-5.50842e-05	-0.167175
107.788	-5.6488e-05	-0.168457
107.886	-5.79224e-05	-0.171326
107.983	-5.94177e-05	-0.17395
108.081	-6.09131e-05	-0.175873
108.179	-6.24695e-05	-0.178406
108.276	-6.40259e-05	-0.180603
108.374	-6.56128e-05	-0.184204
108.472	-6.72302e-05	-0.18576
108.569	-6.89087e-05	-0.189117
108.667	-7.05566e-05	-0.190399
108.765	-7.22656e-05	-0.192871
108.862	-7.39746e-05	-0.196411
108.96	-7.56836e-05	-0.19809
109.058	-7.74231e-05	-0.201447
109.155	-7.91626e-05	-0.202637
109.253	-8.09937e-05	-0.206268
109.351	-8.27942e-05	-0.207672
109.448	-8.46252e-05	-0.209839
109.546	-8.64868e-05	-0.213684
109.643	-8.83484e-05	-0.215607
109.741	-9.02405e-05	-0.217865
109.839	-9.21631e-05	-0.219696
109.936	-9.41162e-05	-0.223114
110.034	-9.60999e-05	-0.225159
110.132	-9.81445e-05	-0.227356
110.229	-0.000100189	-0.230652
110.327	-0.000102295	-0.232849
110.425	-0.000104431	-0.235046
110.522	-0.000106537	-0.237793
110.62	-0.000108734	-0.240173
110.718	-0.000111023	-0.241394
110.815	-0.000113312	-0.244904
110.913	-0.000115662	-0.24762
111.011	-0.000118042	-0.25
111.108	-0.000120483	-0.252594
111.206	-0.000122955	-0.254883
111.304	-0.000125519	-0.257385
111.401	-0.000128174	-0.258636
111.499	-0.000130829	-0.262268
111.597	-0.000133575	-0.264709
111.694	-0.000136353	-0.266785
111.792	-0.000139252	-0.269226
111.89	-0.00014212	-0.27179
111.987	-0.00014505	-0.274353
112.085	-0.000148132	-0.275696
112.183	-0.000151276	-0.277924
112.28	-0.00015448	-0.281494
112.378	-0.000157806	-0.283356
112.476	-0.000161224	-0.285309
112.573	-0.000164764	-0.28775
112.671	-0.000168365	-0.291534
112.768	-0.00017215	-0.292908
112.866	-0.000176056	-0.295013
112.964	-0.000180023	-0.297455
113.061	-0.000184143	-0.301086
113.159	-0.000188416	-0.303375
113.257	-0.00019281	-0.30545
113.354	-0.000197327	-0.308411
113.452	-0.000201996	-0.310822
113.55	-0.000206909	-0.312622
113.647	-0.000211914	-0.315765
113.745	-0.000217072	-0.318085
113.843	-0.000222351	-0.319397
113.94	-0.000227844	-0.322052
114.038	-0.00023349	-0.32431
114.136	-0.000239319	-0.32724
114.233	-0.000245361	-0.329315
114.331	-0.000251617	-0.332123
114.429	-0.000257996	-0.333923
114.526	-0.000264618	-0.336945
114.624	-0.000271423	-0.339478
114.722	-0.000278412	-0.341278
114.819	-0.000285614	-0.343597
114.917	-0.00029306	-0.347351
115.015	-0.00030069	-0.348297
115.112	-0.000308533	-0.352356
115.21	-0.000316589	-0.354004
115.308	-0.000324829	-0.357208
115.405	-0.000333282	-0.35968
115.503	-0.000341919	-0.361145
115.601	-0.00035083	-0.363617
115.698	-0.000359955	-0.367432
115.796	-0.000369263	-0.368591
115.893	-0.000378845	-0.372192
115.991	-0.000388611	-0.374695
116.089	-0.00039856	-0.377045
116.186	-0.000408813	-0.379242
116.284	-0.000419403	-0.381683
116.382	-0.000430267	-0.383545
116.479	-0.000441406	-0.386902
116.577	-0.00045285	-0.388153
116.675	-0.000464722	-0.391266
116.772	-0.000476929	-0.393311
116.87	-0.000489502	-0.396454
116.968	-0.000502625	-0.398987
117.065	-0.000516357	-0.401459
117.163	-0.000530701	-0.402527
117.261	-0.000545349	-0.405914
117.358	-0.000560303	-0.408508
117.456	-0.000576477	-0.409973
117.554	-0.000593262	-0.412537
117.651	-0.000610657	-0.415009
117.749	-0.000628967	-0.418549
117.847	-0.000648193	-0.421082
117.944	-0.000668335	-0.423309
118.042	-0.000689392	-0.424896
118.14	-0.000711365	-0.427277
118.237	-0.000734253	-0.429535
118.335	-0.000758362	-0.432312
118.433	-0.000783691	-0.435425
118.53	-0.000809937	-0.438049
118.628	-0.000837402	-0.439941
118.725	-0.000865784	-0.441711
118.823	-0.000895691	-0.445465
118.921	-0.000926514	-0.447052
119.018	-0.000958557	-0.449738
119.116	-0.000991821	-0.451569
119.214	-0.00102631	-0.454285
119.311	-0.00106171	-0.456268
119.409	-0.00109863	-0.45993
119.507	-0.00113647	-0.461517
119.604	-0.00117493	-0.464691
119.702	-0.0012149	-0.466156
119.8	-0.00125549	-0.468353
119.897	-0.001297	-0.471039
119.995	-0.00133942	-0.473114
120.093	-0.00138214	-0.476776
120.19	-0.00142578	-0.478149
120.288	-0.00146973	-0.481628
120.386	-0.00151398	-0.483582
120.483	-0.00155884	-0.486237
120.581	-0.0016037	-0.488159
120.679	-0.00164856	-0.491699
120.776	-0.00169342	-0.492706
120.874	-0.00173828	-0.496307
120.972	-0.00178314	-0.497833
121.069	-0.001828	-0.501282
121.167	-0.00187256	-0.502563
121.265	-0.00191711	-0.505829
121.362	-0.00196106	-0.508148
121.46	-0.00200531	-0.510651
121.558	-0.00204895	-0.51239
121.655	-0.00209259	-0.514496
121.753	-0.00213623	-0.517639
121.85	-0.00217957	-0.519623
121.948	-0.0022229	-0.523102
122.046	-0.00226624	-0.525543
122.143	-0.00230927	-0.527039
122.241	-0.0023526	-0.529205
122.339	-0.00239563	-0.532959
122.436	-0.00243866	-0.534363
122.534	-0.0024823	-0.537689
122.632	-0.00252563	-0.539795
122.729	-0.00256927	-0.542175
122.827	-0.00261292	-0.54422
122.925	-0.00265686	-0.546997
123.022	-0.0027005	-0.54895
123.12	-0.00274414	-0.552368
123.218	-0.00278778	-0.553497
123.315	-0.00283112	-0.556458
123.413	-0.00287445	-0.55835
123.511	-0.00291718	-0.561737
123.608	-0.0029599	-0.56427
123.706	-0.00300232	-0.566895
123.804	-0.00304413	-0.568085
123.901	-0.00308563	-0.571106
123.999	-0.00312653	-0.57428
124.097	-0.00316711	-0.575897
124.194	-0.00320679	-0.577881
124.292	-0.00324646	-0.580627
124.39	-0.00328552	-0.583466
124.487	-0.00332397	-0.58551
124.585	-0.00336212	-0.588654
124.683	-0.00339966	-0.590057
124.78	-0.00343689	-0.593506
124.878	-0.00347351	-0.59549
124.975	-0.00350983	-0.597565
125.073	-0.00354523	-0.59967
125.171	-0.00358032	-0.60199
125.268	-0.00361511	-0.604614
125.366	-0.00364899	-0.607849
125.464	-0.00368225	-0.609985
125.561	-0.00371521	-0.61261
125.659	-0.00374756	-0.614136
125.757	-0.00377899	-0.617584
125.854	-0.00380981	-0.62027
125.952	-0.00384033	-0.622406
126.05	-0.00386993	-0.624023
126.147	-0.00389893	-0.626495
126.245	-0.00392731	-0.629242
126.343	-0.00395508	-0.631775
126.44	-0.00398224	-0.634186
126.538	-0.00400818	-0.635956
126.636	-0.00403412	-0.639893
126.733	-0.00405914	-0.64209
126.831	-0.00408325	-0.644562
126.929	-0.00410706	-0.646332
127.026	-0.00413025	-0.649048
127.124	-0.00415283	-0.65036
127.222	-0.0041748	-0.65387
127.319	-0.00419617	-0.655548
127.417	-0.00421692	-0.658722
127.515	-0.00423706	-0.660522
127.612	-0.00425659	-0.663849
127.71	-0.00427582	-0.665985
127.808	-0.00429474	-0.667725
127.905	-0.00431274	-0.670563
128.003	-0.00433044	-0.673248
128.1	-0.00434814	-0.675964
128.198	-0.00436523	-0.67749
128.296	-0.00438171	-0.679565
128.393	-0.00439819	-0.683136
128.491	-0.00441406	-0.685455
128.589	-0.00442993	-0.687378
128.686	-0.00444519	-0.689972
128.784	-0.00446045	-0.691925
128.882	-0.0044754	-0.694427
128.979	-0.00449005	-0.696899
129.077	-0.0045047	-0.70047
129.175	-0.00451874	-0.701691
129.272	-0.00453278	-0.704193
129.37	-0.00454681	-0.706665
129.468	-0.00456055	-0.710144
129.565	-0.00457428	-0.711517
129.663	-0.0045874	-0.714111
129.761	-0.00460083	-0.717468
129.858	-0.00461395	-0.718872
129.956	-0.00462708	-0.721619
130.054	-0.00463989	-0.724701
130.151	-0.00465271	-0.726227
130.249	-0.00466553	-0.72934
130.347	-0.00467804	-0.732147
130.444	-0.00469055	-0.734253
130.542	-0.00470306	-0.736969
130.64	-0.00471527	-0.738312
130.737	-0.00472748	-0.74173
130.835	-0.00473969	-0.744263
130.932	-0.00475189	-0.745728
131.03	-0.0047641	-0.749176
131.128	-0.0047757	-0.751648
131.225	-0.0047876	-0.75531
131.323	-0.00479919	-0.757751
131.421	-0.00481079	-0.760193
131.518	-0.00482208	-0.762024
131.616	-0.00483337	-0.764771
131.714	-0.00484436	-0.767517
131.811	-0.00485535	-0.768738
131.909	-0.00486633	-0.77179
132.007	-0.00487701	-0.774841
132.104	-0.0048877	-0.776062
132.202	-0.00489838	-0.778809
132.3	-0.00490845	-0.782166
132.397	-0.00491882	-0.783386
132.495	-0.00492859	-0.786743
132.593	-0.00493866	-0.788269
132.69	-0.00494843	-0.79071
132.788	-0.00495789	-0.793762
132.886	-0.00496735	-0.797119
132.983	-0.00497681	-0.79834
133.081	-0.00498596	-0.802002
133.179	-0.00499512	-0.804749
133.276	-0.00500397	-0.805054
133.374	-0.00501251	-0.808716
133.472	-0.00502136	-0.812073
133.569	-0.0050296	-0.812988
133.667	-0.00503815	-0.816345
133.765	-0.00504608	-0.816956
133.862	-0.00505432	-0.820007
133.96	-0.00506195	-0.822144
134.057	-0.00506958	-0.825195
134.155	-0.00507721	-0.827026
134.253	-0.00508453	-0.830383
134.35	-0.00509186	-0.832825
134.448	-0.00509888	-0.836487
134.546	-0.0051059	-0.838928
134.643	-0.00511261	-0.841064
134.741	-0.00511932	-0.843201
134.839	-0.00512573	-0.845642
134.936	-0.00513214	-0.846863
135.034	-0.00513824	-0.85022
135.132	-0.00514435	-0.852966
135.229	-0.00515045	-0.854797
135.327	-0.00515625	-0.856323
135.425	-0.00516174	-0.860901
135.522	-0.00516724	-0.861816
135.62	-0.00517242	-0.864258
135.718	-0.00517792	-0.866089
135.815	-0.0051828	-0.869141
135.913	-0.00518768	-0.871582
136.011	-0.00519257	-0.875244
136.108	-0.00519745	-0.876465
136.206	-0.00520203	-0.878906
136.304	-0.0052063	-0.882568
136.401	-0.00521057	-0.883179
136.499	-0.00521484	-0.886841
136.597	-0.00521881	-0.888977
136.694	-0.00522278	-0.892029
136.792	-0.00522644	-0.89325
136.89	-0.0052301	-0.896301
136.987	-0.00523346	-0.899353
137.085	-0.00523682	-0.902405
137.182	-0.00523987	-0.904541
137.28	-0.00524292	-0.906372
137.378	-0.00524597	-0.908203
137.475	-0.00524872	-0.911865
137.573	-0.00525146	-0.914612
137.671	-0.00525421	-0.916138
137.768	-0.00525665	-0.918579
137.866	-0.00525909	-0.9198
137.964	-0.00526123	-0.923767
138.061	-0.00526306	-0.925598
138.159	-0.0052652	-0.927429
138.257	-0.00526703	-0.930786
138.354	-0.00526855	-0.932617
138.452	-0.00527039	-0.935059
138.55	-0.00527191	-0.938416
138.647	-0.00527313	-0.939331
138.745	-0.00527405	-0.943604
138.843	-0.00527527	-0.945435
138.94	-0.00527588	-0.947571
139.038	-0.00527649	-0.950928
139.136	-0.0052771	-0.952454
139.233	-0.00527771	-0.954895
139.331	-0.00527802	-0.957642
139.429	-0.00527802	-0.959473
139.526	-0.00527802	-0.96283
139.624	-0.00527802	-0.964355
139.722	-0.00527771	-0.966797
139.819	-0.0052771	-0.970154
139.917	-0.00527649	-0.971069
140.015	-0.00527588	-0.974731
140.112	-0.00527466	-0.978088
140.21	-0.00527374	-0.979309
140.307	-0.00527222	-0.983276
140.405	-0.005271	-0.983887
140.503	-0.00526947	-0.986023
140.6	-0.00526794	-0.989685
140.698	-0.00526611	-0.990906
140.796	-0.00526428	-0.993042
140.893	-0.00526215	-0.996094
140.991	-0.00526031	-0.99884
141.089	-0.00525818	-1.00067