File: Edgar/20240605/20240605/LSV_test_20240605_A/LSV_1
Time (s)	WE(1).Current (A)	WE(1).Potential (V)
62.5444	4.30603e-08	0.99823
62.7886	3.23181e-08	0.993347
63.0327	2.5177e-08	0.992432
63.2769	3.34473e-08	0.990906
63.521	2.86255e-08	0.988464
63.7652	2.29187e-08	0.986328
64.0093	2.38037e-08	0.981445
64.2534	1.98669e-08	0.980835
64.4976	2.17285e-08	0.977783
64.7417	1.76697e-08	0.976257
64.9859	2.09656e-08	0.971985
65.23	2.37732e-08	0.969543
65.4741	1.43433e-08	0.966797
65.7183	1.47095e-08	0.965271
65.9624	1.78833e-08	0.96344
66.2066	9.94873e-09	0.959167
66.4507	1.06506e-08	0.957642
66.6948	1.30615e-08	0.955505
66.939	1.13525e-08	0.952148
67.1831	7.23267e-09	0.950317
67.4273	1.10779e-08	0.948181
67.6714	6.65283e-09	0.94635
67.9156	5.67627e-09	0.943604
68.1597	4.3335e-09	0.942383
68.4038	2.38037e-09	0.937805
68.648	1.03455e-08	0.935059
68.8921	3.75366e-09	0.934143
69.1363	6.71387e-09	0.930786
69.3804	1.28784e-08	0.929871
69.6245	3.90625E-09	0.926208
69.8687	-1.92261e-09	0.924683
70.1128	9.67407e-09	0.920715
70.357	1.06812e-09	0.9198
70.6011	-1.70898e-09	0.916748
70.8452	8.27026e-09	0.915222
71.0894	2.0752e-09	0.912476
71.3335	-1.58691e-09	0.908508
71.5777	2.13623e-10	0.907593
71.8218	-1.19019e-09	0.903625
72.0659	3.66211e-09	0.902405
72.3101	-1.2207e-09	0.8984375
72.5542	8.54492e-10	0.897217
72.7984	6.34766e-09	0.895386
73.0425	3.05176e-11	0.89325
73.2867	-2.50244e-09	0.888062
73.5308	4.60815e-09	0.887451
73.7749	-4.27246e-10	0.884705
74.0191	-4.73022e-09	0.882568
74.2632	2.0752e-09	0.879517
74.5074	-2.86865e-09	0.877686
74.7515	-5.7373e-09	0.875549
74.9956	-2.62451e-09	0.874329
75.2398	-4.76074e-09	0.870667
75.4839	-6.7749e-09	0.867004
75.7281	-4.08936e-09	0.865784
75.9722	-3.69263e-09	0.863647
76.2163	3.44849e-09	0.861206
76.4605	-5.52368e-09	0.859375
76.7046	-3.32642e-09	0.854797
76.9488	5.7373e-09	0.851746
77.1929	-3.93677e-09	0.851135
77.4371	-5.7373e-09	0.847473
77.6812	1.52588e-10	0.846863
77.9253	-4.54712e-09	0.844421
78.1695	-1.01013e-08	0.839844
78.4136	-1.09863e-09	0.838928
78.6578	-5.52368e-09	0.836792
78.9019	-9.30786e-09	0.834045
79.146	-3.9978e-09	0.830383
79.3902	-6.95801e-09	0.827942
79.6343	-4.15039e-09	0.826111
79.8785	-7.50732e-09	0.823364
80.1226	-4.48608e-09	0.820923
80.3667	-1.83105e-09	0.820007
80.6109	-5.70679e-09	0.817261
80.855	-4.60815e-09	0.815125
81.0992	-3.35693e-09	0.811462
81.3433	-7.14111e-09	0.8078
81.5874	-7.65991e-09	0.80719
81.8316	8.54492e-10	0.803528
82.0757	-5.88989e-09	0.801086
82.3199	-9.00269e-09	0.799255
82.564	2.2583e-09	0.797729
82.8082	-5.859375E-09	0.795898
83.0523	-1.39771e-08	0.791321
83.2964	-5.37109e-09	0.791016
83.5406	-7.38525e-09	0.787354
83.7847	-1.36414e-08	0.783691
84.0289	-6.46973e-09	0.782471
84.273	-7.93457e-09	0.778809
84.5171	-4.63867e-09	0.779114
84.7613	-1.11084e-08	0.776367
85.0054	-8.63647e-09	0.773621
85.2496	-3.38745e-09	0.770569
85.4937	-1.06201e-08	0.766602
85.7378	-8.57544e-09	0.765076
85.982	-3.69263e-09	0.762024
86.2261	-5.58472e-09	0.761414
86.4703	-8.88062e-09	0.757751
86.7144	-1.83105e-10	0.756836
86.9585	-8.54492e-09	0.751648
87.2027	-1.61438e-08	0.751038
87.4468	1.52588e-10	0.74881
87.691	-9.8877e-09	0.746552
87.9351	-1.26953e-08	0.743622
88.1793	-6.19507e-09	0.741516
88.4234	-7.62939e-09	0.739166
88.6675	-1.29089e-08	0.735718
88.9117	-1.05286e-08	0.733551
89.1558	-1.25122e-08	0.730774
89.4	-5.67627e-09	0.728973
89.6441	-1.28479e-08	0.726166
89.8882	-1.33362e-08	0.723267
90.1324	-4.08936e-09	0.720642
90.3765	-1.13831e-08	0.718506
90.6207	-1.03149e-08	0.716187
90.8648	-4.02832e-09	0.713409
91.1089	-1.26343e-08	0.711029
91.3531	-1.78223e-08	0.709534
91.5972	-2.01416e-09	0.707031
91.8414	-1.05591e-08	0.704834
92.0855	-1.46484e-08	0.702179
92.3297	-6.5918e-09	0.700287
92.5738	-1.19019e-08	0.697052
92.8179	-1.75171e-08	0.694733
93.0621	-1.1322e-08	0.691223
93.3062	-1.33057e-08	0.689148
93.5504	-8.8501e-09	0.686676
93.7945	-1.36719e-08	0.684875
94.0386	-1.03455e-08	0.683044
94.2828	-4.36401e-09	0.680603
94.5269	-1.31226e-08	0.678223
94.7711	-1.1261e-08	0.674286
95.0152	-4.39453e-09	0.672607
95.2593	-1.36719e-08	0.669922
95.5035	-1.41602e-08	0.668427
95.7476	-4.39453e-09	0.6640625
95.9918	-9.8877e-09	0.663116
96.2359	-1.47095e-08	0.65976
96.48	-5.0354e-09	0.658478
96.7242	-1.40991e-08	0.654968
96.9683	-1.31226e-08	0.651733
97.2125	-1.42517e-08	0.650177
97.4566	-1.4679e-08	0.647614
97.7008	-7.99561e-09	0.64621
97.9449	-1.53198e-08	0.642273
98.189	-1.2085e-08	0.641022
98.4332	-4.82178e-09	0.63913
98.6773	-1.51978e-08	0.636322
98.9215	-1.32751e-08	0.63382
99.1656	-6.62231e-09	0.630096
99.4097	-1.72119e-08	0.627869
99.6539	-1.77917e-08	0.626404
99.898	-9.27734e-09	0.624023
100.142	-1.80054e-08	0.621185
100.386	-2.28271e-08	0.619019
100.63	-1.62964e-08	0.616821
100.875	-1.76086e-08	0.61441
101.119	-8.88062e-09	0.611359
101.363	-1.28479e-08	0.608704
101.607	-1.53809e-08	0.607239
101.851	-9.0332e-09	0.604797
102.095	-1.89514e-08	0.601746
102.339	-1.97449e-08	0.599945
102.584	-9.33838e-09	0.596863
102.828	-1.47095e-08	0.594971
103.072	-2.01416e-08	0.591858
103.316	-1.2146e-08	0.5896
103.56	-2.27356e-08	0.587616
103.804	-1.81274e-08	0.585175
104.048	-1.83105e-08	0.582336
104.293	-2.05994e-08	0.579102
104.537	-1.22681e-08	0.578156
104.781	-2.23999e-08	0.573975
105.025	-2.11487e-08	0.572083
105.269	-1.23291e-08	0.569672
105.513	-1.88904e-08	0.566681
105.757	-2.35291e-08	0.564178
106.002	-1.36414e-08	0.562073
106.246	-2.31934e-08	0.560638
106.49	-2.90222e-08	0.557129
106.734	-2.04468e-08	0.554504
106.978	-2.55127e-08	0.553375
107.222	-2.10571e-08	0.549347
107.466	-2.19116e-08	0.548523
107.711	-2.38342e-08	0.545959
107.955	-1.63269e-08	0.542603
108.199	-2.45056e-08	0.540833
108.443	-2.16064e-08	0.539185
108.687	-1.26953e-08	0.53479
108.931	-2.32239e-08	0.534241
109.175	-2.92664e-08	0.530396
109.42	-1.84326e-08	0.527405
109.664	-2.5238e-08	0.526825
109.908	-2.98157e-08	0.523163
110.152	-1.95923e-08	0.522095
110.396	-2.80457e-08	0.519562
110.64	-3.0365e-08	0.516144
110.884	-2.63672e-08	0.513031
111.129	-2.85034e-08	0.510834
111.373	-2.12097e-08	0.508514
111.617	-2.74048e-08	0.507385
111.861	-2.5238e-08	0.503204
112.105	-2.02026e-08	0.501343
112.349	-3.00293e-08	0.499237
112.593	-3.16162e-08	0.497772
112.837	-2.05688e-08	0.493683
113.082	-3.07312e-08	0.492706
113.326	-3.5675e-08	0.489807
113.57	-2.28577e-08	0.487488
113.814	-3.16467e-08	0.485199
114.058	-3.93982e-08	0.482574
114.302	-3.18604e-08	0.47934
114.546	-3.36304e-08	0.477875
114.791	-3.32031e-08	0.474365
115.035	-3.50342e-08	0.471985
115.279	-3.60718e-08	0.470795
115.523	-2.86255e-08	0.467194
115.767	-4.2572e-08	0.464691
116.011	-3.97644e-08	0.462463
116.255	-2.99683e-08	0.46106
116.5	-4.15344e-08	0.457245
116.744	-4.30908e-08	0.454987
116.988	-3.45459e-08	0.453949
117.232	-3.84521e-08	0.451141
117.476	-4.54407e-08	0.447968
117.72	-3.95508e-08	0.445068
117.964	-4.51965e-08	0.444153
118.209	-4.19006e-08	0.440094
118.453	-4.74548e-08	0.437439
118.697	-4.59595e-08	0.435425
118.941	-4.01001e-08	0.433502
119.185	-4.62646e-08	0.431458
119.429	-4.91333e-08	0.427856
119.673	-4.1626e-08	0.426941
119.918	-5.33447e-08	0.424042
120.162	-5.35278e-08	0.42215
120.406	-4.61426e-08	0.419586
120.65	-5.05371e-08	0.417114
120.894	-5.67322e-08	0.414886
121.138	-5.46875E-08	0.41156
121.382	-5.859375E-08	0.408691
121.627	-5.91736e-08	0.407196
121.871	-6.15845e-08	0.404999
122.115	-5.75562e-08	0.402344
122.359	-5.22156e-08	0.3992
122.603	-6.20728e-08	0.396118
122.847	-6.2561e-08	0.395294
123.091	-5.71594e-08	0.391479
123.336	-6.98853e-08	0.390442
123.58	-7.24792e-08	0.386871
123.824	-6.3324e-08	0.385315
124.068	-6.90613e-08	0.381409
124.312	-7.46155e-08	0.378723
124.556	-7.87048e-08	0.378235
124.8	-7.74536e-08	0.374451
125.045	-7.37e-08	0.372803
125.289	-8.47473e-08	0.369293
125.533	-8.17261e-08	0.368469
125.777	-7.27539e-08	0.36499
126.021	-8.79822e-08	0.363464
126.265	-9.48181e-08	0.360107
126.509	-8.19397e-08	0.358307
126.754	-9.05151e-08	0.355713
126.998	-9.96704e-08	0.353821
127.242	-9.06067e-08	0.350647
127.486	-9.94568e-08	0.348785
127.73	-1.00433e-07	0.346252
127.974	-1.09039e-07	0.34314
128.218	-1.04431e-07	0.341949
128.463	-1.01807e-07	0.338684
128.707	-1.10687e-07	0.336823
128.951	-1.11328e-07	0.33429
129.195	-1.05072e-07	0.331879
129.439	-1.17371e-07	0.329224
129.683	-1.2854e-07	0.326263
129.927	-1.20239e-07	0.324432
130.172	-1.32874e-07	0.320923
130.416	-1.35651e-07	0.318909
130.66	-1.32874e-07	0.315887
130.904	-1.42242e-07	0.314117
131.148	-1.36993e-07	0.310638
131.392	-1.50665e-07	0.309479
131.636	-1.47003e-07	0.305878
131.88	-1.49139e-07	0.304443
132.125	-1.58356e-07	0.301208
132.369	-1.65344e-07	0.299438
132.613	-1.62231e-07	0.296173
132.857	-1.68854e-07	0.295288
133.101	-1.83258e-07	0.291809
133.345	-1.75415e-07	0.29007
133.589	-1.84937e-07	0.288086
133.834	-1.84875e-07	0.285583
134.078	-1.96045e-07	0.282562
134.322	-1.99615e-07	0.280884
134.566	-1.94122e-07	0.276794
134.81	-2.12189e-07	0.275665
135.054	-2.07581e-07	0.273285
135.298	-2.09106e-07	0.26947
135.543	-2.22504e-07	0.267365
135.787	-2.32391e-07	0.265533
136.031	-2.27631e-07	0.263031
136.275	-2.3819e-07	0.261688
136.519	-2.53448e-07	0.257843
136.763	-2.45087e-07	0.255615
137.007	-2.60559e-07	0.25412
137.252	-2.57751e-07	0.251953
137.496	-2.70874e-07	0.248199
137.74	-2.72827e-07	0.246552
137.984	-2.71027e-07	0.24292
138.228	-2.88635e-07	0.241455
138.472	-2.9599e-07	0.239441
138.716	-2.90955e-07	0.236694
138.961	-3.05756e-07	0.233307
139.205	-3.56445e-07	0.230072
139.449	-3.63464e-07	0.228058
139.693	-3.68958e-07	0.226959
139.937	-3.96118e-07	0.22348
140.181	-3.97949e-07	0.22113
140.425	-4.11377e-07	0.218262
140.67	-4.14124e-07	0.21701
140.914	-4.3396e-07	0.214539
141.158	-4.46472e-07	0.210754
141.402	-4.41895e-07	0.209564
141.646	-4.74548e-07	0.207031
141.89	-4.80652e-07	0.203583
142.134	-4.87366e-07	0.200775
142.379	-5.03235e-07	0.199097
142.623	-5.25818e-07	0.196838
142.867	-5.31616e-07	0.194641
143.111	-5.41382e-07	0.192474
143.355	-5.63354e-07	0.188599
143.599	-5.6427e-07	0.186432
143.843	-5.83496e-07	0.184113
144.088	-5.88074e-07	0.181702
144.332	-6.20117e-07	0.179352
144.576	-6.36597e-07	0.17807
144.82	-6.40869e-07	0.174164
145.064	-6.640625E-07	0.173523
145.308	-6.7749e-07	0.170319
145.552	-6.92444e-07	0.168457
145.797	-7.16553e-07	0.164886
146.041	-7.41882e-07	0.16394
146.285	-7.58362e-07	0.161194
146.529	-7.7301e-07	0.157318
146.773	-8.01697e-07	0.156464
147.017	-8.14514e-07	0.152679
147.261	-8.4259e-07	0.150757
147.506	-8.41675e-07	0.147339
147.75	-8.80432e-07	0.14502
147.994	-9.05457e-07	0.144165
148.238	-9.06372e-07	0.140411
148.482	-9.53369e-07	0.139038
148.726	-9.68323e-07	0.134949
148.97	-9.91821e-07	0.133545
149.215	-1.00739e-06	0.13089
149.459	-1.04858e-06	0.127655
149.703	-1.06934e-06	0.12558
149.947	-1.09344e-06	0.123383
150.191	-1.13281e-06	0.122162
150.435	-1.14166e-06	0.118774
150.679	-1.17798e-06	0.116455
150.923	-1.18744e-06	0.114441
151.168	-1.2323e-06	0.111023
151.412	-1.26709e-06	0.108337
151.656	-1.27502e-06	0.10614
151.9	-1.33606e-06	0.105286
152.144	-1.34827e-06	0.101807
152.388	-1.37787e-06	0.100372
152.632	-1.40747e-06	0.0968018
152.877	-1.45325e-06	0.0939331
153.121	-1.4798e-06	0.0919189
153.365	-1.50757e-06	0.0887756
153.609	-1.5625E-06	0.087677
153.853	-1.57715e-06	0.0841064
154.097	-1.63147e-06	0.0820007
154.341	-1.64429e-06	0.0806274
154.586	-1.68976e-06	0.0782166
154.83	-1.73553e-06	0.075592
155.074	-1.7453e-06	0.0737305
155.318	-1.81732e-06	0.0696106
155.562	-1.83594e-06	0.0684814
155.806	-1.8866e-06	0.0664368
156.05	-1.91162e-06	0.0625305
156.295	-1.97205e-06	0.059906
156.539	-2.00958e-06	0.0574646
156.783	-2.03644e-06	0.0549622
157.027	-2.10114e-06	0.0542603
157.271	-2.12036e-06	0.0498352
157.515	-2.18872e-06	0.0477448
157.759	-2.20093e-06	0.0465179
158.004	-2.26837e-06	0.0432587
158.248	-2.31903e-06	0.0415955
158.492	-2.34406e-06	0.038678
158.736	-2.43073e-06	0.0358765
158.98	-2.45819e-06	0.0341766
159.224	-2.51831e-06	0.030542
159.468	-2.55768e-06	0.0291626
159.713	-2.62177e-06	0.0262238
159.957	-2.67151e-06	0.02453
160.201	-2.71484e-06	0.0212067
160.445	-2.79083e-06	0.0192993
160.689	-2.82745e-06	0.0158905
160.933	-2.9007e-06	0.0139313
161.177	-2.92694e-06	0.0122681
161.422	-3.0072e-06	0.00987854
161.666	-3.63464e-06	0.00593262
161.91	-3.68042e-06	0.00420532
162.154	-3.78723e-06	0.000927734
162.398	-3.87878e-06	-0.000454712
162.642	-3.95203e-06	-0.00386353
162.886	-4.04358e-06	-0.0053009
163.131	-4.14124e-06	-0.00816345
163.375	-4.23584e-06	-0.00954895
163.619	-4.31824e-06	-0.0128204
163.863	-4.41284e-06	-0.0145264
164.107	-4.51355e-06	-0.0168701
164.351	-4.62341e-06	-0.0202271
164.595	-4.69971e-06	-0.0219971
164.84	-4.82178e-06	-0.0239838
165.084	-4.93774e-06	-0.0275818
165.328	-5.0354e-06	-0.030069
165.572	-5.15137e-06	-0.0326813
165.816	-5.27649e-06	-0.0343933
166.06	-5.39246e-06	-0.036377
166.304	-5.50842e-06	-0.0402985
166.549	-5.62439e-06	-0.04104
166.793	-5.77087e-06	-0.0453522
167.037	-5.89905e-06	-0.047052
167.281	-6.02112e-06	-0.0485352
167.525	-6.1676e-06	-0.0527039
167.769	-6.31714e-06	-0.0540466
168.013	-6.44531e-06	-0.0558167
168.258	-6.604e-06	-0.0592346
168.502	-6.75964e-06	-0.0609131
168.746	-6.91528e-06	-0.0634155
168.99	-7.07397e-06	-0.0673218
169.234	-7.22961e-06	-0.0681458
169.478	-7.41272e-06	-0.0721436
169.722	-7.58667e-06	-0.074585
169.966	-7.74841e-06	-0.0769958
170.211	-7.95898e-06	-0.079071
170.455	-8.15735e-06	-0.0821533
170.699	-8.3374e-06	-0.0828857
170.943	-8.55713e-06	-0.0865784
171.187	-8.7677e-06	-0.0880127
171.431	-8.98132e-06	-0.0904541
171.675	-9.2041e-06	-0.0937195
171.92	-9.43298e-06	-0.0961304
172.164	-9.65881e-06	-0.0993652
172.408	-9.90295e-06	-0.099884
172.652	-1.01501e-05	-0.103607
172.896	-1.04034e-05	-0.104553
173.14	-1.0675e-05	-0.107452
173.384	-1.09375E-05	-0.109589
173.629	-1.12213e-05	-0.111816
173.873	-1.15173e-05	-0.116364
174.117	-1.18042e-05	-0.118347
174.361	-1.21246e-05	-0.119324
174.605	-1.2439e-05	-0.122162
174.849	-1.27594e-05	-0.125763
175.093	-1.30951e-05	-0.126465
175.338	-1.34369e-05	-0.130402
175.582	-1.37909e-05	-0.133331
175.826	-1.41785e-05	-0.134766
176.07	-1.45325e-05	-0.137939
176.314	-1.49384e-05	-0.140442
176.558	-1.53564e-05	-0.14151
176.802	-1.57593e-05	-0.145172
177.047	-1.62018e-05	-0.147217
177.291	-1.66473e-05	-0.150269
177.535	-1.71112e-05	-0.150848
177.779	-1.76056e-05	-0.153717
178.023	-1.80939e-05	-0.155701
178.267	-1.8634e-05	-0.158142
178.511	-1.91803e-05	-0.162476
178.756	-1.97449e-05	-0.162872
179	-2.03491e-05	-0.166748
179.244	-2.09717e-05	-0.167969
179.488	-2.16248e-05	-0.170258
179.732	-2.23083e-05	-0.173065
179.976	-2.30072e-05	-0.176697
180.22	-2.37488e-05	-0.177399
180.465	-2.45026e-05	-0.181793
180.709	-2.52808e-05	-0.184448
180.953	-2.61139e-05	-0.185425
181.197	-2.69348e-05	-0.188782
181.441	-2.7771e-05	-0.189575
181.685	-2.8656e-05	-0.193451
181.929	-2.95135e-05	-0.194489
182.174	-3.03802e-05	-0.197021
182.418	-3.12714e-05	-0.201141
182.662	-3.21503e-05	-0.202515
182.906	-3.30292e-05	-0.206329
183.15	-3.39081e-05	-0.208374
183.394	-3.47626e-05	-0.210175
183.638	-3.56567e-05	-0.212677
183.883	-3.65265e-05	-0.21524
184.127	-3.73627e-05	-0.218445
184.371	-3.82416e-05	-0.219604
184.615	-3.91083e-05	-0.221893
184.859	-3.99506e-05	-0.225037
185.103	-4.08081e-05	-0.227753
185.347	-4.16626e-05	-0.229401
185.592	-4.2511e-05	-0.232239
185.836	-4.3396e-05	-0.235535
186.08	-4.422e-05	-0.236908
186.324	-4.5105e-05	-0.240082
186.568	-4.599e-05	-0.242889
186.812	-4.68445e-05	-0.244141
187.056	-4.77905e-05	-0.247681
187.301	-4.87061e-05	-0.249969
187.545	-4.96216e-05	-0.251312
187.789	-5.05981e-05	-0.254944
188.033	-5.15137e-05	-0.256622
188.277	-5.24292e-05	-0.258881
188.521	-5.34058e-05	-0.262207
188.765	-5.43518e-05	-0.264313
189.009	-5.53589e-05	-0.267181
189.254	-5.63354e-05	-0.268372
189.498	-5.7312e-05	-0.271912
189.742	-5.83496e-05	-0.274323
189.986	-5.94177e-05	-0.27594
190.23	-6.04858e-05	-0.279388
190.474	-6.15845e-05	-0.281616
190.718	-6.27136e-05	-0.284149
190.963	-6.38428e-05	-0.285431
191.207	-6.5033e-05	-0.288544
191.451	-6.61926e-05	-0.291443
191.695	-6.74438e-05	-0.293762
191.939	-6.87256e-05	-0.295929
192.183	-7.00378e-05	-0.297943
192.427	-7.14111e-05	-0.301208
192.672	-7.28149e-05	-0.303741
192.916	-7.421875E-05	-0.306274
193.16	-7.57446e-05	-0.307739
193.404	-7.7301e-05	-0.309967
193.648	-7.89185e-05	-0.312317
193.892	-8.05969e-05	-0.314941
194.136	-8.23364e-05	-0.318237
194.381	-8.4137e-05	-0.320831
194.625	-8.60291e-05	-0.322784
194.869	-8.79517e-05	-0.324829
195.113	-9.00269e-05	-0.32785
195.357	-9.21326e-05	-0.329437
195.601	-9.42993e-05	-0.331818
195.845	-9.66187e-05	-0.335632
196.09	-9.8999e-05	-0.336792
196.334	-0.00010144	-0.339722
196.578	-0.000104004	-0.342499
196.822	-0.000106628	-0.344147
197.066	-0.000109375	-0.346283
197.31	-0.000112244	-0.349152
197.554	-0.000115112	-0.351227
197.799	-0.000118103	-0.35495
198.043	-0.000121155	-0.35675
198.287	-0.000124268	-0.359039
198.531	-0.000127472	-0.361145
198.775	-0.000130707	-0.363434
199.019	-0.000134003	-0.365936
199.263	-0.00013736	-0.368225
199.508	-0.000140778	-0.370911
199.752	-0.000144226	-0.374451
199.996	-0.000147766	-0.37561
200.24	-0.000151306	-0.378204
200.484	-0.000154968	-0.380493
200.728	-0.000158722	-0.384094
200.972	-0.000162537	-0.385406
201.217	-0.000166504	-0.387726
201.461	-0.000170593	-0.391541
201.705	-0.000174835	-0.392822
201.949	-0.000179291	-0.39505
202.193	-0.000184021	-0.397614
202.437	-0.000188965	-0.400055
202.681	-0.000194305	-0.402252
202.926	-0.000200073	-0.405426
203.17	-0.000206329	-0.408264
203.414	-0.000213196	-0.410614
203.658	-0.000220734	-0.413422
203.902	-0.000229095	-0.415253
204.146	-0.000238342	-0.418213
204.39	-0.000248627	-0.419312
204.635	-0.000260162	-0.421722
204.879	-0.00027298	-0.425507
205.123	-0.000287415	-0.426544
205.367	-0.000303558	-0.428986
205.611	-0.000321716	-0.432983
205.855	-0.000342072	-0.434418
206.099	-0.000364929	-0.437469
206.343	-0.000390472	-0.44046
206.588	-0.000419037	-0.442383
206.832	-0.000450867	-0.444153
207.076	-0.000486115	-0.446533
207.32	-0.000525208	-0.450317
207.564	-0.000567932	-0.45224
207.808	-0.000614624	-0.454163
208.052	-0.000665283	-0.457489
208.297	-0.000719604	-0.459106
208.541	-0.000777588	-0.461212
208.785	-0.000838623	-0.464752
209.029	-0.000902405	-0.46698
209.273	-0.000968323	-0.469025
209.517	-0.00103638	-0.470825
209.761	-0.00110596	-0.47403
210.006	-0.00117615	-0.475769
210.25	-0.00124725	-0.479431
210.494	-0.00131836	-0.480621
210.738	-0.00138977	-0.483398
210.982	-0.00146057	-0.485535
211.226	-0.00153107	-0.487823
211.47	-0.00160095	-0.490631
211.715	-0.00166992	-0.493347
211.959	-0.00173798	-0.496063
212.203	-0.00180511	-0.49823
212.447	-0.00187103	-0.501007
212.691	-0.00193573	-0.502625
212.935	-0.00199921	-0.505615
213.179	-0.00206116	-0.507904
213.424	-0.00212189	-0.509979
213.668	-0.0021814	-0.512817
213.912	-0.00223907	-0.514496
214.156	-0.00229584	-0.516876
214.4	-0.00235077	-0.519928
214.644	-0.00240448	-0.521912
214.888	-0.00245697	-0.524231
215.133	-0.00250793	-0.527435
215.377	-0.00255798	-0.529572
215.621	-0.00260681	-0.531555
215.865	-0.00265442	-0.534088
216.109	-0.00270081	-0.536224
216.353	-0.00274597	-0.538696
216.597	-0.00279053	-0.541626
216.842	-0.00283386	-0.544342
217.086	-0.00287628	-0.547089
217.33	-0.00291779	-0.549164
217.574	-0.00295837	-0.551514
217.818	-0.00299805	-0.553375
218.062	-0.0030368	-0.557037
218.306	-0.00307495	-0.558044
218.551	-0.00311218	-0.56189
218.795	-0.0031485	-0.563049
219.039	-0.0031842	-0.56546
219.283	-0.00321869	-0.568329
219.527	-0.00325256	-0.571533
219.771	-0.00328522	-0.572968
220.015	-0.00331757	-0.575806
220.26	-0.00334869	-0.577667
220.504	-0.00337891	-0.580261
220.748	-0.00340851	-0.58374
220.992	-0.00343689	-0.586212
221.236	-0.00346466	-0.587769
221.48	-0.00349152	-0.590393
221.724	-0.00351746	-0.593475
221.969	-0.00354279	-0.595428
222.213	-0.00356689	-0.597076
222.457	-0.00359039	-0.599426
222.701	-0.00361298	-0.601929
222.945	-0.00363495	-0.605164
223.189	-0.0036557	-0.608002
223.433	-0.00367584	-0.609436
223.678	-0.00369507	-0.611725
223.922	-0.00371399	-0.614075
224.166	-0.00373169	-0.61676
224.41	-0.00374908	-0.6203
224.654	-0.00376556	-0.621887
224.898	-0.00378143	-0.624725
225.142	-0.00379669	-0.626404
225.386	-0.00381134	-0.628662
225.631	-0.00382507	-0.632294
225.875	-0.00383881	-0.634003
226.119	-0.00385193	-0.635925
226.363	-0.00386444	-0.638824
226.607	-0.00387665	-0.641541
226.851	-0.00388885	-0.643311
227.095	-0.00390045	-0.646576
227.34	-0.00391174	-0.648895
227.584	-0.00392273	-0.651306
227.828	-0.00393372	-0.654266
228.072	-0.0039444	-0.656616
228.316	-0.00395508	-0.657928
228.56	-0.00396576	-0.661682
228.804	-0.00397644	-0.663727
229.049	-0.00398712	-0.665253
229.293	-0.0039975	-0.668488
229.537	-0.00400848	-0.671509
229.781	-0.00401917	-0.673279
230.025	-0.00403015	-0.675964
230.269	-0.00404144	-0.678162
230.513	-0.00405273	-0.681183
230.758	-0.00406433	-0.682434
231.002	-0.00407593	-0.685852
231.246	-0.00408813	-0.687469
231.49	-0.00410004	-0.690857
231.734	-0.00411255	-0.692291
231.978	-0.00412506	-0.69577
232.222	-0.00413757	-0.697662
232.467	-0.0041507	-0.699493
232.711	-0.00416382	-0.702606
232.955	-0.00417664	-0.704498
233.199	-0.00419037	-0.707703
233.443	-0.00420349	-0.710297
233.687	-0.00421722	-0.71283
233.931	-0.00423096	-0.713867
234.176	-0.00424469	-0.716492
234.42	-0.00425842	-0.720062
234.664	-0.00427216	-0.721497
234.908	-0.00428589	-0.723602
235.152	-0.00429962	-0.727417
235.396	-0.00431305	-0.728516
235.64	-0.00432678	-0.73111
235.885	-0.00434021	-0.73468
236.129	-0.00435333	-0.736603
236.373	-0.00436646	-0.739624
236.617	-0.00437927	-0.741119
236.861	-0.0043924	-0.743866
237.105	-0.00440491	-0.745758
237.349	-0.00441742	-0.749237
237.594	-0.00442963	-0.751343
237.838	-0.00444183	-0.755615
238.082	-0.00445343	-0.758362
238.326	-0.00446503	-0.759277
238.57	-0.00447662	-0.763245
238.814	-0.00448761	-0.76355
239.058	-0.00449829	-0.768127
239.303	-0.00450897	-0.770264
239.547	-0.00451965	-0.7724
239.791	-0.00452942	-0.773315
240.035	-0.00453918	-0.775757
240.279	-0.00454895	-0.778809
240.523	-0.00455811	-0.782166
240.767	-0.00456696	-0.784302
241.012	-0.0045755	-0.787354
241.256	-0.00458405	-0.7901
241.5	-0.00459229	-0.791016
241.744	-0.00460022	-0.794373
241.988	-0.00460785	-0.796204
242.232	-0.00461548	-0.799866
242.476	-0.0046225	-0.800781
242.721	-0.00462921	-0.805054
242.965	-0.00463623	-0.805969
243.209	-0.00464264	-0.80719
243.453	-0.00464905	-0.811462
243.697	-0.00465454	-0.812988
243.941	-0.00466034	-0.81665
244.185	-0.00466614	-0.818481
244.429	-0.00467133	-0.821228
244.674	-0.00467621	-0.823669
244.918	-0.00468109	-0.825195
245.162	-0.00468567	-0.827637
245.406	-0.00468994	-0.830688
245.65	-0.00469421	-0.832825
245.894	-0.00469818	-0.834656
246.138	-0.00470215	-0.838318
246.383	-0.00470551	-0.839539
246.627	-0.00470886	-0.842285
246.871	-0.00471191	-0.845947
247.115	-0.00471466	-0.846558
247.359	-0.00471741	-0.85083
247.603	-0.00472015	-0.853271
247.847	-0.00472229	-0.853577
248.092	-0.00472443	-0.857849
248.336	-0.00472656	-0.860596
248.58	-0.00472809	-0.862732
248.824	-0.00472931	-0.864868
249.068	-0.00473053	-0.86792
249.312	-0.00473114	-0.869141
249.556	-0.00473175	-0.871277
249.801	-0.00473206	-0.874329
250.045	-0.00473206	-0.877075
250.289	-0.00473175	-0.879211
250.533	-0.00473114	-0.881348
250.777	-0.00473022	-0.88501
251.021	-0.0047287	-0.886841
251.265	-0.00472717	-0.890198
251.51	-0.00472504	-0.891724
251.754	-0.00472229	-0.895081
251.998	-0.00471954	-0.895691
252.242	-0.00471588	-0.899658
252.486	-0.00471191	-0.900879
252.73	-0.00470764	-0.905151
252.974	-0.00470276	-0.906982
253.219	-0.00469727	-0.909119
253.463	-0.00469147	-0.911865
253.707	-0.00468536	-0.914001
253.951	-0.00467834	-0.914612
254.195	-0.00467102	-0.918579
254.439	-0.00466309	-0.921326
254.683	-0.00465424	-0.923157
254.928	-0.00464508	-0.925293
255.172	-0.00463562	-0.92865
255.416	-0.00462524	-0.931702
255.66	-0.00461456	-0.932617
255.904	-0.00460388	-0.936279
256.148	-0.0045929	-0.937195
256.392	-0.0045816	-0.940857
256.637	-0.00457031	-0.943604
256.881	-0.00455902	-0.946045
257.125	-0.00454865	-0.946655
257.369	-0.00453918	-0.950928
257.613	-0.00453064	-0.953674
257.857	-0.00452393	-0.953979
258.101	-0.00451935	-0.957947
258.346	-0.0045166	-0.960388
258.59	-0.0045166	-0.963135
258.834	-0.00451935	-0.964661
259.078	-0.00452515	-0.968323
259.322	-0.00453369	-0.969849
259.566	-0.00454468	-0.971069
259.81	-0.00455841	-0.975037
260.055	-0.00457428	-0.977783
260.299	-0.00459229	-0.979919
260.543	-0.00461182	-0.98114
260.787	-0.00463226	-0.985107
261.031	-0.00465363	-0.986938
261.275	-0.00467438	-0.988159
261.519	-0.00469543	-0.993042
261.764	-0.00471497	-0.993347
262.008	-0.00473267	-0.997925
262.252	-0.00474792	-0.999451
262.496	-0.0047641	-1.00098