File: Edgar/20240605/20240605/LSV_test_20240605_A/LSV_100mVps_1
Time (s)	WE(1).Current (A)	WE(1).Potential (V)
60.83	2.43835e-07	0.995789
60.8544	1.87073e-07	0.994568
60.8788	2.01721e-07	0.992126
60.9032	1.297e-07	0.989075
60.9276	1.34277e-07	0.986023
60.952	1.11694e-07	0.984802
60.9765	1.36108e-07	0.983582
61.0009	8.3313e-08	0.979004
61.0253	9.552e-08	0.9765625
61.0497	7.96509e-08	0.974121
61.0741	6.71387e-08	0.97229
61.0985	7.8125E-08	0.97168
61.1229	3.71399e-08	0.968933
61.1474	6.96106e-08	0.965881
61.1718	-2.80762e-09	0.961914
61.1962	4.78516e-08	0.959473
61.2206	-4.76074e-09	0.957642
61.245	2.6123e-08	0.955505
61.2694	-1.76697e-08	0.951843
61.2938	5.79834e-10	0.950623
61.3182	-2.35901e-08	0.948792
61.3427	-1.47705e-08	0.94635
61.3671	-1.97754e-08	0.943298
61.3915	-1.94702e-08	0.939941
61.4159	-1.25122e-09	0.939026
61.4403	-2.8656e-08	0.937195
61.4647	7.01904e-10	0.934753
61.4891	-3.48816e-08	0.932617
61.5136	-4.42505e-09	0.92865
61.538	-5.69763e-08	0.925598
61.5624	-2.9541e-08	0.923462
61.5868	-7.25403e-08	0.920715
61.6112	-4.88892e-08	0.919189
61.6356	-7.55615e-08	0.917358
61.66	-6.12183e-08	0.915222
61.6845	-6.95801e-08	0.91156
61.7089	-7.51343e-08	0.908203
61.7333	-6.37207e-08	0.907593
61.7577	-7.74841e-08	0.905151
61.7821	-5.94177e-08	0.902405
61.8065	-8.61206e-08	0.899658
61.8309	-4.58069e-08	0.897522
61.8554	-7.66296e-08	0.894165
61.8798	-4.88892e-08	0.891418
61.9042	-9.61609e-08	0.888672
61.9286	-7.18079e-08	0.888062
61.953	-1.14838e-07	0.885925
61.9774	-7.57446e-08	0.883179
62.0018	-1.1792e-07	0.879517
62.0263	-9.63745e-08	0.87677
62.0507	-1.026e-07	0.873718
62.0751	-9.8114e-08	0.873718
62.0995	-1.02966e-07	0.870972
62.1239	-1.14288e-07	0.869141
62.1483	-8.31909e-08	0.865173
62.1727	-1.15387e-07	0.862122
62.1972	-7.3822e-08	0.859375
62.2216	-1.06232e-07	0.856628
62.246	-7.95593e-08	0.855103
62.2704	-1.26099e-07	0.853271
62.2948	-8.72498e-08	0.85144
62.3192	-1.44653e-07	0.849304
62.3436	-1.15387e-07	0.845032
62.3681	-1.23962e-07	0.843506
62.3925	-1.20789e-07	0.841064
62.4169	-1.12488e-07	0.839233
62.4413	-1.2616e-07	0.837402
62.4657	-1.015625E-07	0.834656
62.4901	-1.3205e-07	0.830383
62.5145	-1.00067e-07	0.829773
62.5389	-1.30035e-07	0.8255
62.5634	-9.11865e-08	0.823059
62.5878	-1.18256e-07	0.821228
62.6122	-8.35266e-08	0.819702
62.6366	-1.34583e-07	0.815125
62.661	-1.31531e-07	0.815125
62.6854	-1.42944e-07	0.811462
62.7098	-1.24359e-07	0.808716
62.7343	-1.46179e-07	0.808105
62.7587	-1.32477e-07	0.805359
62.7831	-1.49628e-07	0.802917
62.8075	-1.58447e-07	0.800476
62.8319	-1.32446e-07	0.798645
62.8563	-1.48163e-07	0.794373
62.8807	-1.13861e-07	0.791931
62.9052	-1.39435e-07	0.788574
62.9296	-1.12549e-07	0.786743
62.954	-1.52527e-07	0.785828
62.9784	-1.21918e-07	0.780945
63.0028	-1.78314e-07	0.780029
63.0272	-1.39954e-07	0.776978
63.0516	-1.66626e-07	0.774841
63.0761	-1.38428e-07	0.773621
63.1005	-1.56128e-07	0.770569
63.1249	-1.55823e-07	0.766907
63.1493	-1.56311e-07	0.766296
63.1737	-1.56708e-07	0.76355
63.1981	-1.32446e-07	0.760193
63.2225	-1.57867e-07	0.756836
63.247	-9.95178e-08	0.754089
63.2714	-1.54144e-07	0.753174
63.2958	-1.2265e-07	0.751648
63.3202	-1.78619e-07	0.747528
63.3446	-1.36353e-07	0.745514
63.369	-1.77338e-07	0.742767
63.3934	-1.46332e-07	0.740814
63.4179	-1.69952e-07	0.738892
63.4423	-1.63849e-07	0.737122
63.4667	-1.65588e-07	0.732483
63.4911	-1.76178e-07	0.730713
63.5155	-1.69586e-07	0.728668
63.5399	-1.72394e-07	0.727386
63.5643	-1.4679e-07	0.724243
63.5888	-1.65253e-07	0.721069
63.6132	-1.23291e-07	0.718872
63.6376	-1.76422e-07	0.717407
63.662	-1.4563e-07	0.713501
63.6864	-1.98853e-07	0.71106
63.7108	-1.5329e-07	0.708618
63.7352	-2.02087e-07	0.707428
63.7596	-1.67572e-07	0.704834
63.7841	-1.94061e-07	0.702545
63.8085	-1.90643e-07	0.698914
63.8329	-1.77399e-07	0.696594
63.8573	-1.81244e-07	0.694824
63.8817	-1.62262e-07	0.693146
63.9061	-1.97266e-07	0.690216
63.9305	-1.48468e-07	0.687012
63.955	-1.70837e-07	0.684387
63.9794	-1.4682e-07	0.681824
64.0038	-1.80481e-07	0.679413
64.0282	-1.54694e-07	0.67688
64.0526	-2.11304e-07	0.674957
64.077	-1.61255e-07	0.673706
64.1014	-2.10449e-07	0.67041
64.1259	-2.00623e-07	0.668243
64.1503	-2.13074e-07	0.664215
64.1747	-1.91986e-07	0.662933
64.1991	-1.89514e-07	0.661011
64.2235	-2.01599e-07	0.658936
64.2479	-1.80542e-07	0.656006
64.2723	-2.05475e-07	0.652954
64.2968	-1.69098e-07	0.649719
64.3212	-1.98944e-07	0.647675
64.3456	-1.6095e-07	0.645142
64.37	-2.13837e-07	0.643311
64.3944	-1.69495e-07	0.641754
64.4188	-2.22046e-07	0.639191
64.4432	-2.0285e-07	0.636963
64.4677	-2.27417e-07	0.633118
64.4921	-2.02667e-07	0.630646
64.5165	-2.12921e-07	0.629669
64.5409	-2.14294e-07	0.626892
64.5653	-1.97479e-07	0.624634
64.5897	-2.15729e-07	0.622345
64.6141	-1.87744e-07	0.618683
64.6386	-2.24762e-07	0.616852
64.663	-1.72821e-07	0.61319
64.6874	-2.06177e-07	0.611053
64.7118	-1.80847e-07	0.609222
64.7362	-2.42371e-07	0.607788
64.7606	-1.95648e-07	0.603821
64.785	-2.55524e-07	0.602661
64.8095	-2.12433e-07	0.599731
64.8339	-2.32361e-07	0.597321
64.8583	-2.0932e-07	0.595856
64.8827	-2.22076e-07	0.59256
64.9071	-2.17468e-07	0.590057
64.9315	-2.28424e-07	0.587158
64.9559	-2.36237e-07	0.585571
64.9803	-2.06696e-07	0.582062
65.0048	-2.12463e-07	0.579346
65.0292	-1.88873e-07	0.578033
65.0536	-2.29431e-07	0.576202
65.078	-1.97418e-07	0.57312
65.1024	-2.80212e-07	0.570679
65.1268	-2.31812e-07	0.568634
65.1512	-2.58942e-07	0.566223
65.1757	-2.43286e-07	0.563568
65.2001	-2.33734e-07	0.560364
65.2245	-2.39532e-07	0.557526
65.2489	-2.40051e-07	0.556183
65.2733	-2.5531e-07	0.552795
65.2977	-2.32849e-07	0.550232
65.3221	-2.54913e-07	0.548157
65.3466	-2.1698e-07	0.546143
65.371	-2.47681e-07	0.544067
65.3954	-2.12067e-07	0.541138
65.4198	-2.76337e-07	0.537964
65.4442	-2.25494e-07	0.53656
65.4686	-2.9425e-07	0.534454
65.493	-2.44598e-07	0.531586
65.5175	-2.72217e-07	0.52829
65.5419	-2.56866e-07	0.525452
65.5663	-2.7063e-07	0.52301
65.5907	-2.59766e-07	0.522461
65.6151	-2.5885e-07	0.519104
65.6395	-2.80975e-07	0.515717
65.6639	-2.46948e-07	0.514221
65.6884	-2.76398e-07	0.512207
65.7128	-2.40234e-07	0.510193
65.7372	-2.86224e-07	0.507935
65.7616	-2.47223e-07	0.503906
65.786	-3.05786e-07	0.502869
65.8104	-2.90833e-07	0.499481
65.8348	-3.479e-07	0.496368
65.8593	-3.11584e-07	0.49353
65.8837	-3.05481e-07	0.491302
65.9081	-3.42102e-07	0.488617
65.9325	-3.6377e-07	0.487213
65.9569	-3.25317e-07	0.484619
65.9813	-3.28369e-07	0.481049
66.0057	-3.38135e-07	0.479797
66.0302	-2.88391e-07	0.478058
66.0546	-3.2959e-07	0.475708
66.079	-2.97241e-07	0.473511
66.1034	-3.22266e-07	0.470703
66.1278	-2.99988e-07	0.467834
66.1522	-3.69263e-07	0.465424
66.1766	-3.20435e-07	0.461731
66.201	-3.92456e-07	0.459961
66.2255	-3.56445e-07	0.457062
66.2499	-4.13208e-07	0.455078
66.2743	-3.56445e-07	0.453094
66.2987	-3.75366e-07	0.449493
66.3231	-3.69568e-07	0.447327
66.3475	-3.65295e-07	0.446198
66.3719	-4.01611e-07	0.444031
66.3964	-3.54614e-07	0.440002
66.4208	-4.18701e-07	0.438568
66.4452	-3.60718e-07	0.435883
66.4696	-4.27551e-07	0.433411
66.494	-3.76892e-07	0.430237
66.5184	-4.4342e-07	0.42804
66.5428	-3.93982e-07	0.426605
66.5673	-4.73022e-07	0.422546
66.5917	-4.50439e-07	0.421112
66.6161	-4.48914e-07	0.417755
66.6405	-4.45251e-07	0.415955
66.6649	-4.21753e-07	0.414276
66.6893	-4.45557e-07	0.412201
66.7137	-4.28162e-07	0.408722
66.7382	-5.10559e-07	0.405945
66.7626	-4.22974e-07	0.404694
66.787	-4.70276e-07	0.401489
66.8114	-4.29382e-07	0.398743
66.8358	-5.05676e-07	0.396088
66.8602	-4.67529e-07	0.394653
66.8846	-5.54199e-07	0.392731
66.9091	-5.10559e-07	0.388428
66.9335	-5.42908e-07	0.386292
66.9579	-5.20935e-07	0.383423
66.9823	-5.22766e-07	0.3828125
67.0067	-5.34363e-07	0.380432
67.0311	-5.23682e-07	0.378113
67.0555	-5.896e-07	0.375153
67.08	-5.35583e-07	0.373566
67.1044	-5.74036e-07	0.370178
67.1288	-5.0293e-07	0.367096
67.1532	-5.73425e-07	0.364197
67.1776	-5.40771e-07	0.362671
67.202	-6.25305e-07	0.359467
67.2264	-6.20117e-07	0.357819
67.2509	-6.61621e-07	0.354523
67.2753	-6.17981e-07	0.3526
67.2997	-6.52161e-07	0.350067
67.3241	-6.49719e-07	0.348999
67.3485	-6.52771e-07	0.346649
67.3729	-6.79932e-07	0.343536
67.3973	-6.82373e-07	0.341553
67.4217	-6.96716e-07	0.339447
67.4462	-6.40564e-07	0.335724
67.4706	-6.80847e-07	0.332855
67.495	-6.65588e-07	0.330109
67.5194	-7.35474e-07	0.329651
67.5438	-7.31506e-07	0.326416
67.5682	-8.2428e-07	0.323517
67.5926	-7.53174e-07	0.320465
67.6171	-8.06885e-07	0.318848
67.6415	-8.02612e-07	0.31723
67.6659	-8.07495e-07	0.314972
67.6903	-8.56934e-07	0.311218
67.7147	-8.89587e-07	0.309204
67.7391	-8.92029e-07	0.30722
67.7635	-8.38318e-07	0.304626
67.788	-8.72498e-07	0.301239
67.8124	-8.39844e-07	0.298676
67.8368	-9.20715e-07	0.297638
67.8612	-9.00879e-07	0.293274
67.8856	-1.02905e-06	0.291992
67.91	-9.52759e-07	0.289886
67.9344	-1.01685e-06	0.286224
67.9589	-9.95178e-07	0.284241
67.9833	-1.03912e-06	0.282928
68.0077	-1.07086e-06	0.280823
68.0321	-1.11511e-06	0.276306
68.0565	-1.15662e-06	0.2742
68.0809	-1.1203e-06	0.272522
68.1053	-1.15143e-06	0.271179
68.1298	-1.13678e-06	0.268433
68.1542	-1.19049e-06	0.265289
68.1786	-1.17676e-06	0.262695
68.203	-1.29944e-06	0.261353
68.2274	-1.27533e-06	0.257141
68.2518	-1.32416e-06	0.254761
68.2762	-1.33636e-06	0.251801
68.3007	-1.40778e-06	0.251129
68.3251	-1.40259e-06	0.249176
68.3495	-1.49628e-06	0.245941
68.3739	-1.55365e-06	0.242462
68.3983	-1.55518e-06	0.240051
68.4227	-1.58691e-06	0.238525
68.4471	-1.60065e-06	0.237
68.4716	-1.65436e-06	0.234497
68.496	-1.62994e-06	0.231506
68.5204	-1.79016e-06	0.228241
68.5448	-1.79474e-06	0.226044
68.5692	-1.83868e-06	0.22287
68.5936	-1.83594e-06	0.220612
68.618	-1.95557e-06	0.218384
68.6424	-1.97662e-06	0.217102
68.6669	-2.10419e-06	0.215179
68.6913	-2.15546e-06	0.211639
68.7157	-2.2467e-06	0.208099
68.7401	-2.24274e-06	0.20636
68.7645	-2.29401e-06	0.205353
68.7889	-2.37396e-06	0.202881
68.8133	-2.41608e-06	0.20047
68.8378	-2.53113e-06	0.196655
68.8622	-2.60132e-06	0.194275
68.8866	-2.67365e-06	0.192505
68.911	-2.67731e-06	0.189148
68.9354	-2.79297e-06	0.186707
68.9598	-2.86133e-06	0.18515
68.9842	-2.96722e-06	0.183594
69.0087	-3.08563e-06	0.181152
69.0331	-3.85437e-06	0.176941
69.0575	-3.93372e-06	0.174469
69.0819	-4.0863e-06	0.172852
69.1063	-4.17175e-06	0.171021
69.1307	-4.29993e-06	0.167969
69.1551	-4.46472e-06	0.166138
69.1796	-4.53796e-06	0.163239
69.204	-4.71497e-06	0.160004
69.2284	-4.74243e-06	0.156799
69.2528	-5.0354e-06	0.154663
69.2772	-5.09033e-06	0.153229
69.3016	-5.34668e-06	0.151367
69.326	-5.41077e-06	0.14798
69.3505	-5.66711e-06	0.145874
69.3749	-5.79834e-06	0.143188
69.3993	-5.9906e-06	0.14151
69.4237	-6.12488e-06	0.139252
69.4481	-6.31714e-06	0.135895
69.4725	-6.47888e-06	0.133636
69.4969	-6.64978e-06	0.131348
69.5214	-6.84509e-06	0.129089
69.5458	-6.95801e-06	0.125366
69.5702	-7.21741e-06	0.122894
69.5946	-7.33643e-06	0.121155
69.619	-7.59583e-06	0.119781
69.6434	-7.71484e-06	0.11676
69.6678	-8.04443e-06	0.114594
69.6923	-8.17261e-06	0.112305
69.7167	-8.46863e-06	0.109711
69.7411	-8.63037e-06	0.107605
69.7655	-8.84094e-06	0.10498
69.7899	-9.08508e-06	0.102234
69.8143	-9.32312e-06	0.0993652
69.8387	-9.55505e-06	0.0974121
69.8631	-9.71985e-06	0.0953979
69.8876	-1.00372e-05	0.0915833
69.912	-1.01837e-05	0.0886536
69.9364	-1.05225e-05	0.0865173
69.9608	-1.0675e-05	0.0855103
69.9852	-1.09619e-05	0.0822449
70.0096	-1.12274e-05	0.0808105
70.034	-1.16272e-05	0.078125
70.0585	-1.18134e-05	0.0756836
70.0829	-1.21643e-05	0.0734253
70.1073	-1.24268e-05	0.0703125
70.1317	-1.27502e-05	0.0675049
70.1561	-1.30341e-05	0.0653381
70.1805	-1.33789e-05	0.0638428
70.2049	-1.36963e-05	0.0610046
70.2294	-1.39862e-05	0.0575867
70.2538	-1.43677e-05	0.0544739
70.2782	-1.45966e-05	0.0527344
70.3026	-1.50482e-05	0.0499573
70.327	-1.5332e-05	0.0475677
70.3514	-1.58173e-05	0.0466949
70.3758	-1.61377e-05	0.0442108
70.4003	-1.66382e-05	0.0414948
70.4247	-1.69373e-05	0.038269
70.4491	-1.73828e-05	0.0352142
70.4735	-1.77948e-05	0.0325378
70.4979	-1.8222e-05	0.031958
70.5223	-1.87225e-05	0.0295135
70.5467	-1.91284e-05	0.0256287
70.5712	-1.96472e-05	0.0229065
70.5956	-2.00104e-05	0.0207611
70.62	-2.05658e-05	0.0194794
70.6444	-2.10052e-05	0.0167969
70.6688	-2.1579e-05	0.0149597
70.6932	-2.1991e-05	0.0125336
70.7176	-2.26349e-05	0.00985107
70.7421	-2.31537e-05	0.00644836
70.7665	-2.37701e-05	0.00344543
70.7909	-2.42706e-05	0.00161438
70.8153	-2.49023e-05	-0.00110474
70.8397	-2.5473e-05	-0.00221252
70.8641	-2.60651e-05	-0.00585632
70.8885	-2.67181e-05	-0.00871277
70.913	-2.73254e-05	-0.0108154
70.9374	-2.80243e-05	-0.0128265
70.9618	-2.85339e-05	-0.0154449
70.9862	-2.93579e-05	-0.0168793
71.0106	-2.99286e-05	-0.019635
71.035	-3.07312e-05	-0.0224274
71.0594	-3.14087e-05	-0.0256134
71.0838	-3.22357e-05	-0.0272675
71.1083	-3.29376e-05	-0.0293152
71.1327	-3.37616e-05	-0.0330536
71.1571	-3.44879e-05	-0.0349976
71.1815	-3.53058e-05	-0.0378021
71.2059	-3.61328e-05	-0.0398224
71.2303	-3.69385e-05	-0.0415771
71.2547	-3.78387e-05	-0.0438629
71.2792	-3.86047e-05	-0.0465057
71.3036	-3.95508e-05	-0.0500946
71.328	-4.03229e-05	-0.0516968
71.3524	-4.13818e-05	-0.0547485
71.3768	-4.22363e-05	-0.0574036
71.4012	-4.33044e-05	-0.0597534
71.4256	-4.41589e-05	-0.0613403
71.4501	-4.51965e-05	-0.0643921
71.4745	-4.62036e-05	-0.0670471
71.4989	-4.72717e-05	-0.0696411
71.5233	-4.83093e-05	-0.0720825
71.5477	-4.93164e-05	-0.073761
71.5721	-5.0415e-05	-0.0757446
71.5965	-5.14526e-05	-0.078064
71.621	-5.26428e-05	-0.0804443
71.6454	-5.37415e-05	-0.0829468
71.6698	-5.49622e-05	-0.0861816
71.6942	-5.60303e-05	-0.0891113
71.7186	-5.73425e-05	-0.0914612
71.743	-5.85022e-05	-0.0930176
71.7674	-5.9906e-05	-0.0951538
71.7919	-6.10962e-05	-0.0987244
71.8163	-6.25E-05	-0.101257
71.8407	-6.38123e-05	-0.103577
71.8651	-6.51245e-05	-0.105194
71.8895	-6.64978e-05	-0.10733
71.9139	-6.79016e-05	-0.109894
71.9383	-6.93665e-05	-0.113617
71.9628	-7.07703e-05	-0.11499
71.9872	-7.22961e-05	-0.117401
72.0116	-7.37305e-05	-0.120819
72.036	-7.54395e-05	-0.123322
72.0604	-7.68738e-05	-0.124969
72.0848	-7.85828e-05	-0.127045
72.1092	-8.01086e-05	-0.129791
72.1337	-8.19702e-05	-0.131683
72.1581	-8.35876e-05	-0.134613
72.1825	-8.54187e-05	-0.136627
72.2069	-8.71582e-05	-0.139557
72.2313	-8.89587e-05	-0.142487
72.2557	-9.08813e-05	-0.144043
72.2801	-9.27734e-05	-0.14682
72.3045	-9.47571e-05	-0.149017
72.329	-9.66797e-05	-0.152435
72.3534	-9.88159e-05	-0.154449
72.3778	-0.000100708	-0.15625
72.4022	-0.000102997	-0.158783
72.4266	-0.000105072	-0.161072
72.451	-0.000107483	-0.164856
72.4754	-0.00010968	-0.166199
72.4999	-0.000112122	-0.168854
72.5243	-0.000114441	-0.171906
72.5487	-0.000116943	-0.1745
72.5731	-0.000119476	-0.176514
72.5975	-0.000121918	-0.178528
72.6219	-0.000124542	-0.181671
72.6463	-0.000127136	-0.184052
72.6708	-0.000129913	-0.185577
72.6952	-0.000132477	-0.187805
72.7196	-0.000135376	-0.190552
72.744	-0.000138062	-0.194061
72.7684	-0.000141052	-0.19577
72.7928	-0.00014386	-0.198853
72.8172	-0.000146973	-0.201172
72.8417	-0.000149841	-0.203339
72.8661	-0.000152924	-0.204773
72.8905	-0.000155945	-0.207367
72.9149	-0.000159058	-0.210724
72.9393	-0.000162231	-0.212036
72.9637	-0.000165405	-0.214783
72.9881	-0.000168701	-0.217072
73.0126	-0.000171967	-0.220154
73.037	-0.000175415	-0.222961
73.0614	-0.000178741	-0.225189
73.0858	-0.000182281	-0.226593
73.1102	-0.00018576	-0.229187
73.1346	-0.000189484	-0.231598
73.159	-0.000193115	-0.2341
73.1835	-0.000197021	-0.236877
73.2079	-0.000200775	-0.240112
73.2323	-0.000204742	-0.242706
73.2567	-0.000208771	-0.243591
73.2811	-0.000212738	-0.246307
73.3055	-0.00021698	-0.24942
73.3299	-0.000221161	-0.252289
73.3544	-0.000225616	-0.254242
73.3788	-0.000229919	-0.256134
73.4032	-0.000234589	-0.25946
73.4276	-0.000239044	-0.261993
73.452	-0.000243958	-0.263702
73.4764	-0.000248688	-0.266571
73.5008	-0.000253754	-0.269348
73.5252	-0.000258759	-0.271332
73.5497	-0.000263947	-0.272827
73.5741	-0.000269196	-0.275238
73.5985	-0.000274567	-0.2789
73.6229	-0.00028009	-0.281464
73.6473	-0.000285645	-0.282806
73.6717	-0.000291412	-0.284943
73.6961	-0.000297211	-0.28775
73.7206	-0.000303314	-0.290771
73.745	-0.000309357	-0.29306
73.7694	-0.000315735	-0.296509
73.7938	-0.000322052	-0.298737
73.8182	-0.000328796	-0.300507
73.8426	-0.000335449	-0.302582
73.867	-0.000342499	-0.30603
73.8915	-0.000349487	-0.307739
73.9159	-0.000356812	-0.31131
73.9403	-0.000364319	-0.312347
73.9647	-0.000371887	-0.31546
73.9891	-0.0003797	-0.318451
74.0135	-0.000387604	-0.320831
74.0379	-0.000395844	-0.323059
74.0624	-0.000404083	-0.324432
74.0868	-0.00041272	-0.327179
74.1112	-0.000421295	-0.329437
74.1356	-0.00043045	-0.332489
74.16	-0.000439484	-0.335663
74.1844	-0.000449005	-0.337708
74.2088	-0.000458466	-0.339203
74.2333	-0.000468384	-0.342712
74.2577	-0.000478333	-0.345367
74.2821	-0.000488647	-0.347534
74.3065	-0.000499268	-0.349121
74.3309	-0.000509644	-0.3515625
74.3553	-0.00052063	-0.35437
74.3797	-0.000531616	-0.356171
74.4042	-0.000542908	-0.360016
74.4286	-0.000554199	-0.362396
74.453	-0.000566101	-0.364349
74.4774	-0.000578003	-0.366211
74.5018	-0.00059021	-0.368439
74.5262	-0.000602417	-0.372101
74.5506	-0.000614929	-0.373413
74.5751	-0.000627747	-0.377106
74.5995	-0.000640564	-0.378967
74.6239	-0.000653687	-0.381744
74.6483	-0.000667114	-0.384308
74.6727	-0.000680542	-0.386108
74.6971	-0.000694275	-0.388092
74.7215	-0.000708618	-0.391571
74.7459	-0.000722656	-0.393463
74.7704	-0.000737305	-0.395294
74.7948	-0.000751953	-0.398499
74.8192	-0.000767212	-0.401367
74.8436	-0.000782166	-0.403503
74.868	-0.000798035	-0.405701
74.8924	-0.000813599	-0.408661
74.9168	-0.000830078	-0.410034
74.9413	-0.000846252	-0.412445
74.9657	-0.000863037	-0.414825
74.9901	-0.000880127	-0.418091
75.0145	-0.000897522	-0.421051
75.0389	-0.000915222	-0.422791
75.0633	-0.000933228	-0.425476
75.0877	-0.000951538	-0.428284
75.1122	-0.000970154	-0.430054
75.1366	-0.00098938	-0.431976
75.161	-0.00100861	-0.434387
75.1854	-0.00102844	-0.437958
75.2098	-0.00104828	-0.440552
75.2342	-0.00106903	-0.442871
75.2586	-0.00108978	-0.445282
75.2831	-0.00111115	-0.447357
75.3075	-0.00113251	-0.449005
75.3319	-0.00115448	-0.451385
75.3563	-0.00117676	-0.453766
75.3807	-0.00119934	-0.45755
75.4051	-0.00122253	-0.458832
75.4295	-0.00124573	-0.461487
75.454	-0.00126953	-0.464783
75.4784	-0.00129364	-0.467255
75.5028	-0.00131805	-0.468811
75.5272	-0.00134277	-0.472198
75.5516	-0.0013681	-0.473633
75.576	-0.00139343	-0.475983
75.6004	-0.00141968	-0.47876
75.6249	-0.00144562	-0.481598
75.6493	-0.00147247	-0.484131
75.6737	-0.00149933	-0.485687
75.6981	-0.00152679	-0.489166
75.7225	-0.00155426	-0.491455
75.7469	-0.00158234	-0.494019
75.7713	-0.00161072	-0.495514
75.7958	-0.0016391	-0.49762
75.8202	-0.00166809	-0.500336
75.8446	-0.00169739	-0.503357
75.869	-0.00172699	-0.504791
75.8934	-0.00175659	-0.508453
75.9178	-0.00178711	-0.510406
75.9422	-0.00181702	-0.512451
75.9666	-0.00184784	-0.514709
75.9911	-0.00187866	-0.517975
76.0155	-0.00190979	-0.519531
76.0399	-0.00194122	-0.522217
76.0643	-0.00197235	-0.524261
76.0887	-0.00200439	-0.527405
76.1131	-0.00203613	-0.530548
76.1375	-0.00206818	-0.532715
76.162	-0.00209991	-0.534241
76.1864	-0.00213257	-0.536377
76.2108	-0.00216461	-0.539001
76.2352	-0.00219696	-0.542084
76.2596	-0.00222961	-0.545013
76.284	-0.00226227	-0.547363
76.3084	-0.00229462	-0.548828
76.3329	-0.00232727	-0.551025
76.3573	-0.00235992	-0.554993
76.3817	-0.00239227	-0.557098
76.4061	-0.00242493	-0.559296
76.4305	-0.00245728	-0.560791
76.4549	-0.00248993	-0.56366
76.4793	-0.00252228	-0.566467
76.5038	-0.00255493	-0.568024
76.5282	-0.00258698	-0.57132
76.5526	-0.00261963	-0.574097
76.577	-0.00265167	-0.575439
76.6014	-0.00268402	-0.577911
76.6258	-0.00271606	-0.581329
76.6502	-0.00274811	-0.583771
76.6747	-0.00278015	-0.585144
76.6991	-0.00281219	-0.588837
76.7235	-0.00284393	-0.590942
76.7479	-0.00287567	-0.593597
76.7723	-0.00290771	-0.595428
76.7967	-0.00293915	-0.597229
76.8211	-0.00297119	-0.599701
76.8456	-0.00300262	-0.602264
76.87	-0.00303467	-0.604767
76.8944	-0.0030661	-0.608276
76.9188	-0.00309814	-0.610779
76.9432	-0.00312988	-0.612488
76.9676	-0.00316193	-0.614349
76.992	-0.00319366	-0.616577
77.0165	-0.00322571	-0.620575
77.0409	-0.00325775	-0.621674
77.0653	-0.00328979	-0.624115
77.0897	-0.00332214	-0.626923
77.1141	-0.00335419	-0.630127
77.1385	-0.00338684	-0.632538
77.1629	-0.00341919	-0.634155
77.1873	-0.00345184	-0.637512
77.2118	-0.0034845	-0.639069
77.2362	-0.00351746	-0.641052
77.2606	-0.00355011	-0.644104
77.285	-0.00358337	-0.647217
77.3094	-0.00361633	-0.648621
77.3338	-0.0036496	-0.651794
77.3582	-0.00368286	-0.654358
77.3827	-0.00371613	-0.656647
77.4071	-0.00374939	-0.658539
77.4315	-0.00378235	-0.660431
77.4559	-0.00381561	-0.663116
77.4803	-0.00384827	-0.665253
77.5047	-0.00388153	-0.669006
77.5291	-0.00391388	-0.670624
77.5536	-0.00394684	-0.67395
77.578	-0.00397919	-0.675934
77.6024	-0.00401154	-0.677643
77.6268	-0.00404297	-0.680359
77.6512	-0.00407471	-0.682739
77.6756	-0.00410583	-0.686035
77.7	-0.00413666	-0.688019
77.7245	-0.00416656	-0.690247
77.7489	-0.00419647	-0.693329
77.7733	-0.00422577	-0.694855
77.7977	-0.00425415	-0.69696
77.8221	-0.00428253	-0.700714
77.8465	-0.00431	-0.703064
77.8709	-0.00433716	-0.704651
77.8954	-0.00436371	-0.706635
77.9198	-0.00438965	-0.709625
77.9442	-0.00441467	-0.712769
77.9686	-0.0044397	-0.715332
77.993	-0.00446381	-0.717194
78.0174	-0.00448761	-0.719208
78.0418	-0.0045105	-0.721527
78.0663	-0.00453308	-0.723602
78.0907	-0.00455505	-0.726379
78.1151	-0.00457642	-0.729767
78.1395	-0.00459747	-0.732025
78.1639	-0.00461792	-0.733582
78.1883	-0.00463776	-0.735687
78.2127	-0.00465729	-0.739532
78.2372	-0.00467651	-0.741852
78.2616	-0.00469482	-0.74353
78.286	-0.00471313	-0.745636
78.3104	-0.00473083	-0.748871
78.3348	-0.00474854	-0.75119
78.3592	-0.004765625	-0.75592
78.3836	-0.0047821	-0.757446
78.408	-0.00479858	-0.758972
78.4325	-0.00481445	-0.761414
78.4569	-0.00483002	-0.763855
78.4813	-0.00484528	-0.768433
78.5057	-0.00486053	-0.769348
78.5301	-0.00487518	-0.771179
78.5545	-0.00488953	-0.775146
78.5789	-0.00490387	-0.777893
78.6034	-0.00491791	-0.779419
78.6278	-0.00493134	-0.78186
78.6522	-0.00494476	-0.783081
78.6766	-0.00495789	-0.785828
78.701	-0.0049707	-0.788574
78.7254	-0.00498352	-0.792236
78.7498	-0.00499603	-0.794678
78.7743	-0.00500824	-0.795593
78.7987	-0.00502014	-0.798645
78.8231	-0.00503235	-0.802002
78.8475	-0.00504395	-0.804138
78.8719	-0.00505554	-0.805664
78.8963	-0.00506683	-0.8078
78.9207	-0.005078125	-0.810242
78.9452	-0.00508911	-0.812988
78.9696	-0.00509979	-0.814819
78.994	-0.00511047	-0.819397
79.0184	-0.00512115	-0.821533
79.0428	-0.00513123	-0.823059
79.0672	-0.0051416	-0.825195
79.0916	-0.00515167	-0.828857
79.1161	-0.00516174	-0.829468
79.1405	-0.00517151	-0.833435
79.1649	-0.00518127	-0.835266
79.1893	-0.00519073	-0.838318
79.2137	-0.0052002	-0.840454
79.2381	-0.00520966	-0.842896
79.2625	-0.00521881	-0.844116
79.287	-0.00522797	-0.846252
79.3114	-0.00523682	-0.849304
79.3358	-0.00524567	-0.852356
79.3602	-0.00525421	-0.855408
79.3846	-0.00526306	-0.858154
79.409	-0.00527161	-0.85907
79.4334	-0.00528015	-0.861206
79.4579	-0.00528839	-0.865479
79.4823	-0.00529663	-0.866699
79.5067	-0.00530457	-0.86853
79.5311	-0.0053125	-0.871582
79.5555	-0.00532043	-0.874634
79.5799	-0.00532837	-0.877686
79.6043	-0.005336	-0.878296
79.6287	-0.00534363	-0.882568
79.6532	-0.00535126	-0.88501
79.6776	-0.00535858	-0.88562
79.702	-0.00536621	-0.888062
79.7264	-0.00537323	-0.892334
79.7508	-0.00538055	-0.894775
79.7752	-0.00538757	-0.897217
79.7996	-0.00539459	-0.900269
79.8241	-0.00540161	-0.9021
79.8485	-0.00540833	-0.904846
79.8729	-0.00541504	-0.906372
79.8973	-0.00542175	-0.908508
79.9217	-0.00542847	-0.910339
79.9461	-0.00543488	-0.914307
79.9705	-0.00544159	-0.915222
79.995	-0.00544769	-0.918274
80.0194	-0.0054541	-0.921631
80.0438	-0.00546051	-0.924377
80.0682	-0.00546661	-0.924988
80.0926	-0.00547272	-0.928345
80.117	-0.00547852	-0.930481
80.1414	-0.00548462	-0.932007
80.1659	-0.00549042	-0.935059
80.1903	-0.00549622	-0.937805
80.2147	-0.00550201	-0.941467
80.2391	-0.00550781	-0.942993
80.2635	-0.00551331	-0.946045
80.2879	-0.0055188	-0.947876
80.3123	-0.00552429	-0.950623
80.3368	-0.00552979	-0.952759
80.3612	-0.00553497	-0.954285
80.3856	-0.00554047	-0.957031
80.41	-0.00554565	-0.960083
80.4344	-0.00555054	-0.961304
80.4588	-0.00555573	-0.965271
80.4832	-0.00556061	-0.968018
80.5077	-0.00556549	-0.969849
80.5321	-0.00557068	-0.971375
80.5565	-0.00557526	-0.973206
80.5809	-0.00558014	-0.977783
80.6053	-0.00558472	-0.978699
80.6297	-0.0055896	-0.98114
80.6541	-0.00559418	-0.983582
80.6786	-0.00559845	-0.987549
80.703	-0.00560303	-0.98999
80.7274	-0.0056076	-0.991211
80.7518	-0.00561188	-0.993042
80.7762	-0.00561615	-0.996094
80.8006	-0.00562042	-0.99823
80.825	-0.00562469	-1.00037