File: Edgar/20240607/20240607/electrodeposition_pulsed_potential_20240607_D/pulses_3000_to_4000.txt
Time (s)	WE(1).Potential (V)	WE(1).Current (A)
2307.86	-0.69754	-0.0212402
2308.32	0.000253296	0.00324799
2308.8	-0.000686646	0.00686218
2309.26	-0.697906	-0.018512
2309.72	-0.000387573	0.0044928
2310.2	-0.000527954	0.00736877
2310.66	-0.699066	-0.0182373
2311.12	-0.000378418	0.00464478
2311.6	-0.000534058	0.00745728
2312.06	-0.697998	-0.0181915
2312.52	0.000808716	0.00467621
2313	0.000531006	0.00747467
2313.46	-0.698822	-0.0181549
2313.92	-0.000119019	0.00470245
2314.4	-0.000314331	0.00749786
2314.86	-0.698029	-0.0181519
2315.32	-0.000137329	0.00471008
2315.8	0.000408936	0.00749817
2316.26	-0.698059	-0.018158
2316.72	-0.000506592	0.00472412
2317.2	0.000592041	0.00751038
2317.66	-0.699005	-0.0181396
2318.12	-0.000506592	0.00473053
2318.6	0.00032959	0.00752258
2319.06	-0.698578	-0.0181396
2319.52	-9.15527e-05	0.00473511
2320	-0.000683594	0.00752869
2320.46	-0.698853	-0.0181274
2320.92	-0.000585937	0.00473938
2321.4	-5.18799e-05	0.00752869
2321.86	-0.698425	-0.0181274
2322.32	0.000576782	0.00473541
2322.8	0.000598145	0.00753174
2323.26	-0.699036	-0.0181183
2323.72	0.000442505	0.00473694
2324.2	-0.000762939	0.00753479
2324.66	-0.697632	-0.0181274
2325.12	0.000775146	0.0047403
2325.6	0.000375366	0.00752869
2326.06	-0.697601	-0.0181183
2326.52	0.000823975	0.0047406
2327	-0.000100708	0.00752869
2327.46	-0.697815	-0.0181122
2327.92	-0.00032959	0.00474915
2328.4	0.000115967	0.00753784
2328.86	-0.697662	-0.0181183
2329.32	0.000820923	0.00474579
2329.8	-0.000695801	0.00754089
2330.26	-0.697632	-0.0181152
2330.72	-0.000332642	0.00475586
2331.2	-0.000146484	0.00754089
2331.66	-0.699005	-0.018103
2332.12	0.000784302	0.00474792
2332.6	-0.000558472	0.00753174
2333.06	-0.698761	-0.018103
2333.52	-0.000418091	0.00475647
2334	-0.000750732	0.00754089
2334.46	-0.697693	-0.0181183
2334.92	6.40869e-05	0.00475861
2335.4	0.000534058	0.007547
2335.86	-0.698853	-0.018103
2336.32	-0.000161743	0.00476196
2336.8	-0.00012207	0.007547
2337.26	-0.697693	-0.0181091
2337.72	-0.000106812	0.00476288
2338.2	-0.000314331	0.007547
2338.66	-0.699005	-0.0181061
2339.12	-0.000497437	0.0047641
2339.6	0.000305176	0.00752869
2340.06	-0.698395	-0.018103
2340.52	0.000738525	0.00475555
2341	0.000497437	0.00753784
2341.46	-0.697845	-0.018103
2341.92	-0.000564575	0.0047641
2342.4	-0.000485229	0.00753174
2342.86	-0.698944	-0.0180969
2343.32	0.000476074	0.00476501
2343.8	0.000534058	0.00754089
2344.26	-0.697693	-0.0181
2344.72	0.000897217	0.00476044
2345.2	0.000167847	0.00753174
2345.66	-0.698578	-0.018103
2346.12	0.000643921	0.00475952
2346.6	0.000296021	0.00753174
2347.06	-0.698975	-0.0180939
2347.52	0.000732422	0.00475952
2348	0.000546265	0.00754089
2348.46	-0.697662	-0.0180939
2348.92	0.000421143	0.00476501
2349.4	-0.000341797	0.00754089
2349.86	-0.699127	-0.0180878
2350.32	-0.000506592	0.00476807
2350.8	0.00057373	0.00753479
2351.26	-0.697845	-0.0180878
2351.72	6.71387e-05	0.00476624
2352.2	0.00020752	0.00753479
2352.66	-0.697845	-0.0180878
2353.12	0.000378418	0.00476257
2353.6	-0.000262451	0.00753174
2354.06	-0.698151	-0.0180939
2354.52	0.000857544	0.00476196
2355	-6.40869e-05	0.00753174
2355.46	-0.697998	-0.0180908
2355.92	0.000650024	0.00476807
2356.4	0.000558472	0.00752869
2356.86	-0.697632	-0.0180817
2357.32	0.000415039	0.00476776
2357.8	0.000537109	0.00753784
2358.26	-0.697815	-0.0180908
2358.72	0.000424194	0.00476807
2359.2	0.000192261	0.00752563
2359.66	-0.697845	-0.0180847
2360.12	-0.000396729	0.00477478
2360.6	-2.44141e-05	0.00752563
2361.06	-0.697601	-0.0180847
2361.52	0.000698853	0.00476807
2362	-0.000692749	0.00753784
2362.46	-0.69809	-0.0180725
2362.92	0.000631714	0.00476959
2363.4	-0.000418091	0.00752869
2363.86	-0.698181	-0.0180817
2364.32	0.000268555	0.00477203
2364.8	0.000112915	0.00752258
2365.26	-0.698425	-0.0180756
2365.72	0.000253296	0.00477325
2366.2	0.000524902	0.00753479
2366.66	-0.699036	-0.0180756
2367.12	-3.66211e-05	0.00477753
2367.6	0.000598145	0.00752869
2368.06	-0.698334	-0.0180878
2368.52	0.000753784	0.00476746
2369	-0.000863647	0.00752869
2369.46	-0.697876	-0.0180847
2369.92	0.000350952	0.00477386
2370.4	0.000485229	0.00752258
2370.86	-0.698303	-0.0180847
2371.32	0.000799561	0.00477051
2371.8	-0.000622559	0.00752869
2372.26	-0.698608	-0.0180847
2372.72	-0.000518799	0.00478027
2373.2	0.000430298	0.00752258
2373.66	-0.699097	-0.0180817
2374.12	0.000442505	0.00477081
2374.6	-0.000250244	0.00753479
2375.06	-0.698456	-0.0180725
2375.52	0.000634766	0.00477081
2376	-0.00062561	0.00752258
2376.46	-0.698578	-0.0180786
2376.92	-0.00050354	0.0047818
2377.4	-7.01904e-05	0.00753174
2377.86	-0.697693	-0.0180786
2378.32	0.000784302	0.00477692
2378.8	0.000619507	0.00752563
2379.26	-0.699036	-0.0180725
2379.72	-0.000344849	0.00477997
2380.2	-0.000656128	0.00752869
2380.66	-0.697876	-0.0180725
2381.12	0.000515747	0.00477631
2381.6	0.000527954	0.00751953
2382.06	-0.697693	-0.0180725
2382.52	0.000811768	0.00477325
2383	-0.000704956	0.00752563
2383.46	-0.698517	-0.0180786
2383.92	-0.000317383	0.00477875
2384.4	-0.000189209	0.00753174
2384.86	-0.698669	-0.0180695
2385.32	-0.000213623	0.00478302
2385.8	0.00057373	0.00751648
2386.26	-0.698914	-0.0180664
2386.72	-0.000518799	0.00478271
2387.2	0.000338745	0.00752869
2387.66	-0.698975	-0.0180725
2388.12	-0.00038147	0.00478302
2388.6	-0.000656128	0.00752563
2389.06	-0.698242	-0.0180817
2389.52	0.000723267	0.00477386
2390	0.000567627	0.00751953
2390.46	-0.698364	-0.0180756
2390.92	-0.000311279	0.00477936
2391.4	-0.00043335	0.00751953
2391.86	-0.699066	-0.0180756
2392.32	0.000289917	0.0047702
2392.8	-0.000695801	0.00751648
2393.26	-0.698914	-0.0180817
2393.72	0.00065918	0.00477112
2394.2	-0.000241089	0.00750732
2394.66	-0.698639	-0.0180725
2395.12	-0.000512695	0.00477814
2395.6	0.000228882	0.00749817
2396.06	-0.698242	-0.0180786
2396.52	0.000405884	0.00477081
2397	0.000585937	0.00751038
2397.46	-0.697693	-0.0180786
2397.92	-3.05176e-05	0.00477844
2398.4	-0.000793457	0.00751038
2398.86	-0.699005	-0.0180756
2399.32	-0.000619507	0.00477661
2399.8	-0.000161743	0.00749817
2400.26	-0.697662	-0.0180756
2400.72	0.000506592	0.00476868
2401.2	-0.00071106	0.00751648
2401.66	-0.698181	-0.0180817
2402.12	0.000387573	0.00476807
2402.6	-0.000320435	0.00750214
2403.06	-0.698853	-0.0180664
2403.52	0.000131226	0.00477356
2404	0.000567627	0.00749817
2404.46	-0.698517	-0.0180603
2404.92	-0.000183105	0.00477264
2405.4	-0.000616455	0.00750458
2405.86	-0.698303	-0.0180786
2406.32	0.000500488	0.00477234
2406.8	0.000415039	0.00749817
2407.26	-0.698456	-0.0180756
2407.72	0.000854492	0.00476807
2408.2	-0.000576782	0.00750214
2408.66	-0.697815	-0.0180786
2409.12	0.000811768	0.00477173
2409.6	-0.00050354	0.00750458
2410.06	-0.699066	-0.0180695
2410.52	0.000616455	0.00476868
2411	-0.000180054	0.00750427
2411.46	-0.698334	-0.0180664
2411.92	-0.000393677	0.0047757
2412.4	-0.000622559	0.00750305
2412.86	-0.697723	-0.0180756
2413.32	-0.000372314	0.00477936
2413.8	-0.000442505	0.00750092
2414.26	-0.698975	-0.0180786
2414.72	0.000744629	0.00477173
2415.2	-0.000158691	0.0075
2415.66	-0.69751	-0.0180756
2416.12	0.000457764	0.00477234
2416.6	0.000582886	0.00749817
2417.06	-0.697754	-0.0180695
2417.52	-0.000485229	0.00477936
2418	-0.000286865	0.00749359
2418.46	-0.698761	-0.0180725
2418.92	0.000784302	0.00477142
2419.4	0.000604248	0.00748901
2419.86	-0.698944	-0.0180634
2420.32	0.000735474	0.00477173
2420.8	0.000790405	0.00749146
2421.26	-0.697998	-0.0180664
2421.72	0.000509644	0.004776
2422.2	-0.000350952	0.00749878
2422.66	-0.697662	-0.0180695
2423.12	0.000640869	0.00477386
2423.6	0.000344849	0.00750732
2424.06	-0.697601	-0.0180695
2424.52	6.71387e-05	0.00478088
2425	-0.000610352	0.00750275
2425.46	-0.697815	-0.0180786
2425.92	-0.000561523	0.00478302
2426.4	0.000411987	0.00749329
2426.86	-0.699005	-0.0180695
2427.32	-2.44141e-05	0.00477875
2427.8	0.000384521	0.00750427
2428.26	-0.697784	-0.0180817
2428.72	-0.000268555	0.00478638
2429.2	-0.000585937	0.00750061
2429.66	-0.697968	-0.0180695
2430.12	6.40869e-05	0.00477722
2430.6	0.00055542	0.00749512
2431.06	-0.697662	-0.0180817
2431.52	-0.000460815	0.00478851
2432	-0.000692749	0.00750122
2432.46	-0.698883	-0.0180695
2432.92	0.000735474	0.00478119
2433.4	0.000543213	0.00749207
2433.86	-0.699036	-0.0180664
2434.32	0.000747681	0.00477936
2434.8	-0.000445557	0.00749969
2435.26	-0.699127	-0.0180603
2435.72	0.000784302	0.00478241
2436.2	-0.000604248	0.00750031
2436.66	-0.698669	-0.0180542
2437.12	-0.000180054	0.00478912
2437.6	-0.000576782	0.00750183
2438.06	-0.698578	-0.0180573
2438.52	0.000939941	0.00478455
2439	3.66211e-05	0.00749969
2439.46	-0.698669	-0.0180511
2439.92	0.000100708	0.00478455
2440.4	0.000793457	0.00749054
2440.86	-0.699036	-0.0180573
2441.32	-0.000274658	0.00479187
2441.8	0.000643921	0.00748718
2442.26	-0.697632	-0.0180573
2442.72	0.000570679	0.00478333
2443.2	0.000201416	0.0074881
2443.66	-0.697906	-0.0180664
2444.12	-0.000219727	0.00478882
2444.6	-0.000592041	0.00749542
2445.06	-0.698883	-0.0180481
2445.52	-0.000436401	0.00479187
2446	-0.000521851	0.00749969
2446.46	-0.699005	-0.0180542
2446.92	0.000814819	0.00478699
2447.4	0.000384521	0.00748871
2447.86	-0.697906	-0.0180634
2448.32	-9.76562e-05	0.0047876
2448.8	-0.000109863	0.00749634
2449.26	-0.697876	-0.0180511
2449.72	0.000259399	0.00479218
2450.2	0.000561523	0.00748535
2450.66	-0.699005	-0.0180481
2451.12	-0.000448608	0.00479584
2451.6	-0.000405884	0.0074939
2452.06	-0.697571	-0.0180573
2452.52	0.000805664	0.00478821
2453	0.000701904	0.00748505
2453.46	-0.698151	-0.018042
2453.92	-0.000314331	0.00479492
2454.4	-0.00045166	0.00748993
2454.86	-0.698151	-0.0180573
2455.32	-0.000183105	0.00479645
2455.8	-0.000650024	0.00749237
2456.26	-0.697845	-0.0180542
2456.72	0.000292969	0.00479706
2457.2	0.000323486	0.0074884
2457.66	-0.698151	-0.0180511
2458.12	0.000442505	0.00479218
2458.6	-0.000604248	0.00748871
2459.06	-0.697876	-0.0180603
2459.52	-0.000497437	0.00479431
2460	0.000137329	0.00747894
2460.46	-0.698669	-0.0180542
2460.92	0.000799561	0.00478607
2461.4	-0.000628662	0.00748505
2461.86	-0.69754	-0.0180573
2462.32	-0.00022583	0.00479004
2462.8	0.000183105	0.0074826
2463.26	-0.6987	-0.0180542
2463.72	0.000775146	0.00478546
2464.2	0.000723267	0.0074765
2464.66	-0.697693	-0.0180603
2465.12	0.000610352	0.00478455
2465.6	0.000756836	0.00747711
2466.06	-0.697571	-0.0180542
2466.52	-0.000601196	0.00479401
2467	-0.000668335	0.00748291
2467.46	-0.697632	-0.0180603
2467.92	0.000631714	0.00479034
2468.4	0.000708008	0.00747803
2468.86	-0.697601	-0.0180664
2469.32	0.000201416	0.0047934
2469.8	0.000601196	0.00747498
2470.26	-0.699005	-0.0180603
2470.72	-6.40869e-05	0.00479462
2471.2	-0.000585937	0.0074823
2471.66	-0.697601	-0.0180573
2472.12	0.000787354	0.00478851
2472.6	-0.000512695	0.00748169
2473.06	-0.697632	-0.0180603
2473.52	0.000894165	0.00478821
2474	0.000479126	0.00747559
2474.46	-0.699005	-0.0180573
2474.92	0.000933838	0.00478821
2475.4	0.000637817	0.00747589
2475.86	-0.698181	-0.0180511
2476.32	0.000228882	0.00478973
2476.8	0.000598145	0.00746918
2477.26	-0.698669	-0.0180573
2477.72	0.000622559	0.00479034
2478.2	-0.000476074	0.00747894
2478.66	-0.698242	-0.018042
2479.12	0.000762939	0.00478912
2479.6	-0.000469971	0.00747528
2480.06	-0.698334	-0.018045
2480.52	-0.00039978	0.00479736
2481	0.00045166	0.00746613
2481.46	-0.697723	-0.0180573
2481.92	-0.000427246	0.00479706
2482.4	0.000570679	0.00746552
2482.86	-0.697662	-0.0180542
2483.32	-0.000350952	0.00479156
2483.8	0.000823975	0.00747009
2484.26	-0.697906	-0.0180573
2484.72	0.000372314	0.00478943
2485.2	-0.00022583	0.00747345
2485.66	-0.697876	-0.0180481
2486.12	0.000738525	0.00479095
2486.6	-0.000637817	0.0074762
2487.06	-0.697693	-0.0180542
2487.52	-0.000106812	0.00479828
2488	-0.000350952	0.00747833
2488.46	-0.697632	-0.0180664
2488.92	-0.000524902	0.00480164
2489.4	-0.000189209	0.00747894
2489.86	-0.697845	-0.0180695
2490.32	-0.000427246	0.0047995
2490.8	5.18799e-05	0.00747772
2491.26	-0.698822	-0.0180664
2491.72	-0.000256348	0.00480408
2492.2	0.000741577	0.0074707
2492.66	-0.698212	-0.0180603
2493.12	-0.000570679	0.00480164
2493.6	-0.000509644	0.00747864
2494.06	-0.697601	-0.0180725
2494.52	-0.000250244	0.00480103
2495	-0.000476074	0.00747955
2495.46	-0.698792	-0.0180695
2495.92	0.000823975	0.00479309
2496.4	-0.000296021	0.00747864
2496.86	-0.698273	-0.0180603
2497.32	0.000613403	0.00479187
2497.8	-0.00055542	0.0074762
2498.26	-0.69873	-0.0180603
2498.72	0.000469971	0.00479218
2499.2	-0.000515747	0.00747345
2499.66	-0.699005	-0.0180603
2500.12	0.000854492	0.00479523
2500.6	0.000479126	0.00747314
2501.06	-0.698303	-0.0180573
2501.52	0.000183105	0.00479828
2502	0.00072937	0.00746704
2502.46	-0.698334	-0.0180725
2502.92	-0.000271606	0.00479889
2503.4	0.000216675	0.00747162
2503.86	-0.698486	-0.0180725
2504.32	0.000408936	0.00479889
2504.8	-0.000494385	0.00747253
2505.26	-0.697906	-0.0180634
2505.72	0.00050354	0.00479523
2506.2	-0.000128174	0.00746643
2506.66	-0.69873	-0.0180756
2507.12	0.000619507	0.00479431
2507.6	-0.000387573	0.00745605
2508.06	-0.698944	-0.0180695
2508.52	0.000421143	0.00478485
2509	-0.000561523	0.00745941
2509.46	-0.699097	-0.0180664
2509.92	0.000750732	0.00478241
2510.4	-0.000570679	0.00745636
2510.86	-0.697601	-0.0180725
2511.32	-0.000119019	0.00479034
2511.8	0.000604248	0.00744415
2512.26	-0.697723	-0.0180664
2512.72	-0.000378418	0.00478699
2513.2	0.000683594	0.00744141
2513.66	-0.697906	-0.0180756
2514.12	0.000811768	0.00478058
2514.6	0.000686646	0.00744324
2515.06	-0.697601	-0.0180725
2515.52	-0.000326538	0.00478394
2516	9.46045e-05	0.0074411
2516.46	-0.697632	-0.0180756
2516.92	0.000430298	0.0047818
2517.4	0.000448608	0.00744385
2517.86	-0.698639	-0.0180664
2518.32	0.000134277	0.00478729
2518.8	2.13623e-05	0.00744232
2519.26	-0.699127	-0.0180695
2519.72	-0.000256348	0.00479034
2520.2	-0.00012207	0.00744751
2520.66	-0.6987	-0.0180725
2521.12	-6.71387e-05	0.00478607
2521.6	0.000512695	0.00744019
2522.06	-0.698608	-0.0180603
2522.52	0.000894165	0.00478363
2523	-0.00065918	0.00744812
2523.46	-0.697968	-0.0180664
2523.92	-0.000390625	0.00479126
2524.4	0.000384521	0.00743835
2524.86	-0.697571	-0.0180695
2525.32	-0.000149536	0.00479248
2525.8	-0.000143433	0.00744537
2526.26	-0.698944	-0.0180573
2526.72	0.00078125	0.00478485
2527.2	0.00072937	0.00743713
2527.66	-0.698456	-0.0180573
2528.12	-0.000534058	0.00479431
2528.6	-0.000640869	0.00744659
2529.06	-0.698151	-0.0180725
2529.52	0.0003479	0.00478577
2530	0.000723267	0.00743347
2530.46	-0.698853	-0.0180603
2530.92	0.000875854	0.00478638
2531.4	-0.000689697	0.00744476
2531.86	-0.698883	-0.0180573
2532.32	-6.71387e-05	0.00479553
2532.8	0.000753784	0.00743378
2533.26	-0.698792	-0.0180573
2533.72	0.000787354	0.00478821
2534.2	-0.000643921	0.00744354
2534.66	-0.697571	-0.0180573
2535.12	0.000576782	0.00478882
2535.6	0.000152588	0.00743866
2536.06	-0.698059	-0.0180542
2536.52	0.00067749	0.0047876
2537	0.000460815	0.0074408
2537.46	-0.697815	-0.0180542
2537.92	-9.46045e-05	0.00479858
2538.4	-0.000320435	0.00743744
2538.86	-0.698914	-0.0180511
2539.32	-0.000436401	0.00480133
2539.8	7.62939e-05	0.00743622
2540.26	-0.698914	-0.0180634
2540.72	0.000634766	0.00479492
2541.2	-0.000540161	0.00744141
2541.66	-0.698669	-0.018045
2542.12	0.000201416	0.00479401
2542.6	0.000662231	0.00743561
2543.06	-0.697968	-0.0180603
2543.52	0.000842285	0.00479401
2544	0.000762939	0.00743652
2544.46	-0.698639	-0.0180481
2544.92	0.00088501	0.00479645
2545.4	0.000415039	0.00743378
2545.86	-0.6987	-0.0180542
2546.32	0.000430298	0.00479645
2546.8	-1.83105e-05	0.0074408
2547.26	-0.697723	-0.0180511
2547.72	0.000732422	0.00479858
2548.2	3.66211e-05	0.0074408
2548.66	-0.697632	-0.0180573
2549.12	0.000616455	0.00480164
2549.6	0.000537109	0.00743347
2550.06	-0.698334	-0.0180481
2550.52	0.000271606	0.00480194
2551	-0.000656128	0.00744446
2551.46	-0.698944	-0.0180542
2551.92	0.000247192	0.00480164
2552.4	-0.000283813	0.00743896
2552.86	-0.697815	-0.0180573
2553.32	0.000866699	0.00480286
2553.8	0.00065918	0.00743439
2554.26	-0.698303	-0.018045
2554.72	0.000308228	0.00480774
2555.2	0.000244141	0.00743958
2555.66	-0.697571	-0.0180481
2556.12	-0.00032959	0.0048114
2556.6	9.46045e-05	0.00743591
2557.06	-0.699005	-0.018042
2557.52	0.000674438	0.00480225
2558	-0.00015564	0.00744019
2558.46	-0.697693	-0.0180481
2558.92	0.000598145	0.00480804
2559.4	-0.000485229	0.0074353
2559.86	-0.698975	-0.0180389
2560.32	-0.000491333	0.00481293
2560.8	-0.000674438	0.00743896
2561.26	-0.699005	-0.0180389
2561.72	0.000286865	0.00481079
2562.2	0.000357056	0.00743378
2562.66	-0.699158	-0.0180359
2563.12	0.000592041	0.00480499
2563.6	0.000445557	0.00743103
2564.06	-0.698242	-0.0180359
2564.52	0.000878906	0.00480774
2565	0.000735474	0.00743073
2565.46	-0.698364	-0.0180542
2565.92	0.000762939	0.00480682
2566.4	0.000717163	0.00743073
2566.86	-0.698456	-0.018045
2567.32	0.000378418	0.00480896
2567.8	0.000738525	0.00743042
2568.26	-0.69809	-0.0180328
2568.72	-0.00050354	0.00481628
2569.2	-0.00038147	0.00743866
2569.66	-0.699066	-0.0180359
2570.12	0.00045166	0.00481262
2570.6	0.000717163	0.00743103
2571.06	-0.6987	-0.0180267
2571.52	0.000927734	0.00481049
2572	-0.000137329	0.00743988
2572.46	-0.699005	-0.0180267
2572.92	0.000402832	0.0048111
2573.4	-0.000567627	0.00743774
2573.86	-0.698456	-0.0180359
2574.32	0.000393677	0.00481537
2574.8	0.000616455	0.00742889
2575.26	-0.697571	-0.0180359
2575.72	0.000595093	0.00481232
2576.2	-0.000357056	0.00743347
2576.66	-0.699005	-0.0180328
2577.12	0.0006073	0.00481262
2577.6	0.000436401	0.00742676
2578.06	-0.698883	-0.0180267
2578.52	-0.000640869	0.00482025
2579	0.000708008	0.00742645
2579.46	-0.699097	-0.0180237
2579.92	0.00085144	0.00481415
2580.4	0.000183105	0.00743134
2580.86	-0.69812	-0.0180298
2581.32	0.000714111	0.00481659
2581.8	0.000692749	0.00742767
2582.26	-0.698425	-0.0180267
2582.72	-0.000512695	0.00482269
2583.2	0.00012207	0.00743103
2583.66	-0.698944	-0.0180206
2584.12	0.000268555	0.00481445
2584.6	-0.000518799	0.00743591
2585.06	-0.698608	-0.0180267
2585.52	-6.71387e-05	0.00482452
2586	0.000671387	0.00742523
2586.46	-0.698853	-0.0180145
2586.92	-0.000369263	0.00482605
2587.4	-0.000369263	0.00743439
2587.86	-0.697784	-0.0180115
2588.32	-0.000402832	0.00482635
2588.8	-0.000631714	0.00743347
2589.26	-0.698059	-0.0180176
2589.72	3.96729e-05	0.00482452
2590.2	-5.18799e-05	0.00742676
2590.66	-0.698212	-0.0180176
2591.12	-0.000579834	0.00482819
2591.6	0.000762939	0.00742737
2592.06	-0.698975	-0.0180145
2592.52	0.000796509	0.00481903
2593	0.000457764	0.00742737
2593.46	-0.699097	-0.0180237
2593.92	0.000256348	0.00482513
2594.4	1.52588e-05	0.00743164
2594.86	-0.699036	-0.0180115
2595.32	0.00083313	0.00482117
2595.8	0.000723267	0.00742432
2596.26	-0.698608	-0.0180206
2596.72	0.000598145	0.0048288
2597.2	-0.000335693	0.00743622
2597.66	-0.69754	-0.0180237
2598.12	0.000860596	0.00482361
2598.6	0.000735474	0.00742462
2599.06	-0.698456	-0.0180206
2599.52	0.000848389	0.00482422
2600	0.000158691	0.00743011
2600.46	-0.698975	-0.0180145
2600.92	0.000759888	0.00482391
2601.4	0.000100708	0.00742981
2601.86	-0.697723	-0.0180206
2602.32	-0.000540161	0.00483307
2602.8	-0.000656128	0.00743378
2603.26	-0.698029	-0.0180328
2603.72	0.000390625	0.00482605
2604.2	-0.000622559	0.00743378
2604.66	-0.697662	-0.0180237
2605.12	0.000817871	0.00482513
2605.6	-0.000415039	0.00742676
2606.06	-0.698364	-0.0180267
2606.52	0.000588989	0.00482422
2607	0.000741577	0.00742065
2607.46	-0.69873	-0.0180176
2607.92	0.000515747	0.00482422
2608.4	9.15527e-05	0.00742615
2608.86	-0.697815	-0.0180328
2609.32	-0.000286865	0.00482819
2609.8	-0.000418091	0.00743317
2610.26	-0.6987	-0.0180145
2610.72	0.000799561	0.00482758
2611.2	0.000701904	0.00742462
2611.66	-0.698822	-0.0180237
2612.12	0.000582886	0.00483124
2612.6	0.000772095	0.00742249
2613.06	-0.69754	-0.0180237
2613.52	-0.000564575	0.00483276
2614	-0.000619507	0.00742645
2614.46	-0.698792	-0.0180267
2614.92	0.00083313	0.00482269
2615.4	0.000744629	0.00742035
2615.86	-0.697601	-0.0180359
2616.32	0.000802612	0.00482361
2616.8	0.000714111	0.00741516
2617.26	-0.699036	-0.0180206
2617.72	-0.000549316	0.00483276
2618.2	4.27246e-05	0.00741577
2618.66	-0.698151	-0.0180206
2619.12	0.000369263	0.00482788
2619.6	-0.000442505	0.00741974
2620.06	-0.698547	-0.0180298
2620.52	-0.000387573	0.00483368
2621	0.000732422	0.00741272
2621.46	-0.699036	-0.0180206
2621.92	-0.000390625	0.00482971
2622.4	-0.000192261	0.00741638
2622.86	-0.697754	-0.0180267
2623.32	0.00067749	0.00482697
2623.8	0.000588989	0.00741028
2624.26	-0.697815	-0.0180267
2624.72	-0.000109863	0.00483276
2625.2	-0.000610352	0.00741882
2625.66	-0.698853	-0.0180115
2626.12	0.000561523	0.00482513
2626.6	-0.000668335	0.00742035
2627.06	-0.697693	-0.0180267
2627.52	-3.66211e-05	0.00482666
2628	-0.000579834	0.00741974
2628.46	-0.697998	-0.0180176
2628.92	0.000769043	0.00482727
2629.4	-0.000650024	0.00742004
2629.86	-0.699097	-0.0180206
2630.32	-0.000296021	0.00483582
2630.8	-0.000473022	0.007421875
2631.26	-0.697968	-0.0180328
2631.72	-0.000500488	0.00483551
2632.2	0.000357056	0.00741394
2632.66	-0.697601	-0.0180298
2633.12	-0.000238037	0.00483826
2633.6	0.000454712	0.00741211
2634.06	-0.699036	-0.0180176
2634.52	-0.000128174	0.00483459
2635	-0.00027771	0.00741974
2635.46	-0.698669	-0.0180237
2635.92	-0.00039978	0.00483734
2636.4	0.00067749	0.00741272
2636.86	-0.698578	-0.0180267
2637.32	-0.000454712	0.00483765
2637.8	3.05176e-05	0.00741394
2638.26	-0.698975	-0.0180145
2638.72	0.000753784	0.00483032
2639.2	-1.83105e-05	0.0074173
2639.66	-0.698639	-0.0180176
2640.12	0.000793457	0.00483276
2640.6	-0.000323486	0.00741699
2641.06	-0.697815	-0.0180298
2641.52	0.000592041	0.00483551
2642	0.000265503	0.00741638
2642.46	-0.698669	-0.0180267
2642.92	0.000692749	0.00483337
2643.4	-0.000628662	0.00741699
2643.86	-0.698181	-0.0180206
2644.32	0.00090332	0.00483398
2644.8	0.000570679	0.00740967
2645.26	-0.698273	-0.0180267
2645.72	0.000280762	0.00483582
2646.2	-0.000579834	0.00742035
2646.66	-0.697754	-0.0180298
2647.12	0.000491333	0.00483612
2647.6	0.000167847	0.00741608
2648.06	-0.697723	-0.0180298
2648.52	0.0003479	0.00483734
2649	0.000546265	0.00740967
2649.46	-0.698425	-0.0180115
2649.92	-0.000579834	0.00484589
2650.4	-0.00038147	0.00741516
2650.86	-0.698547	-0.0180145
2651.32	0.000134277	0.004841
2651.8	-0.00038147	0.00741577
2652.26	-0.698669	-0.0180084
2652.72	0.000701904	0.00484009
2653.2	-0.000549316	0.00741882
2653.66	-0.698486	-0.0180145
2654.12	0.000134277	0.00484314
2654.6	-0.000479126	0.00741791
2655.06	-0.697754	-0.0180237
2655.52	-0.000427246	0.00484772
2656	-8.8501e-05	0.0074118
2656.46	-0.698273	-0.0180176
2656.92	0.000344849	0.00484589
2657.4	0.000109863	0.00741333
2657.86	-0.699097	-0.0180145
2658.32	-0.00022583	0.00484619
2658.8	0.000384521	0.00740723
2659.26	-0.698914	-0.0180054
2659.72	-0.000582886	0.00485046
2660.2	-0.000247192	0.00740936
2660.66	-0.698334	-0.0180145
2661.12	-0.000460815	0.00485077
2661.6	-0.00043335	0.00741394
2662.06	-0.697815	-0.0180206
2662.52	0.0003479	0.00484467
2663	-0.000289917	0.00741211
2663.46	-0.698883	-0.0180145
2663.92	0.00017395	0.00484528
2664.4	-0.000344849	0.0074115
2664.86	-0.698425	-0.0180084
2665.32	0.000616455	0.00484924
2665.8	-0.000213623	0.00740814
2666.26	-0.698212	-0.0180115
2666.72	-0.000552368	0.00485168
2667.2	-0.000579834	0.00741302
2667.66	-0.699158	-0.0180115
2668.12	0.000610352	0.00484375
2668.6	-0.000350952	0.00741119
2669.06	-0.698547	-0.0180054
2669.52	0.000601196	0.00484772
2670	0.000720215	0.00740509
2670.46	-0.697937	-0.0180084
2670.92	-0.000100708	0.00484985
2671.4	-0.000540161	0.00741455
2671.86	-0.698975	-0.0179993
2672.32	0.000604248	0.00484528
2672.8	-0.000634766	0.00741333
2673.26	-0.697571	-0.0180084
2673.72	-0.000390625	0.00485565
2674.2	0.00027771	0.00740448
2674.66	-0.698212	-0.0180115
2675.12	-0.000656128	0.00485565
2675.6	-0.00071106	0.00740997
2676.06	-0.698273	-0.0180145
2676.52	0.000790405	0.00484924
2677	0.000723267	0.00740173
2677.46	-0.697601	-0.0180084
2677.92	-0.000543213	0.00485809
2678.4	4.88281e-05	0.00740326
2678.86	-0.698547	-0.0180084
2679.32	0.000375366	0.00485199
2679.8	-6.10352e-05	0.00740326
2680.26	-0.698914	-0.0180023
2680.72	-0.000616455	0.00485962
2681.2	-1.83105e-05	0.00740784
2681.66	-0.698181	-0.0180084
2682.12	-0.000320435	0.00485626
2682.6	0.000476074	0.0074054
2683.06	-0.697571	-0.0180084
2683.52	0.000787354	0.00485077
2684	-0.000119019	0.00740967
2684.46	-0.697815	-0.0180084
2684.92	-4.88281e-05	0.00485291
2685.4	-0.000466919	0.00741211
2685.86	-0.698334	-0.0179993
2686.32	0.000378418	0.00485382
2686.8	0.000686646	0.00740112
2687.26	-0.699036	-0.0179993
2687.72	-0.000570679	0.00486328
2688.2	-0.000427246	0.00741058
2688.66	-0.698425	-0.0180115
2689.12	-0.000195313	0.00485779
2689.6	0.000708008	0.00740387
2690.06	-0.698853	-0.0179901
2690.52	0.000726318	0.00485321
2691	0.000299072	0.0074057
2691.46	-0.699036	-0.0179932
2691.92	0.000415039	0.00485931
2692.4	0.000378418	0.00740082
2692.86	-0.698822	-0.0179962
2693.32	0.000622559	0.00485657
2693.8	-0.000552368	0.00740723
2694.26	-0.698883	-0.0179962
2694.72	-0.000567627	0.00486816
2695.2	0.00085144	0.00740021
2695.66	-0.6987	-0.0179993
2696.12	-0.000512695	0.00486694
2696.6	-0.000415039	0.00740479
2697.06	-0.698456	-0.0179871
2697.52	3.05176e-06	0.00486084
2698	4.27246e-05	0.00740143
2698.46	-0.698669	-0.0179993
2698.92	-0.000192261	0.00486877
2699.4	-0.000454712	0.00740051
2699.86	-0.697968	-0.0180023
2700.32	0.00083313	0.00485901
2700.8	0.000222778	0.0073996
2701.26	-0.698853	-0.0179962
2701.72	-0.000250244	0.00486725
2702.2	-0.000604248	0.00740631
2702.66	-0.69873	-0.0179871
2703.12	-0.000360107	0.00486511
2703.6	-0.000384521	0.00740753
2704.06	-0.697723	-0.0179901
2704.52	0.000131226	0.00486084
2705	-0.000656128	0.00740662
2705.46	-0.697754	-0.0179993
2705.92	-0.000546265	0.00487
2706.4	-0.000601196	0.00740601
2706.86	-0.699127	-0.0179871
2707.32	-0.000402832	0.00487
2707.8	0.000524902	0.00740051
2708.26	-0.699127	-0.0179871
2708.72	-0.000646973	0.00486786
2709.2	0.000830078	0.00739746
2709.66	-0.698883	-0.017984
2710.12	-0.000247192	0.00486908
2710.6	0.000491333	0.00739655
2711.06	-0.699158	-0.0179932
2711.52	-0.000531006	0.00487427
2712	0.000744629	0.00739624
2712.46	-0.697693	-0.0179932
2712.92	0.000354004	0.00487244
2713.4	0.000469971	0.00740173
2713.86	-0.698517	-0.017984
2714.32	-0.000482178	0.00487152
2714.8	-0.000643921	0.00740387
2715.26	-0.697571	-0.0179932
2715.72	0.000836182	0.0048645
2716.2	0.000738525	0.00739594
2716.66	-0.697998	-0.0179871
2717.12	0.000268555	0.00486603
2717.6	0.000253296	0.00739319
2718.06	-0.697662	-0.0179962
2718.52	-0.000274658	0.00486938
2719	1.83105e-05	0.00740112
2719.46	-0.697906	-0.0179932
2719.92	-0.000366211	0.00487488
2720.4	-0.000476074	0.00740448
2720.86	-0.6987	-0.017984
2721.32	0.000848389	0.00486664
2721.8	6.10352e-06	0.00739502
2722.26	-0.698303	-0.0179962
2722.72	0.000738525	0.00486877
2723.2	0.000695801	0.00739258
2723.66	-0.698608	-0.0179749
2724.12	-0.000201416	0.0048761
2724.6	-0.000656128	0.00740112
2725.06	-0.698242	-0.017981
2725.52	-0.000540161	0.00487701
2726	0.000778198	0.00739197
2726.46	-0.698151	-0.0179871
2726.92	0.000900269	0.00486938
2727.4	0.00012207	0.0073938
2727.86	-0.698151	-0.017981
2728.32	0.000726318	0.00486786
2728.8	0.000564575	0.00739014
2729.26	-0.697723	-0.017984
2729.72	-0.000134277	0.00487823
2730.2	0.000558472	0.00739319
2730.66	-0.698212	-0.0179749
2731.12	0.000720215	0.00487488
2731.6	-0.000643921	0.0073999
2732.06	-0.697632	-0.0179901
2732.52	0.000579834	0.00487061
2733	-0.000149536	0.00739655
2733.46	-0.698029	-0.0179749
2733.92	-0.000534058	0.00487732
2734.4	0.000698853	0.00738831
2734.86	-0.697632	-0.017984
2735.32	-0.00065918	0.00487946
2735.8	0.000747681	0.00738861
2736.26	-0.6987	-0.0179718
2736.72	-0.000378418	0.00488129
2737.2	0.000357056	0.00739532
2737.66	-0.697571	-0.017981
2738.12	0.000192261	0.00487518
2738.6	3.66211e-05	0.00739868
2739.06	-0.698303	-0.017981
2739.52	-0.000509644	0.00487793
2740	0.000384521	0.00739349
2740.46	-0.697968	-0.017984
2740.92	0.000274658	0.00487518
2741.4	-0.000509644	0.0073996
2741.86	-0.697632	-0.0179871
2742.32	0.000323486	0.00487518
2742.8	0.000796509	0.00738892
2743.26	-0.698608	-0.0179871
2743.72	0.000912476	0.00487335
2744.2	0.000738525	0.0073877
2744.66	-0.697662	-0.017984
2745.12	-0.00055542	0.00488342
2745.6	-0.000637817	0.0073941
2746.06	-0.697571	-0.0179779
2746.52	0.000314331	0.00487976
2747	-0.000473022	0.00739441
2747.46	-0.697723	-0.0179718
2747.92	-0.000524902	0.00487885
2748.4	-0.000363159	0.00739014
2748.86	-0.697906	-0.017984
2749.32	0.000811768	0.0048761
2749.8	0.000769043	0.00738403
2750.26	-0.699097	-0.01796875
2750.72	0.000634766	0.00487885
2751.2	-0.000149536	0.00738708
2751.66	-0.699005	-0.01796875
2752.12	0.000854492	0.00488007
2752.6	0.000570679	0.0073819
2753.06	-0.699005	-0.01796875
2753.52	-0.00032959	0.00488861
2754	-0.00038147	0.00739349
2754.46	-0.697937	-0.017984
2754.92	-0.000408936	0.00488586
2755.4	-0.000274658	0.00739532
2755.86	-0.697937	-0.0179962
2756.32	0.000628662	0.00487885
2756.8	0.000357056	0.0073941
2757.26	-0.698334	-0.0179962
2757.72	0.000280762	0.00488007
2758.2	-0.000140381	0.00739563
2758.66	-0.698639	-0.0179779
2759.12	0.000534058	0.00488007
2759.6	-6.10352e-05	0.00739136
2760.06	-0.698669	-0.0179901
2760.52	4.27246e-05	0.00488312
2761	0.000292969	0.0073938
2761.46	-0.697784	-0.0179871
2761.92	0.000708008	0.00487915
2762.4	0.000396729	0.00739014
2762.86	-0.698853	-0.0179871
2763.32	-0.00043335	0.0048877
2763.8	0.000634766	0.0073877
2764.26	-0.697937	-0.0179932
2764.72	0.000543213	0.0048822
2765.2	0.000131226	0.00738647
2765.66	-0.697784	-0.0179871
2766.12	0.000704956	0.00488129
2766.6	-0.000128174	0.00739136
2767.06	-0.698486	-0.017981
2767.52	-0.000341797	0.00489014
2768	-0.000262451	0.00738647
2768.46	-0.697906	-0.017984
2768.92	-1.52588e-05	0.00488434
2769.4	0.000234985	0.007388
2769.86	-0.698273	-0.017981
2770.32	-0.000369263	0.00488831
2770.8	-0.000341797	0.00739197
2771.26	-0.697784	-0.0179901
2771.72	1.83105e-05	0.00488953
2772.2	0.0006073	0.00738495
2772.66	-0.69812	-0.0179993
2773.12	-0.000292969	0.00488953
2773.6	-0.000302124	0.007388
2774.06	-0.697754	-0.017981
2774.52	0.000164795	0.00488434
2775	0.000335693	0.00738312
2775.46	-0.697937	-0.0179901
2775.92	8.23975e-05	0.00489014
2776.4	-0.000515747	0.00738586
2776.86	-0.697693	-0.0179901
2777.32	0.000192261	0.0048877
2777.8	-0.000570679	0.007388
2778.26	-0.698944	-0.0179779
2778.72	0.000759888	0.0048819
2779.2	0.000305176	0.00737701
2779.66	-0.697906	-0.0179901
2780.12	0.000531006	0.00488129
2780.6	-0.000463867	0.00738373
2781.06	-0.699005	-0.0179749
2781.52	-5.49316e-05	0.00488647
2782	0.00057373	0.00737793
2782.46	-0.698792	-0.017981
2782.92	-0.000460815	0.00489197
2783.4	-0.000646973	0.0073822
2783.86	-0.698944	-0.017984
2784.32	0.000637817	0.00488342
2784.8	-5.49316e-05	0.00738129
2785.26	-0.698273	-0.017981
2785.72	0.000363159	0.00488525
2786.2	-0.000637817	0.00738617
2786.66	-0.697754	-0.0179901
2787.12	0.000891113	0.00488647
2787.6	0.000473022	0.00738159
2788.06	-0.697845	-0.0179871
2788.52	0.000796509	0.00488556
2789	0.000588989	0.00737732
2789.46	-0.69812	-0.0179932
2789.92	0.00010376	0.00489288
2790.4	0.000610352	0.00737915
2790.86	-0.697876	-0.017984
2791.32	0.000109863	0.00488495
2791.8	-0.000222778	0.00738342
2792.26	-0.697998	-0.017981
2792.72	0.000582886	0.00488708
2793.2	-0.000616455	0.0073819
2793.66	-0.697723	-0.0179871
2794.12	0.000357056	0.00488556
2794.6	0.000756836	0.00737396
2795.06	-0.698486	-0.0179779
2795.52	-0.000479126	0.00489197
2796	0.000622559	0.00737122
2796.46	-0.698029	-0.0179901
2796.92	-0.000241089	0.00488983
2797.4	-0.000344849	0.00738007
2797.86	-0.698853	-0.0179718
2798.32	-0.000177002	0.00489594
2798.8	-1.52588e-05	0.00737244
2799.26	-0.69873	-0.0179718
2799.72	-0.000338745	0.0048938
2800.2	-0.000585937	0.00737671
2800.66	-0.697784	-0.017981
2801.12	0.000643921	0.00488464
2801.6	-0.000405884	0.00737366
2802.06	-0.698761	-0.01796875
2802.52	0.000595093	0.00488403
2803	0.000631714	0.00736633
2803.46	-0.699005	-0.0179718
2803.92	-0.000231934	0.00489349
2804.4	-0.000332642	0.00736908
2804.86	-0.697632	-0.0179779
2805.32	-0.000488281	0.0048941
2805.8	0.000732422	0.00736206
2806.26	-0.699005	-0.0179657
2806.72	0.000354004	0.00488708
2807.2	0.000598145	0.00736389
2807.66	-0.697754	-0.0179626
2808.12	-0.000518799	0.00489532
2808.6	-0.000466919	0.00737244
2809.06	-0.698456	-0.0179657
2809.52	-0.00050354	0.00489166
2810	0.000360107	0.00736481
2810.46	-0.69809	-0.0179749
2810.92	-0.000384521	0.0048938
2811.4	0.000567627	0.00736359
2811.86	-0.698822	-0.0179749
2812.32	-0.000314331	0.00489532
2812.8	6.71387e-05	0.00736237
2813.26	-0.69873	-0.0179718
2813.72	0.000326538	0.00488922
2814.2	-0.000369263	0.00736908
2814.66	-0.698029	-0.0179718
2815.12	-0.000387573	0.00489441
2815.6	-0.000228882	0.00736511
2816.06	-0.698944	-0.0179657
2816.52	0.000363159	0.00488464
2817	4.27246e-05	0.00736328
2817.46	-0.698181	-0.0179718
2817.92	-0.000408936	0.00489349
2818.4	-0.000204468	0.00736359
2818.86	-0.697968	-0.0179657
2819.32	-5.49316e-05	0.00489014
2819.8	0.000219727	0.00736115
2820.26	-0.698944	-0.0179657
2820.72	2.44141e-05	0.0048938
2821.2	-0.000262451	0.00735992
2821.66	-0.699036	-0.01796875
2822.12	0.000234985	0.00488953
2822.6	-0.000250244	0.0073587
2823.06	-0.697815	-0.0179718
2823.52	0.000869751	0.00488678
2824	0.000830078	0.00735352
2824.46	-0.698547	-0.0179626
2824.92	0.000259399	0.00488861
2825.4	-0.000576782	0.00736023
2825.86	-0.697632	-0.0179657
2826.32	0.000283813	0.00488647
2826.8	-0.000750732	0.00735687
2827.26	-0.698975	-0.0179504
2827.72	0.000558472	0.00488556
2828.2	0.000610352	0.00734833
2828.66	-0.697632	-0.0179565
2829.12	0.000823975	0.00488403
2829.6	-0.000189209	0.00735382
2830.06	-0.698639	-0.0179504
2830.52	0.000494385	0.00488342
2831	0.000732422	0.00734589
2831.46	-0.698914	-0.0179504
2831.92	-3.05176e-06	0.00489227
2832.4	0.000378418	0.00734589
2832.86	-0.697693	-0.0179535
2833.32	-0.000311279	0.00489532
2833.8	0.000805664	0.00734863
2834.26	-0.697815	-0.0179504
2834.72	0.000762939	0.00488556
2835.2	-0.000482178	0.00735168
2835.66	-0.698944	-0.0179504
2836.12	0.000576782	0.00488861
2836.6	0.000463867	0.00734497
2837.06	-0.698853	-0.0179535
2837.52	0.000268555	0.00488678
2838	-0.000418091	0.00735077
2838.46	-0.698883	-0.0179413
2838.92	-0.000476074	0.00489471
2839.4	-6.71387e-05	0.00734894
2839.86	-0.697906	-0.0179504
2840.32	0.000765991	0.00489014
2840.8	-0.000668335	0.00734772
2841.26	-0.698975	-0.0179443
2841.72	0.000720215	0.00488892
2842.2	-0.000460815	0.00734619
2842.66	-0.698883	-0.0179474
2843.12	1.83105e-05	0.00489105
2843.6	-0.000445557	0.00734406
2844.06	-0.698425	-0.0179474
2844.52	0.000619507	0.00488831
2845	-0.000256348	0.00734283
2845.46	-0.698822	-0.0179474
2845.92	-0.000119019	0.00489594
2846.4	0.000552368	0.00733704
2846.86	-0.69809	-0.0179382
2847.32	0.000811768	0.00488831
2847.8	0.000741577	0.00733612
2848.26	-0.697906	-0.0179382
2848.72	0.000366211	0.00489166
2849.2	-0.00032959	0.00734344
2849.66	-0.698792	-0.0179352
2850.12	0.000704956	0.00488708
2850.6	-0.000570679	0.00733795
2851.06	-0.698303	-0.0179291
2851.52	-4.88281e-05	0.00489258
2852	-0.000418091	0.00733978
2852.46	-0.698792	-0.0179413
2852.92	0.000494385	0.00489227
2853.4	0.000241089	0.00733643
2853.86	-0.69873	-0.0179352
2854.32	-0.000332642	0.00489838
2854.8	0.000592041	0.00733612
2855.26	-0.697845	-0.0179413
2855.72	-0.000372314	0.00489685
2856.2	-0.000473022	0.007341
2856.66	-0.698944	-0.0179413
2857.12	-0.000289917	0.0048999
2857.6	0.000366211	0.00733337
2858.06	-0.698883	-0.017926
2858.52	-0.000262451	0.00489838
2859	0.000189209	0.0073349
2859.46	-0.698944	-0.0179321
2859.92	0.00027771	0.00489441
2860.4	-0.000341797	0.00733673
2860.86	-0.697845	-0.0179382
2861.32	-0.000204468	0.00489685
2861.8	0.000335693	0.00733704
2862.26	-0.697937	-0.0179382
2862.72	-0.000442505	0.00490021
2863.2	-0.000506592	0.00733978
2863.66	-0.697998	-0.0179443
2864.12	0.000732422	0.00489471
2864.6	9.76562e-05	0.00733643
2865.06	-0.698608	-0.0179382
2865.52	-0.000180054	0.00490265
2866	-0.00020752	0.00733887
2866.46	-0.698822	-0.0179352
2866.92	0.000305176	0.00489532
2867.4	-0.000466919	0.00734344
2867.86	-0.698761	-0.0179352
2868.32	-0.000106812	0.00490204
2868.8	0.000537109	0.00733673
2869.26	-0.698547	-0.0179321
2869.72	0.000524902	0.00489624
2870.2	-3.66211e-05	0.00733673
2870.66	-0.698944	-0.0179321
2871.13	0.000485229	0.00489716
2871.61	-9.15527e-05	0.00734192
2872.07	-0.698212	-0.0179291
2872.53	-0.000558472	0.0049054
2873.01	0.000292969	0.00733673
2873.47	-0.698914	-0.0179291
2873.93	0.00072937	0.00489746
2874.41	0.000601196	0.00733002
2874.87	-0.698639	-0.0179413
2875.33	-0.000372314	0.00490356
2875.81	-0.000466919	0.00733582
2876.27	-0.697784	-0.0179291
2876.73	0.000811768	0.00489655
2877.21	-0.000463867	0.00733612
2877.67	-0.698822	-0.0179321
2878.13	0.000531006	0.00489899
2878.61	-0.000128174	0.00733032
2879.07	-0.698822	-0.0179291
2879.53	-0.000140381	0.0048996
2880.01	-0.000314331	0.00733521
2880.47	-0.697815	-0.017926
2880.93	0.000109863	0.0048999
2881.41	0.000323486	0.00732666
2881.87	-0.698059	-0.0179169
2882.33	0.000338745	0.00490234
2882.81	-0.000405884	0.00732971
2883.27	-0.69812	-0.0179169
2883.73	-0.000271606	0.00490417
2884.21	0.000588989	0.00732422
2884.67	-0.698059	-0.017923
2885.13	0.000305176	0.00490204
2885.61	0.000521851	0.00732361
2886.07	-0.697815	-0.0179138
2886.53	0.000619507	0.00489685
2887.01	0.000613403	0.00732178
2887.47	-0.698944	-0.017923
2887.93	-9.15527e-06	0.00490417
2888.41	-0.000418091	0.00732666
2888.87	-0.698517	-0.0179138
2889.33	0.000604248	0.00489838
2889.81	-0.000314331	0.00732849
2890.27	-0.697815	-0.0179169
2890.73	-0.000250244	0.00490631
2891.21	-0.000448608	0.00732635
2891.67	-0.698853	-0.0179108
2892.13	0.000100708	0.00490631
2892.61	0.000631714	0.00731873
2893.07	-0.697968	-0.0179077
2893.53	4.88281e-05	0.00490051
2894.01	0.000192261	0.00731567
2894.47	-0.69873	-0.0179016
2894.93	0.000515747	0.00490082
2895.41	-0.000354004	0.00731384
2895.87	-0.698212	-0.0178986
2896.33	0.000714111	0.00489685
2896.81	-0.000289917	0.00732086
2897.27	-0.69873	-0.0178925
2897.73	-0.000402832	0.00490479
2898.21	-2.74658e-05	0.00731293
2898.67	-0.699066	-0.0179016
2899.13	-0.000387573	0.00490723
2899.61	-0.000256348	0.00731934
2900.07	-0.698578	-0.0178986
2900.53	-0.000128174	0.00490753
2901.01	0.000128174	0.00731079
2901.47	-0.699036	-0.0178986
2901.93	0.000292969	0.00490479
2902.41	0.000314331	0.0073114
2902.87	-0.697571	-0.0179016
2903.33	0.000738525	0.00489868
2903.81	0.000549316	0.00730865
2904.27	-0.697632	-0.0179016
2904.73	-0.000601196	0.00490723
2905.21	0.000286865	0.00731232
2905.67	-0.698944	-0.0178894
2906.13	0.000839233	0.00489838
2906.61	0.000109863	0.00731476
2907.07	-0.698395	-0.0178955
2907.53	-0.000646973	0.00490723
2908.01	-0.0006073	0.00731689
2908.47	-0.698975	-0.0178925
2908.93	0.00045166	0.00489929
2909.41	-0.000588989	0.00731506
2909.87	-0.698914	-0.0178802
2910.33	-0.000552368	0.00490295
2910.81	0.000570679	0.00731079
2911.27	-0.698456	-0.0178955
2911.73	-0.000323486	0.0049057
2912.21	-0.000259399	0.00730438
2912.67	-0.698273	-0.0178833
2913.13	-0.000582886	0.00490631
2913.61	0.000842285	0.00730042
2914.07	-0.698853	-0.0178833
2914.53	0.000787354	0.00490021
2915.01	0.000494385	0.00730286
2915.47	-0.697754	-0.0178833
2915.93	-0.000228882	0.00490631
2916.41	0.000546265	0.00730164
2916.87	-0.697998	-0.0178864
2917.33	0.000299072	0.00490021
2917.81	-0.000662231	0.00730591
2918.27	-0.698761	-0.0178864
2918.73	-0.000405884	0.00490814
2919.21	0.000714111	0.00729523
2919.67	-0.699066	-0.0178741
2920.13	0.000820923	0.00489624
2920.61	-0.000613403	0.00730286
2921.07	-0.698547	-0.0178772
2921.53	-0.000421143	0.00490356
2922.01	-0.000506592	0.00730042
2922.47	-0.698914	-0.017868
2922.93	-0.000286865	0.00490601
2923.41	0.000500488	0.00729462
2923.87	-0.698761	-0.0178619
2924.33	-0.000454712	0.00490692
2924.81	5.79834e-05	0.00729431
2925.27	-0.698273	-0.017868
2925.73	0.000775146	0.00489746
2926.21	-0.000640869	0.00729889
2926.67	-0.699097	-0.017865
2927.13	-0.000384521	0.00490387
2927.61	1.83105e-05	0.0072937
2928.07	-0.698059	-0.0178772
2928.53	0.000952148	0.0048996
2929.01	-0.000579834	0.0072998
2929.47	-0.69809	-0.0178741
2929.93	2.44141e-05	0.00490265
2930.41	0.000509644	0.00728943
2930.87	-0.698883	-0.0178741
2931.33	-0.000537109	0.00490509
2931.81	0.000772095	0.00728882
2932.27	-0.698029	-0.0178802
2932.73	-0.000570679	0.00490936
2933.21	0.000302124	0.00729187
2933.67	-0.6987	-0.0178772
2934.13	0.000762939	0.00490082
2934.61	0.000640869	0.00728851
2935.07	-0.697784	-0.017868
2935.53	0.000457764	0.00490479
2936.01	0.000454712	0.00729126
2936.47	-0.697601	-0.017865
2936.93	-0.00050354	0.00490845
2937.41	0.000765991	0.00729156
2937.87	-0.697784	-0.0178711
2938.33	0.000750732	0.00490448
2938.81	-0.000637817	0.00729919
2939.27	-0.698608	-0.0178772
2939.73	-7.01904e-05	0.00490723
2940.21	-0.000656128	0.00729675
2940.67	-0.699036	-0.0178589
2941.13	-0.000152588	0.0049118
2941.61	0.000759888	0.00728821
2942.07	-0.697632	-0.0178711
2942.53	0.000738525	0.00490265
2943.01	0.000411987	0.0072879
2943.47	-0.698761	-0.0178619
2943.93	-0.000326538	0.00491028
2944.41	0.000646973	0.00728821
2944.87	-0.699097	-0.0178711
2945.33	0.00072937	0.00490173
2945.81	-0.000640869	0.00729553
2946.27	-0.69809	-0.0178741
2946.73	-0.00062561	0.0049118
2947.21	-0.000558472	0.00729675
2947.67	-0.699005	-0.0178619
2948.13	-0.000332642	0.00491272
2948.61	-0.000515747	0.00729492
2949.07	-0.698822	-0.017865
2949.53	-9.46045e-05	0.00491516
2950.01	0.000640869	0.0072879
2950.47	-0.697571	-0.017865
2950.93	-0.000424194	0.00491364
2951.41	0.000421143	0.00728699
2951.87	-0.697906	-0.0178619
2952.33	-0.000543213	0.00491455
2952.81	0.000192261	0.0072879
2953.27	-0.697754	-0.0178772
2953.73	2.44141e-05	0.00491425
2954.21	0.000714111	0.00728455
2954.67	-0.697601	-0.017868
2955.13	0.000912476	0.00490997
2955.61	0.000848389	0.00728699
2956.07	-0.698822	-0.017868
2956.53	-0.000558472	0.00491577
2957.01	0.000518799	0.00728851
2957.47	-0.698639	-0.0178589
2957.93	-0.000518799	0.00491211
2958.41	-0.000241089	0.00729462
2958.87	-0.697693	-0.0178711
2959.33	0.000466919	0.00490906
2959.81	-0.000430298	0.00728943
2960.27	-0.698944	-0.017865
2960.73	0.000192261	0.0049173
2961.21	0.000552368	0.00729279
2961.67	-0.697998	-0.0178711
2962.13	0.000823975	0.00491058
2962.61	0.000671387	0.0072876
2963.07	-0.698334	-0.017868
2963.53	0.000814819	0.00491119
2964.01	-9.76562e-05	0.00729828
2964.47	-0.699036	-0.0178741
2964.93	-0.000521851	0.00492035
2965.41	0.000634766	0.00728912
2965.87	-0.699036	-0.0178711
2966.33	0.000796509	0.00491455
2966.81	0.000466919	0.00728699
2967.27	-0.698456	-0.0178711
2967.73	-0.000570679	0.00492218
2968.21	-0.000579834	0.00729523
2968.67	-0.697632	-0.0178772
2969.13	0.000604248	0.00491486
2969.61	-0.000134277	0.00729492
2970.07	-0.697693	-0.017865
2970.53	-0.00010376	0.00492065
2971.01	-4.88281e-05	0.00728912
2971.47	-0.69809	-0.017868
2971.93	-0.000415039	0.00491913
2972.41	0.00020752	0.00728943
2972.87	-0.698914	-0.017868
2973.33	0.000808716	0.00491394
2973.81	-0.000546265	0.00729034
2974.27	-0.698669	-0.0178528
2974.73	-0.000512695	0.00492249
2975.21	0.000448608	0.00728149
2975.67	-0.698059	-0.0178711
2976.13	0.000436401	0.00491425
2976.61	-0.000411987	0.00728607
2977.07	-0.699036	-0.0178619
2977.53	-0.000552368	0.00492279
2978.01	0.000653076	0.00728455
2978.47	-0.699036	-0.0178558
2978.93	0.000656128	0.00491425
2979.41	0.000576782	0.00728546
2979.87	-0.699036	-0.0178711
2980.33	0.000735474	0.00491425
2980.81	-0.000506592	0.00728729
2981.27	-0.698761	-0.017868
2981.73	0.000564575	0.00491547
2982.21	-0.000616455	0.00729156
2982.67	-0.697723	-0.0178711
2983.13	0.000866699	0.00491516
2983.61	0.000744629	0.00728058
2984.07	-0.698639	-0.0178589
2984.53	-0.000509644	0.00492493
2985.01	-0.000219727	0.00728699
2985.47	-0.69751	-0.0178589
2985.93	-0.000476074	0.00492432
2986.41	-0.000421143	0.0072818
2986.87	-0.698853	-0.0178528
2987.33	0.000289917	0.00491974
2987.81	1.83105e-05	0.00727905
2988.27	-0.697815	-0.017868
2988.73	3.05176e-06	0.00492279
2989.21	9.76562e-05	0.00727753
2989.67	-0.699005	-0.0178558
2990.13	0.00085144	0.00491577
2990.61	-0.000131226	0.00727783
2991.07	-0.697906	-0.017865
2991.53	-0.000527954	0.00492371
2992.01	9.15527e-06	0.00727875
2992.47	-0.698486	-0.017865
2992.93	0.000314331	0.00491791
2993.41	-9.76562e-05	0.00727936
2993.87	-0.697784	-0.0178619
2994.33	0.000219727	0.00492157
2994.81	-0.000674438	0.00728088
2995.27	-0.6987	-0.0178497
2995.73	0.000909424	0.00491913
2996.21	0.000308228	0.007276
2996.67	-0.698608	-0.0178711
2997.13	0.000823975	0.00491699
2997.61	-0.00010376	0.0072818
2998.07	-0.698669	-0.0178497
2998.53	0.000454712	0.00492157
2999.01	0.000228882	0.00727783
2999.47	-0.69812	-0.0178558
2999.93	-0.00057373	0.00492767
3000.41	-0.000637817	0.0072821
3000.87	-0.698395	-0.0178558
3001.33	0.000863647	0.00491669
3001.81	-0.000619507	0.00728149
3002.27	-0.699188	-0.0178619
3002.73	-0.000421143	0.00492737
3003.21	-0.000405884	0.00727966
3003.67	-0.699005	-0.0178589
3004.13	0.000708008	0.00492065
3004.61	5.49316e-05	0.00727936
3005.07	-0.698914	-0.0178528
3005.53	-0.000219727	0.00492798
3006.01	8.54492e-05	0.00727722
3006.47	-0.698456	-0.0178558
3006.93	-0.000152588	0.00492767
3007.41	0.000695801	0.00726959
3007.83	0.000622559	0.00350861