File: Edgar/20240607/20240607/electrodeposition_pulsed_potential_20240607_D/pulses_2000_to_3000.txt
Time (s)	WE(1).Potential (V)	WE(1).Current (A)
1599.12	-0.69751	-0.02109375
1599.58	-0.00050354	0.0034137
1600.06	0.000335693	0.00761108
1600.52	-0.698853	-0.018811
1600.98	-0.000421143	0.00428375
1601.46	-0.000576782	0.00790405
1601.92	-0.698944	-0.0186584
1602.38	0.00043335	0.00436646
1602.86	0.000515747	0.00794983
1603.32	-0.698212	-0.0186279
1603.78	0.000665283	0.00439301
1604.26	0.00012207	0.00797119
1604.72	-0.697693	-0.0186249
1605.18	-0.000219727	0.00441956
1605.66	-0.000436401	0.00800476
1606.12	-0.698944	-0.0186035
1606.58	0.000808716	0.00442139
1607.06	0.00032959	0.0079895
1607.52	-0.697693	-0.0185944
1607.98	-0.000177002	0.00443756
1608.46	8.54492e-05	0.00800781
1608.92	-0.697845	-0.0185974
1609.38	-0.000360107	0.00444183
1609.86	-0.000317383	0.00801392
1610.32	-0.699036	-0.0185852
1610.78	-0.000210571	0.00444427
1611.26	0.000201416	0.00801086
1611.72	-0.698761	-0.0185822
1612.18	0.000344849	0.00445038
1612.66	-0.000262451	0.00802307
1613.12	-0.697876	-0.018573
1613.58	7.01904e-05	0.00445587
1614.06	-0.000698853	0.00802307
1614.52	-0.699066	-0.0185791
1614.98	6.40869e-05	0.00445984
1615.46	0.000354004	0.00802307
1615.92	-0.698547	-0.0185699
1616.38	-0.000518799	0.00446533
1616.86	-0.000335693	0.00802917
1617.32	-0.698975	-0.0185608
1617.78	-0.000494385	0.00446625
1618.26	-0.000567627	0.00801697
1618.72	-0.698975	-0.0185608
1619.18	0.000204468	0.0044632
1619.66	0.000262451	0.00802002
1620.12	-0.697693	-0.0185638
1620.58	0.000799561	0.00446289
1621.06	-0.000546265	0.00802917
1621.52	-0.697845	-0.0185699
1621.98	0.000610352	0.00446533
1622.46	-0.000177002	0.00802612
1622.92	-0.697693	-0.0185577
1623.38	2.44141e-05	0.00447571
1623.86	-0.000616455	0.00802612
1624.32	-0.697662	-0.0185547
1624.78	0.000698853	0.00446838
1625.26	-0.000701904	0.00802307
1625.72	-0.697754	-0.0185486
1626.18	0.000637817	0.0044696
1626.66	0.000488281	0.00803833
1627.12	-0.698608	-0.0185455
1627.58	-0.000524902	0.00447815
1628.06	-0.000509644	0.00801392
1628.52	-0.698608	-0.0185364
1628.98	0.000769043	0.00447845
1629.46	0.000585937	0.00802612
1629.92	-0.698883	-0.0185394
1630.38	-0.000576782	0.00448517
1630.86	0.000640869	0.00802612
1631.32	-0.698273	-0.0185425
1631.78	-0.000485229	0.00448639
1632.26	0.000140381	0.00802002
1632.72	-0.6987	-0.0185425
1633.18	0.000637817	0.00447937
1633.66	-0.00072937	0.00802307
1634.12	-0.698914	-0.0185333
1634.58	0.000769043	0.00448029
1635.06	0.000518799	0.00802002
1635.52	-0.69873	-0.0185272
1635.98	1.2207e-05	0.00448456
1636.46	0.000378418	0.00801392
1636.92	-0.698456	-0.0185242
1637.38	0.000842285	0.00448273
1637.86	-0.0006073	0.00801697
1638.32	-0.698975	-0.018515
1638.78	-0.000466919	0.0044928
1639.26	-0.000140381	0.00801697
1639.72	-0.697662	-0.0185272
1640.18	-0.000469971	0.00449371
1640.66	-0.0003479	0.00802612
1641.12	-0.698822	-0.0185242
1641.58	-0.000408936	0.00449219
1642.06	-2.13623e-05	0.00801697
1642.52	-0.697784	-0.0185089
1642.98	-0.000140381	0.00449463
1643.46	0.000527954	0.00800171
1643.92	-0.697571	-0.018515
1644.38	-0.00039978	0.00449463
1644.86	-0.000720215	0.00802002
1645.32	-0.698944	-0.0185089
1645.78	0.00065918	0.00449097
1646.26	-0.000665283	0.00800781
1646.72	-0.698547	-0.0185181
1647.18	-0.000485229	0.0044989
1647.66	-0.00072937	0.00802002
1648.12	-0.6987	-0.0185089
1648.58	-0.000146484	0.00450012
1649.06	0.000509644	0.00800476
1649.52	-0.698944	-0.0185059
1649.98	0.000360107	0.0044986
1650.46	0.000177002	0.00800171
1650.92	-0.698029	-0.0185089
1651.38	-0.000430298	0.00450287
1651.86	0.000543213	0.00800476
1652.32	-0.698944	-0.0185028
1652.78	5.18799e-05	0.00450348
1653.26	0.000183105	0.00800171
1653.72	-0.698944	-0.0184998
1654.18	0.000372314	0.00449432
1654.66	-0.000836182	0.00800476
1655.12	-0.698975	-0.0184998
1655.58	0.000637817	0.00450043
1656.06	-7.01904e-05	0.00800171
1656.52	-0.698029	-0.0185059
1656.98	0.000646973	0.00449829
1657.46	0.000299072	0.00800171
1657.92	-0.698029	-0.018515
1658.38	0.000717163	0.00449799
1658.86	-0.000265503	0.00799866
1659.32	-0.698914	-0.0184967
1659.78	-0.000378418	0.00450897
1660.26	0.000567627	0.00799561
1660.72	-0.698517	-0.0185089
1661.18	-3.05176e-06	0.0045047
1661.66	5.18799e-05	0.00800171
1662.12	-0.697571	-0.0184998
1662.58	0.000500488	0.00450562
1663.06	-0.000750732	0.00799866
1663.52	-0.698761	-0.0184967
1663.98	-0.000131226	0.00450714
1664.46	0.000338745	0.00800171
1664.92	-0.697632	-0.0184967
1665.38	0.000561523	0.00450562
1665.86	-0.000741577	0.00800476
1666.32	-0.698822	-0.0184875
1666.78	0.000579834	0.00450592
1667.26	-0.000708008	0.00799561
1667.72	-0.699066	-0.0184814
1668.18	0.000363159	0.00450836
1668.66	-0.000616455	0.00799561
1669.12	-0.697449	-0.0184875
1669.58	0.000823975	0.0045047
1670.06	0.000149536	0.00799255
1670.52	-0.698853	-0.0184723
1670.98	0.000756836	0.00450378
1671.46	0.000564575	0.00798645
1671.92	-0.698517	-0.0184753
1672.38	-3.35693e-05	0.00450867
1672.86	-0.000704956	0.00798645
1673.32	-0.697601	-0.0184845
1673.78	-0.000488281	0.00451385
1674.26	-0.000323486	0.00799561
1674.72	-0.698303	-0.0184723
1675.18	-0.000564575	0.00451477
1675.66	0.00039978	0.0079834
1676.12	-0.698944	-0.0184662
1676.58	0.000640869	0.00450531
1677.06	-5.18799e-05	0.00798645
1677.52	-0.698578	-0.0184631
1677.98	0.000769043	0.00450653
1678.46	-0.000488281	0.00796814
1678.92	-0.697815	-0.0184601
1679.38	0.000238037	0.00451599
1679.86	-0.000140381	0.00797729
1680.32	-0.698029	-0.0184692
1680.78	3.96729e-05	0.00451752
1681.26	-1.52588e-05	0.00796814
1681.72	-0.6987	-0.0184601
1682.18	-0.000442505	0.00451843
1682.66	0.00050354	0.00796204
1683.12	-0.699005	-0.0184479
1683.58	-0.000128174	0.00451721
1684.06	-0.000753784	0.00796814
1684.52	-0.697815	-0.0184601
1684.98	0.000634766	0.00450836
1685.46	0.000543213	0.00796204
1685.92	-0.697968	-0.0184448
1686.38	0.000134277	0.00451447
1686.86	-0.000479126	0.00796509
1687.32	-0.698212	-0.0184479
1687.78	0.000112915	0.00451111
1688.26	-0.00032959	0.00795288
1688.72	-0.699066	-0.0184418
1689.18	0.000802612	0.00450958
1689.66	0.000604248	0.00795898
1690.12	-0.699036	-0.0184387
1690.58	-0.000463867	0.00451935
1691.06	-0.00012207	0.00794373
1691.52	-0.697937	-0.0184479
1691.98	0.000616455	0.00451324
1692.46	-0.000784302	0.00795288
1692.92	-0.69809	-0.0184296
1693.38	0.000650024	0.00451111
1693.86	0.000177002	0.00794678
1694.32	-0.697968	-0.0184326
1694.78	0.000634766	0.00451324
1695.26	-0.00072937	0.00794678
1695.72	-0.69812	-0.0184204
1696.18	-0.000405884	0.00451813
1696.66	0.00062561	0.00794067
1697.12	-0.698212	-0.0184174
1697.58	0.00010376	0.00451813
1698.06	-0.000317383	0.00793762
1698.52	-0.698944	-0.0184021
1698.98	0.000848389	0.00451111
1699.46	-0.000701904	0.00793762
1699.92	-0.698242	-0.018399
1700.38	0.000686646	0.0045108
1700.86	0.000622559	0.00793762
1701.32	-0.697693	-0.0184052
1701.78	-0.000183105	0.00452118
1702.26	0.000537109	0.00793457
1702.72	-0.698181	-0.018396
1703.18	0.000845337	0.00451447
1703.66	0.000442505	0.00792236
1704.12	-0.697845	-0.0183868
1704.58	0.000900269	0.00451172
1705.06	-0.000637817	0.00791626
1705.52	-0.698822	-0.0183777
1705.98	0.000888062	0.00451172
1706.46	-0.000784302	0.00791931
1706.92	-0.698639	-0.0183838
1707.38	-0.000341797	0.00451996
1707.86	-0.000741577	0.00792236
1708.32	-0.698822	-0.0183655
1708.78	0.000366211	0.00451416
1709.26	-0.000582886	0.00792542
1709.72	-0.698029	-0.0183746
1710.18	0.000485229	0.00450989
1710.66	0.000521851	0.00791016
1711.12	-0.697968	-0.0183624
1711.58	0.000338745	0.00451202
1712.06	-0.00012207	0.00791626
1712.52	-0.699005	-0.0183624
1712.98	0.000830078	0.00451233
1713.46	-0.000726318	0.00791016
1713.92	-0.699036	-0.0183624
1714.38	0.000317383	0.00451599
1714.86	0.000128174	0.00789795
1715.32	-0.697845	-0.0183655
1715.78	-0.000375366	0.00451813
1716.26	0.000567627	0.0078949
1716.72	-0.697601	-0.0183533
1717.18	0.000793457	0.00451202
1717.66	-0.000762939	0.00789795
1718.12	-0.698853	-0.0183411
1718.58	-0.000482178	0.00451965
1719.06	0.000570679	0.00789185
1719.52	-0.697662	-0.0183411
1719.98	0.000650024	0.00451447
1720.46	-0.000717163	0.00789185
1720.92	-0.698547	-0.0183319
1721.38	-0.000415039	0.00452057
1721.86	-0.000488281	0.00789185
1722.32	-0.699005	-0.018335
1722.78	0.00027771	0.00451355
1723.26	0.000527954	0.00787964
1723.72	-0.698242	-0.0183319
1724.18	-0.000579834	0.00451843
1724.66	-3.35693e-05	0.0078949
1725.12	-0.698761	-0.0183289
1725.58	-0.000582886	0.00452148
1726.06	0.000646973	0.00788574
1726.52	-0.697571	-0.0183319
1726.98	-0.00027771	0.00452362
1727.46	3.05176e-06	0.00787659
1727.92	-0.698486	-0.0183167
1728.38	0.000189209	0.00451538
1728.86	-0.000604248	0.00788269
1729.32	-0.698578	-0.0183197
1729.78	-0.000463867	0.00452087
1730.26	-0.000646973	0.00788574
1730.72	-0.697693	-0.0183258
1731.18	9.15527e-05	0.00452087
1731.66	8.23975e-05	0.00788574
1732.12	-0.698608	-0.0183289
1732.58	0.000732422	0.00451477
1733.06	-0.000341797	0.00786743
1733.52	-0.697693	-0.0183258
1733.98	0.000839233	0.00451691
1734.46	-2.44141e-05	0.00786438
1734.92	-0.698212	-0.0183136
1735.38	0.000689697	0.00451965
1735.86	0.000531006	0.00787354
1736.32	-0.697754	-0.0183319
1736.78	-0.00043335	0.00452576
1737.26	-0.000424194	0.00788574
1737.72	-0.69812	-0.0183228
1738.18	0.000665283	0.00451782
1738.66	0.000402832	0.00787048
1739.12	-0.698212	-0.0183105
1739.58	-0.000393677	0.00452942
1740.06	-0.000668335	0.00787964
1740.52	-0.699158	-0.0183167
1740.98	0.000759888	0.00452087
1741.46	0.000595093	0.00787354
1741.92	-0.697815	-0.0183228
1742.38	-0.00020752	0.00452545
1742.86	-0.000765991	0.00787659
1743.32	-0.697998	-0.0183228
1743.78	-0.000521851	0.00452972
1744.26	1.52588e-05	0.00787659
1744.72	-0.69873	-0.0183105
1745.18	0.000866699	0.00452209
1745.66	-0.000744629	0.00787659
1746.12	-0.698364	-0.0183228
1746.58	0.000939941	0.00452576
1747.06	-0.000631714	0.00787659
1747.52	-0.698975	-0.0183197
1747.98	-0.000210571	0.00453552
1748.46	-0.000479126	0.00786743
1748.92	-0.697723	-0.0183197
1749.38	-0.000521851	0.00453644
1749.86	3.96729e-05	0.00786438
1750.32	-0.699005	-0.0183167
1750.78	0.000683594	0.00453125
1751.26	-0.000827026	0.00786743
1751.72	-0.698914	-0.0183105
1752.18	7.01904e-05	0.00453094
1752.66	-0.000811768	0.00786743
1753.12	-0.698059	-0.0183105
1753.58	-0.000457764	0.00453766
1754.06	-0.000738525	0.00787659
1754.52	-0.697693	-0.0183167
1754.98	-0.000518799	0.00453827
1755.46	3.05176e-06	0.00785828
1755.92	-0.698975	-0.0183075
1756.38	0.000894165	0.00453064
1756.86	-0.000701904	0.00786438
1757.32	-0.698639	-0.0183136
1757.78	0.000527954	0.00453339
1758.26	-0.000570679	0.00786133
1758.72	-0.698853	-0.0183228
1759.18	0.000482178	0.00453339
1759.66	0.00055542	0.00786133
1760.12	-0.69751	-0.0183105
1760.58	-0.000524902	0.00454346
1761.06	0.000177002	0.00786133
1761.52	-0.699066	-0.0183167
1761.98	-0.000268555	0.00454254
1762.46	-0.000750732	0.00786133
1762.92	-0.698944	-0.0183136
1763.38	0.000531006	0.00453491
1763.86	0.000524902	0.00785522
1764.32	-0.69812	-0.0183197
1764.78	0.000579834	0.00453735
1765.26	-0.00039978	0.00786743
1765.72	-0.697632	-0.0183197
1766.18	-0.000112915	0.00454559
1766.66	0.000213623	0.00787048
1767.12	-0.697632	-0.0183167
1767.58	-0.00045166	0.00454681
1768.06	-0.000183105	0.00787048
1768.52	-0.697662	-0.018338
1768.98	0.000878906	0.00454132
1769.46	-0.000793457	0.00786438
1769.92	-0.699036	-0.0183289
1770.38	-0.000265503	0.00454071
1770.86	-0.00022583	0.00785217
1771.32	-0.697693	-0.018335
1771.78	-0.000476074	0.00454315
1772.26	-0.000744629	0.00786133
1772.72	-0.698883	-0.0183228
1773.18	0.000201416	0.00454376
1773.66	-6.10352e-06	0.00786133
1774.12	-0.697693	-0.0183258
1774.58	-0.000537109	0.00454498
1775.06	-0.000717163	0.00785522
1775.52	-0.698364	-0.0183228
1775.98	0.000585937	0.00453766
1776.46	0.000476074	0.00784607
1776.92	-0.698761	-0.0183228
1777.38	0.000497437	0.00454132
1777.86	-0.00022583	0.00785522
1778.32	-0.697693	-0.0183197
1778.78	-0.000427246	0.00454865
1779.26	-0.000576782	0.00784912
1779.72	-0.69809	-0.0183289
1780.18	-0.000457764	0.00454926
1780.66	-8.23975e-05	0.00784607
1781.12	-0.698273	-0.0183319
1781.58	0.000714111	0.00453979
1782.06	0.000350952	0.00785217
1782.52	-0.697662	-0.0183136
1782.98	0.000180054	0.00454681
1783.46	0.000460815	0.00785217
1783.92	-0.699066	-0.0183167
1784.38	0.000598145	0.00454132
1784.86	-0.000265503	0.00783997
1785.32	-0.697968	-0.0183167
1785.78	-0.000488281	0.00454956
1786.26	-0.000671387	0.00784912
1786.72	-0.698273	-0.0183075
1787.18	0.000491333	0.00454651
1787.66	0.000564575	0.00783997
1788.12	-0.698761	-0.0182953
1788.58	0.00083313	0.00454407
1789.06	1.83105e-05	0.00785217
1789.52	-0.698669	-0.0182953
1789.98	0.000311279	0.00455322
1790.46	-0.000701904	0.00784302
1790.92	-0.698425	-0.0183014
1791.38	0.000881958	0.00454407
1791.86	-6.71387e-05	0.00784302
1792.32	-0.698029	-0.0182983
1792.78	-0.000500488	0.00455139
1793.26	-0.000112915	0.00784302
1793.72	-0.69809	-0.0182892
1794.18	0.000778198	0.00454681
1794.66	-0.000643921	0.00783081
1795.12	-0.698059	-0.0182861
1795.58	0.000646973	0.00454773
1796.06	-0.000323486	0.00782776
1796.52	-0.698303	-0.0182831
1796.98	-7.62939e-05	0.00455322
1797.46	-0.000549316	0.00782776
1797.92	-0.698547	-0.0182831
1798.38	-0.000488281	0.00455536
1798.86	0.000219727	0.0078186
1799.32	-0.698914	-0.0182892
1799.78	-0.000186157	0.00455292
1800.26	0.000585937	0.00783081
1800.72	-0.698608	-0.01828
1801.18	0.000747681	0.00454803
1801.66	0.000320435	0.00782776
1802.12	-0.698578	-0.018277
1802.58	0.000796509	0.00454987
1803.06	-0.000448608	0.00783691
1803.52	-0.698639	-0.0182739
1803.98	-5.18799e-05	0.00455933
1804.46	-0.000717163	0.00783081
1804.92	-0.697723	-0.0182861
1805.38	-0.000109863	0.00456024
1805.86	-0.000506592	0.00783081
1806.32	-0.697937	-0.01828
1806.78	-0.000393677	0.00456085
1807.26	-0.000769043	0.00782471
1807.72	-0.697937	-0.0182739
1808.18	0.000814819	0.00455322
1808.66	0.000366211	0.00781555
1809.12	-0.699036	-0.0182739
1809.58	0.000479126	0.00455444
1810.06	3.35693e-05	0.00782471
1810.52	-0.698639	-0.0182739
1810.98	-0.000592041	0.00456665
1811.46	0.000491333	0.00783081
1811.92	-0.698792	-0.0182831
1812.38	0.00090332	0.00456238
1812.86	0.000164795	0.00783386
1813.32	-0.698792	-0.0182831
1813.78	0.000628662	0.0045639
1814.26	-0.000384521	0.0078186
1814.72	-0.698639	-0.0182831
1815.18	0.000357056	0.00456635
1815.66	0.000415039	0.00782166
1816.12	-0.698975	-0.0182861
1816.58	0.000387573	0.00456726
1817.06	-0.000320435	0.00782471
1817.52	-0.698181	-0.0182831
1817.98	0.000732422	0.00456543
1818.46	-0.000564575	0.00782776
1818.92	-0.697662	-0.0182892
1819.38	0.000775146	0.00456909
1819.86	9.46045e-05	0.00783691
1820.32	-0.699097	-0.0183136
1820.78	0.000296021	0.00457001
1821.26	0.000515747	0.00783997
1821.72	-0.698883	-0.0183136
1822.18	-0.000332642	0.0045752
1822.66	9.15527e-05	0.00782166
1823.12	-0.697723	-0.0183136
1823.58	-0.00020752	0.00457275
1824.06	4.27246e-05	0.00782471
1824.52	-0.697693	-0.0183136
1824.98	4.27246e-05	0.00457123
1825.46	-0.000741577	0.00783081
1825.92	-0.697662	-0.0183105
1826.38	0.000491333	0.00456848
1826.86	-0.000747681	0.00783081
1827.32	-0.697662	-0.0183075
1827.78	-0.00057373	0.00457367
1828.26	0.000549316	0.00782776
1828.72	-0.697998	-0.0183075
1829.18	0.000292969	0.00457703
1829.66	0.000189209	0.0078186
1830.12	-0.698395	-0.0183105
1830.58	-0.000579834	0.0045755
1831.06	-0.000558472	0.0078186
1831.52	-0.698975	-0.0183014
1831.98	-3.66211e-05	0.00457336
1832.46	0.000616455	0.00781555
1832.92	-0.699005	-0.0183136
1833.38	-1.83105e-05	0.00457214
1833.86	6.10352e-05	0.0078125
1834.32	-0.698975	-0.0183044
1834.78	0.000195313	0.00457123
1835.26	0.000143433	0.00781555
1835.72	-0.698486	-0.0183167
1836.18	-0.000372314	0.00457733
1836.66	0.000448608	0.00781555
1837.12	-0.699097	-0.0183167
1837.58	0.000143433	0.00457123
1838.06	-0.000479126	0.00782471
1838.52	-0.698822	-0.0183167
1838.98	-0.000384521	0.00457611
1839.46	0.000250244	0.00782471
1839.92	-0.69754	-0.0183197
1840.38	0.000509644	0.00456909
1840.86	-0.000579834	0.0078125
1841.32	-0.698395	-0.0183258
1841.78	-0.000457764	0.00457733
1842.26	-0.000762939	0.00781555
1842.72	-0.69809	-0.0183167
1843.18	-0.000512695	0.00457977
1843.66	0.000466919	0.0078186
1844.12	-0.698914	-0.0183105
1844.58	-0.000558472	0.00458069
1845.06	0.000280762	0.00781555
1845.52	-0.69873	-0.0183105
1845.98	0.000704956	0.00457458
1846.46	0.000543213	0.0078125
1846.92	-0.69754	-0.0183197
1847.38	-0.00027771	0.0045755
1847.86	0.000164795	0.00782471
1848.32	-0.698944	-0.0183075
1848.78	0.000848389	0.00457458
1849.26	-0.000790405	0.00780945
1849.72	-0.697662	-0.0183197
1850.18	-0.00039978	0.00458313
1850.66	-0.000674438	0.00781555
1851.12	-0.698181	-0.0183044
1851.58	-0.000408936	0.00458374
1852.06	-0.000338745	0.00781555
1852.52	-0.697601	-0.0183105
1852.98	0.000714111	0.00457581
1853.46	0.000164795	0.00780945
1853.92	-0.697815	-0.0183136
1854.38	-0.000506592	0.00458313
1854.86	-0.000283813	0.00780029
1855.32	-0.6987	-0.0183105
1855.78	0.000402832	0.00458069
1856.26	-9.46045e-05	0.0078125
1856.72	-0.697876	-0.0183105
1857.18	-5.18799e-05	0.00457977
1857.66	-0.000765991	0.0078064
1858.12	-0.697662	-0.0183014
1858.58	0.000808716	0.00457672
1859.06	-6.71387e-05	0.00780334
1859.52	-0.697632	-0.0183014
1859.98	0.000537109	0.00458008
1860.46	0.000259399	0.00778503
1860.92	-0.697876	-0.0183014
1861.38	0.000622559	0.00457977
1861.86	0.00055542	0.00779419
1862.32	-0.697632	-0.0182953
1862.78	2.74658e-05	0.00458466
1863.26	0.000534058	0.00779114
1863.72	-0.697662	-0.0182983
1864.18	-0.000234985	0.00458069
1864.66	-0.00067749	0.00779724
1865.12	-0.697906	-0.0182922
1865.58	-0.000256348	0.00458862
1866.06	0.00022583	0.00779724
1866.52	-0.6987	-0.01828
1866.98	0.000933838	0.00457886
1867.46	0.00062561	0.00779114
1867.92	-0.697754	-0.01828
1868.38	0.000140381	0.0045816
1868.86	0.000512695	0.00779114
1869.32	-0.698792	-0.0182831
1869.78	-0.00039978	0.00458923
1870.26	-0.000201416	0.00778198
1870.72	-0.698761	-0.0182709
1871.18	0.000430298	0.00458282
1871.66	-0.000631714	0.00778503
1872.12	-0.6987	-0.0182709
1872.58	0.000262451	0.00458557
1873.06	-0.000772095	0.00778503
1873.52	-0.697632	-0.0182739
1873.98	3.96729e-05	0.00458862
1874.46	-0.000653076	0.00779114
1874.92	-0.697601	-0.0182831
1875.38	0.000384521	0.00458618
1875.86	-9.15527e-05	0.00778809
1876.32	-0.698853	-0.0182678
1876.78	-0.000424194	0.00459106
1877.26	-0.000256348	0.00777283
1877.72	-0.699005	-0.0182526
1878.18	0.000552368	0.00458221
1878.66	-0.000350952	0.00777283
1879.12	-0.697662	-0.0182495
1879.58	0.000170898	0.0045813
1880.06	0.000286865	0.00775757
1880.52	-0.698975	-0.0182373
1880.98	-0.000524902	0.00458466
1881.46	-0.00072937	0.00776367
1881.92	-0.697693	-0.0182404
1882.38	0.000891113	0.00457764
1882.86	-0.000854492	0.00776062
1883.32	-0.698151	-0.0182404
1883.78	-0.000393677	0.00458282
1884.26	-0.000335693	0.00777893
1884.72	-0.699005	-0.0182404
1885.18	0.000701904	0.0045813
1885.66	0.00067749	0.00776062
1886.12	-0.698883	-0.0182465
1886.58	0.00072937	0.00457703
1887.06	-0.000622559	0.00776367
1887.52	-0.698944	-0.0182434
1887.98	0.000198364	0.00458038
1888.46	-0.000738525	0.00775146
1888.92	-0.698578	-0.0182495
1889.38	-0.000302124	0.00458466
1889.86	-9.15527e-06	0.00775452
1890.32	-0.697571	-0.0182617
1890.78	0.000418091	0.00458069
1891.26	-0.000756836	0.00776062
1891.72	-0.698914	-0.0182556
1892.18	0.000848389	0.00457672
1892.66	-0.000741577	0.00775757
1893.12	-0.698975	-0.0182434
1893.58	0.000405884	0.00457886
1894.06	-0.00039978	0.00776367
1894.52	-0.697845	-0.0182526
1894.98	-0.00012207	0.00458374
1895.46	0.000531006	0.00774841
1895.92	-0.699005	-0.0182434
1896.38	0.000296021	0.00458435
1896.86	-0.00038147	0.00775757
1897.32	-0.697693	-0.0182526
1897.78	-0.000115967	0.00458923
1898.26	-0.000598145	0.00775146
1898.72	-0.698914	-0.0182434
1899.18	0.000869751	0.00458038
1899.66	7.62939e-05	0.00776062
1900.12	-0.698853	-0.0182465
1900.58	0.000732422	0.00458466
1901.06	7.93457e-05	0.00775757
1901.52	-0.698486	-0.0182404
1901.98	0.000430298	0.00458649
1902.46	-0.000735474	0.00774841
1902.92	-0.698822	-0.0182404
1903.38	-0.000335693	0.00459198
1903.86	-0.000500488	0.00774536
1904.32	-0.698792	-0.0182404
1904.78	0.000338745	0.00458893
1905.26	-0.000750732	0.00775146
1905.72	-0.699036	-0.0182373
1906.18	-6.10352e-05	0.00458923
1906.66	0.000552368	0.00774841
1907.12	-0.699036	-0.0182434
1907.58	0.000204468	0.00459015
1908.06	-0.000558472	0.00775757
1908.52	-0.697632	-0.0182465
1908.98	-0.000390625	0.00459473
1909.46	-0.000753784	0.00775146
1909.92	-0.698212	-0.0182495
1910.38	-0.00045166	0.00459625
1910.86	-0.000592041	0.00774841
1911.32	-0.697845	-0.0182495
1911.78	-6.10352e-06	0.00459351
1912.26	0.00055542	0.00774231
1912.72	-0.698517	-0.0182343
1913.18	0.000180054	0.00458954
1913.66	1.52588e-05	0.00775452
1914.12	-0.69873	-0.0182343
1914.58	0.000418091	0.00459595
1915.06	-0.000775146	0.00774231
1915.52	-0.698944	-0.0182404
1915.98	0.000622559	0.00459564
1916.46	-0.000692749	0.00774841
1916.92	-0.698944	-0.0182343
1917.38	0.000234985	0.00459747
1917.86	-6.71387e-05	0.00773315
1918.32	-0.698059	-0.0182465
1918.78	0.000738525	0.00459167
1919.26	0.000531006	0.00773621
1919.72	-0.699005	-0.0182343
1920.18	-0.00020752	0.00459656
1920.66	-0.000653076	0.00774231
1921.12	-0.69812	-0.0182373
1921.58	-0.000546265	0.00460083
1922.06	-0.00071106	0.00774231
1922.52	-0.698944	-0.0182404
1922.98	0.000143433	0.00459534
1923.46	0.000598145	0.00774231
1923.92	-0.699005	-0.0182434
1924.38	0.000622559	0.00459442
1924.86	-0.000515747	0.00775146
1925.32	-0.697876	-0.0182617
1925.78	0.000234985	0.00460205
1926.26	0.000445557	0.00774231
1926.72	-0.698639	-0.0182587
1927.18	9.15527e-06	0.00460693
1927.66	0.000466919	0.00775757
1928.12	-0.698975	-0.0182678
1928.58	-0.000506592	0.00461273
1929.06	-0.000610352	0.00776062
1929.52	-0.697815	-0.0182831
1929.98	9.15527e-05	0.00460754
1930.46	-0.000640869	0.00774841
1930.92	-0.697662	-0.0182739
1931.38	-0.000558472	0.00461273
1931.86	9.46045e-05	0.00776062
1932.32	-0.6987	-0.0182678
1932.78	0.00085144	0.00460724
1933.26	-0.000823975	0.00775452
1933.72	-0.698669	-0.018277
1934.18	0.000479126	0.00461182
1934.66	0.000234985	0.00774536
1935.12	-0.697632	-0.018277
1935.58	-0.000518799	0.00461853
1936.06	-0.000131226	0.00775757
1936.52	-0.6987	-0.0182648
1936.98	0.000543213	0.00461029
1937.46	-0.000759888	0.00775146
1937.92	-0.699097	-0.0182648
1938.38	0.000802612	0.0046109
1938.86	-0.000521851	0.00774536
1939.32	-0.699005	-0.0182678
1939.78	-4.27246e-05	0.00462006
1940.26	7.62939e-05	0.00775452
1940.72	-0.698822	-0.0182739
1941.18	-0.000534058	0.0046228
1941.66	-0.000488281	0.00776367
1942.12	-0.699036	-0.0182709
1942.58	-3.05176e-05	0.00462189
1943.06	5.49316e-05	0.00775452
1943.52	-0.6987	-0.0182587
1943.98	0.000787354	0.0046167
1944.46	0.000579834	0.00774841
1944.92	-0.698059	-0.0182556
1945.38	0.000619507	0.0046167
1945.86	0.000411987	0.00774231
1946.32	-0.697632	-0.0182587
1946.78	-0.000314331	0.00462769
1947.26	0.000222778	0.00775452
1947.72	-0.697876	-0.0182648
1948.18	0.000271606	0.00462646
1948.66	0.000323486	0.00773621
1949.12	-0.698944	-0.0182465
1949.58	0.000567627	0.00462463
1950.06	-0.00078125	0.00774536
1950.52	-0.698639	-0.0182404
1950.98	0.000585937	0.00462097
1951.46	-8.54492e-05	0.00773315
1951.92	-0.698853	-0.0182373
1952.38	0.000689697	0.00462158
1952.86	-0.000671387	0.00773621
1953.32	-0.697876	-0.0182312
1953.78	0.000552368	0.00462006
1954.26	0.000408936	0.00773926
1954.72	-0.697937	-0.0182251
1955.18	-0.000210571	0.00462585
1955.66	-0.000747681	0.00773621
1956.12	-0.697998	-0.0182312
1956.58	-0.000143433	0.00462921
1957.06	-0.000125122	0.00773926
1957.52	-0.6987	-0.0182159
1957.98	0.000549316	0.00462067
1958.46	-0.000296021	0.00772095
1958.92	-0.698181	-0.0182251
1959.38	0.000131226	0.00462677
1959.86	0.000518799	0.0077301
1960.32	-0.697693	-0.0182129
1960.78	-0.000500488	0.00463043
1961.26	6.71387e-05	0.00773315
1961.72	-0.697601	-0.0182159
1962.18	0.000750732	0.00462738
1962.66	-0.000814819	0.0077179
1963.12	-0.697662	-0.018219
1963.58	0.000906372	0.00462494
1964.06	5.18799e-05	0.0077301
1964.52	-0.698517	-0.0182159
1964.98	-0.000512695	0.00463409
1965.46	0.000646973	0.0077179
1965.92	-0.698822	-0.0182129
1966.38	-5.79834e-05	0.00463226
1966.86	0.000616455	0.0077179
1967.32	-0.697754	-0.0182098
1967.78	0.000802612	0.00462433
1968.26	0.000177002	0.00771179
1968.72	-0.697632	-0.0182129
1969.18	0.000524902	0.00462616
1969.66	-0.000643921	0.00772095
1970.12	-0.697479	-0.0182037
1970.58	-0.000396729	0.00463684
1971.06	0.000320435	0.00772095
1971.52	-0.699036	-0.0182037
1971.98	0.000860596	0.00462799
1972.46	0.000445557	0.007724
1972.92	-0.699066	-0.0182068
1973.38	0.000799561	0.00462341
1973.86	0.000518799	0.00770569
1974.32	-0.698822	-0.0182037
1974.78	-0.000488281	0.00463043
1975.26	-0.000723267	0.00771484
1975.72	-0.697784	-0.0182159
1976.18	0.000717163	0.00462158
1976.66	-0.000421143	0.00771484
1977.12	-0.698547	-0.0182159
1977.58	-0.00032959	0.00462189
1978.06	-0.000650024	0.00769653
1978.52	-0.698608	-0.0182037
1978.98	0.000561523	0.00462433
1979.46	-0.000286865	0.00771179
1979.92	-0.698639	-0.0182068
1980.38	0.000622559	0.00461853
1980.86	0.000396729	0.00770569
1981.32	-0.698944	-0.0182068
1981.78	0.000622559	0.00462219
1982.26	-0.000726318	0.00770569
1982.72	-0.697937	-0.018219
1983.18	-0.000354004	0.00462646
1983.66	0.000537109	0.00769348
1984.12	-0.698761	-0.0182098
1984.58	7.32422e-05	0.00462555
1985.06	-0.000686646	0.00769958
1985.52	-0.697968	-0.0182037
1985.98	0.00072937	0.00462158
1986.46	-0.000576782	0.00770569
1986.92	-0.697693	-0.0182068
1987.38	0.000631714	0.00462006
1987.86	0.000564575	0.00769958
1988.32	-0.698181	-0.0182068
1988.78	-0.000564575	0.0046286
1989.26	-0.000634766	0.00769653
1989.72	-0.698517	-0.0182129
1990.18	0.000805664	0.00462036
1990.66	0.000482178	0.00769958
1991.12	-0.697723	-0.0182129
1991.58	-0.000543213	0.00463043
1992.06	1.2207e-05	0.00768433
1992.52	-0.698944	-0.0182037
1992.98	0.000448608	0.00462891
1993.46	-0.000335693	0.00768433
1993.92	-0.697845	-0.0182129
1994.38	-0.000531006	0.00462952
1994.86	-0.000491333	0.00769043
1995.32	-0.698273	-0.0182007
1995.78	1.2207e-05	0.00463043
1996.26	-0.000250244	0.00769958
1996.72	-0.69809	-0.0182037
1997.18	0.00072937	0.00462372
1997.66	0.000216675	0.00769653
1998.12	-0.698486	-0.0182129
1998.58	-0.000527954	0.00463257
1999.06	-0.000698853	0.00768738
1999.52	-0.698669	-0.0182068
1999.98	0.000823975	0.00462524
2000.46	0.00055542	0.00769043
2000.92	-0.698486	-0.0181946
2001.38	-0.000524902	0.0046344
2001.86	-0.000686646	0.00769348
2002.32	-0.698944	-0.0182037
2002.78	0.000735474	0.00462769
2003.26	8.54492e-05	0.00768127
2003.72	-0.697601	-0.0182037
2004.18	-0.000512695	0.00463776
2004.66	-0.000631714	0.00768738
2005.12	-0.698181	-0.0182068
2005.58	-0.000274658	0.00463745
2006.06	-0.000714111	0.00769043
2006.52	-0.698944	-0.0181885
2006.98	-0.000253296	0.00463196
2007.46	0	0.00767517
2007.92	-0.697906	-0.0182159
2008.38	0.000506592	0.00463074
2008.86	-0.000546265	0.00768738
2009.32	-0.698364	-0.018219
2009.78	-0.000527954	0.0046286
2010.26	0.000561523	0.00768127
2010.72	-0.699005	-0.0182098
2011.18	0.000558472	0.00462158
2011.66	-0.000424194	0.00767212
2012.12	-0.697815	-0.018219
2012.58	-0.000506592	0.00462708
2013.06	0.000509644	0.00767517
2013.52	-0.697662	-0.0182251
2013.98	-0.000469971	0.00463074
2014.46	-0.000222778	0.00767212
2014.92	-0.697601	-0.018219
2015.38	0.000216675	0.00462738
2015.86	-0.000772095	0.00767822
2016.32	-0.697571	-0.0182159
2016.78	0.000634766	0.00462524
2017.26	-0.000161743	0.00768433
2017.72	-0.698578	-0.018219
2018.18	0.000292969	0.00462982
2018.66	-0.000180054	0.00768127
2019.12	-0.697815	-0.018222
2019.58	-0.000378418	0.00463226
2020.06	-0.000720215	0.00767517
2020.52	-0.697693	-0.0182129
2020.98	0.000759888	0.00462921
2021.46	0.000537109	0.00767517
2021.92	-0.698944	-0.0182098
2022.38	0.000933838	0.00463013
2022.86	-0.000424194	0.00766907
2023.32	-0.697662	-0.0182159
2023.78	-0.000518799	0.00463562
2024.26	-0.000692749	0.00768127
2024.72	-0.698761	-0.0182098
2025.18	0.000823975	0.00463501
2025.66	-0.000805664	0.00767822
2026.12	-0.698456	-0.0182068
2026.58	0.000540161	0.00463715
2027.06	0.00043335	0.00767517
2027.52	-0.698181	-0.0182037
2027.98	-0.00038147	0.00463989
2028.46	-0.000338745	0.00766907
2028.92	-0.697876	-0.0182007
2029.38	-0.000552368	0.00464386
2029.86	3.05176e-06	0.00766907
2030.32	-0.697754	-0.0182068
2030.78	0.000601196	0.00463928
2031.26	-0.000497437	0.00767822
2031.72	-0.697632	-0.0182037
2032.18	-0.000430298	0.00464722
2032.66	-0.00071106	0.00767822
2033.12	-0.697662	-0.0182068
2033.58	-0.000479126	0.00464874
2034.06	-0.000305176	0.00768433
2034.52	-0.698334	-0.0182007
2034.98	0.000726318	0.00464142
2035.46	0.000357056	0.00767212
2035.92	-0.698792	-0.0181946
2036.38	0.000836182	0.00463928
2036.86	0.00062561	0.00766907
2037.32	-0.698425	-0.0182007
2037.78	-0.000543213	0.00464966
2038.26	-0.000827026	0.00767517
2038.72	-0.697601	-0.0182007
2039.18	-0.000411987	0.00464539
2039.66	-0.00050354	0.00765991
2040.12	-0.697693	-0.0182007
2040.58	-0.000491333	0.00465149
2041.06	-0.000720215	0.00766907
2041.52	-0.698761	-0.0181976
2041.98	0.000784302	0.00464325
2042.46	0.000598145	0.00766296
2042.92	-0.698059	-0.0181915
2043.38	0.000393677	0.00464844
2043.86	0.000384521	0.00766602
2044.32	-0.699005	-0.0181885
2044.78	0.000817871	0.00464478
2045.26	-7.32422e-05	0.00767212
2045.72	-0.697937	-0.0181946
2046.18	0.000445557	0.00464996
2046.66	3.96729e-05	0.00767517
2047.12	-0.698792	-0.0181885
2047.58	0.000817871	0.00464661
2048.06	0.000576782	0.00766296
2048.52	-0.699005	-0.0181854
2048.98	0.000762939	0.00464966
2049.46	0.000134277	0.00765381
2049.92	-0.697876	-0.0181915
2050.38	0.000680542	0.00465179
2050.86	0.000241089	0.00766296
2051.32	-0.697662	-0.0181976
2051.78	0.000872803	0.00464935
2052.26	3.66211e-05	0.00765686
2052.72	-0.697876	-0.0181946
2053.18	1.83105e-05	0.00465088
2053.66	0.000662231	0.00765991
2054.12	-0.697632	-0.0181946
2054.58	0.000576782	0.00464935
2055.06	-8.54492e-05	0.00767212
2055.52	-0.698395	-0.0181885
2055.98	-0.000500488	0.00466095
2056.46	0.000558472	0.00765991
2056.92	-0.697876	-0.0181946
2057.38	0.000500488	0.0046524
2057.86	7.62939e-05	0.00767212
2058.32	-0.699005	-0.0181824
2058.78	0.000695801	0.00465485
2059.26	6.10352e-05	0.00767212
2059.72	-0.698059	-0.0181915
2060.18	-0.000335693	0.00466187
2060.66	-0.000750732	0.00766296
2061.12	-0.697723	-0.0181915
2061.58	-0.000357056	0.00466034
2062.06	-0.00043335	0.00765991
2062.52	-0.69812	-0.0181763
2062.98	0.000732422	0.00465393
2063.46	-0.000177002	0.00766907
2063.92	-0.698822	-0.0181854
2064.38	-0.00043335	0.00466492
2064.86	7.32422e-05	0.00764771
2065.32	-0.697906	-0.0181824
2065.78	0.000198364	0.004664
2066.26	-0.000701904	0.00766296
2066.72	-0.697723	-0.0181885
2067.18	0.000296021	0.00465515
2067.66	0.000100708	0.00765076
2068.12	-0.698822	-0.0181702
2068.58	0.000640869	0.00465607
2069.06	4.57764e-05	0.00765991
2069.52	-0.698181	-0.0181763
2069.98	-0.000305176	0.00466309
2070.46	0.000299072	0.00764465
2070.92	-0.698639	-0.0181793
2071.38	0.000311279	0.00466248
2071.86	-0.000436401	0.00766296
2072.32	-0.6987	-0.0181732
2072.78	-0.000524902	0.00466766
2073.26	0.000469971	0.00764771
2073.72	-0.698029	-0.0181854
2074.18	0.000622559	0.00466156
2074.66	-0.000744629	0.00765381
2075.12	-0.699036	-0.0181732
2075.58	-0.000460815	0.00466888
2076.06	4.57764e-05	0.00765076
2076.52	-0.698608	-0.0181763
2076.98	0.000814819	0.00466095
2077.46	0.000567627	0.00764465
2077.92	-0.698853	-0.0181671
2078.38	0.000799561	0.00466278
2078.86	-0.000198364	0.0076416
2079.32	-0.697968	-0.0181763
2079.78	-0.000588989	0.00466766
2080.26	0.000671387	0.00765381
2080.72	-0.698761	-0.0181763
2081.18	-0.00020752	0.00467224
2081.66	-0.000473022	0.0076416
2082.12	-0.697815	-0.0181732
2082.58	-0.000488281	0.00467285
2083.06	0.000387573	0.00764465
2083.52	-0.698944	-0.018161
2083.98	-0.000442505	0.00467194
2084.46	0.000354004	0.00764771
2084.92	-0.698639	-0.0181641
2085.38	0.000372314	0.00466888
2085.86	-0.000372314	0.0076416
2086.32	-0.697754	-0.0181763
2086.78	7.01904e-05	0.00467194
2087.26	0.00010376	0.00763855
2087.72	-0.69751	-0.0181885
2088.18	-0.000289917	0.00467438
2088.66	0.000314331	0.0076416
2089.12	-0.698669	-0.0181915
2089.58	0.000543213	0.00466461
2090.06	-0.000100708	0.00765381
2090.52	-0.698853	-0.0181854
2090.98	-0.000515747	0.00467285
2091.46	0.000521851	0.00765076
2091.92	-0.698364	-0.0181793
2092.38	0.000793457	0.00466431
2092.86	-0.000689697	0.00765076
2093.32	-0.699036	-0.0181824
2093.78	0.000933838	0.00466614
2094.26	-0.000134277	0.00765686
2094.72	-0.698792	-0.0181854
2095.18	0.000198364	0.00467407
2095.66	-7.93457e-05	0.00765076
2096.12	-0.699097	-0.0181732
2096.58	-0.000494385	0.00467499
2097.06	7.62939e-05	0.00763855
2097.52	-0.698975	-0.0181702
2097.98	-0.000500488	0.00467621
2098.46	-0.000247192	0.0076416
2098.92	-0.698883	-0.0181732
2099.38	-0.000146484	0.00467377
2099.86	-0.000509644	0.00763855
2100.32	-0.699066	-0.0181732
2100.78	0.000115967	0.00467529
2101.26	-0.000115967	0.00765076
2101.72	-0.697632	-0.0181793
2102.18	0.000454712	0.00467224
2102.66	0.000579834	0.00763855
2103.12	-0.698944	-0.0181732
2103.58	-0.000485229	0.00467743
2104.06	-0.000744629	0.00764465
2104.52	-0.698303	-0.0181854
2104.98	-0.000109863	0.00467407
2105.46	-0.000485229	0.00763245
2105.92	-0.697632	-0.0181793
2106.38	0.000552368	0.0046701
2106.86	-0.000787354	0.00764465
2107.32	-0.698273	-0.0181854
2107.78	-3.35693e-05	0.00467987
2108.26	7.01904e-05	0.00763855
2108.72	-0.698883	-0.0181763
2109.18	0.00088501	0.00467285
2109.66	-0.000808716	0.00764465
2110.12	-0.698151	-0.0181702
2110.58	-0.000512695	0.00468018
2111.06	0.000561523	0.00763855
2111.52	-0.697601	-0.0181824
2111.98	-0.00027771	0.00468079
2112.46	0.000363159	0.00763855
2112.92	-0.697662	-0.0181763
2113.38	-0.000500488	0.00468079
2113.86	1.83105e-05	0.0076416
2114.32	-0.697937	-0.0181732
2114.78	-0.0003479	0.0046814
2115.26	0.000323486	0.0076416
2115.72	-0.698242	-0.0181824
2116.18	-0.000485229	0.00467865
2116.66	-0.000747681	0.00763855
2117.12	-0.697571	-0.0181793
2117.58	0.000765991	0.0046759
2118.06	0.000497437	0.00763245
2118.52	-0.698059	-0.0181732
2118.98	0.000723267	0.00467865
2119.46	0.000579834	0.00763245
2119.92	-0.698242	-0.0181702
2120.38	0.00083313	0.00467621
2120.86	0.000613403	0.00763245
2121.32	-0.698273	-0.0181671
2121.78	0.000402832	0.00468079
2122.26	0.00057373	0.0076355
2122.72	-0.698944	-0.0181671
2123.18	0.000839233	0.00467834
2123.66	0.000234985	0.00762634
2124.12	-0.698914	-0.0181732
2124.58	-0.000598145	0.00468597
2125.06	0.000601196	0.0076355
2125.52	-0.697662	-0.0181732
2125.98	-0.000482178	0.00468445
2126.46	0.000582886	0.0076355
2126.92	-0.697723	-0.0181824
2127.38	-0.00038147	0.00468597
2127.86	-0.000759888	0.00763245
2128.32	-0.698853	-0.0181732
2128.78	0.00015564	0.00468384
2129.26	-0.000317383	0.00762939
2129.72	-0.699005	-0.0181671
2130.18	0.000326538	0.00468018
2130.66	0.000460815	0.00763245
2131.12	-0.699097	-0.0181732
2131.58	0.000830078	0.00468109
2132.06	-0.000241089	0.0076416
2132.52	-0.699036	-0.0181824
2132.98	0.000552368	0.00467987
2133.46	9.76562e-05	0.0076355
2133.92	-0.697815	-0.0181763
2134.38	-0.000238037	0.00468933
2134.86	-0.000598145	0.00762634
2135.32	-0.698547	-0.0181671
2135.78	-0.000537109	0.00468994
2136.26	0.000494385	0.00762024
2136.72	-0.698486	-0.0181793
2137.18	0.000814819	0.00468414
2137.66	-0.000311279	0.0076355
2138.12	-0.697632	-0.0181793
2138.58	0.000863647	0.00468536
2139.06	0.000701904	0.00763245
2139.52	-0.698639	-0.0181641
2139.98	-0.000344849	0.00468536
2140.46	-0.000479126	0.00763855
2140.92	-0.6987	-0.0181732
2141.38	-4.88281e-05	0.00469147
2141.86	0.000311279	0.00762939
2142.32	-0.698975	-0.0181732
2142.78	-0.000405884	0.00469299
2143.26	0.000494385	0.0076355
2143.72	-0.698975	-0.0181793
2144.18	-0.00039978	0.00469269
2144.66	0.000372314	0.00763245
2145.12	-0.698151	-0.0181946
2145.58	-0.000415039	0.00469269
2146.06	-3.05176e-05	0.00763855
2146.52	-0.697754	-0.0181946
2146.98	-0.000393677	0.0046936
2147.46	-5.18799e-05	0.0076416
2147.92	-0.698486	-0.0181915
2148.38	-0.000543213	0.0046936
2148.86	-0.000726318	0.00763245
2149.32	-0.698364	-0.0181793
2149.78	-0.000411987	0.00469482
2150.26	-0.000177002	0.00763855
2150.72	-0.697662	-0.0181915
2151.18	-0.000195313	0.00469604
2151.66	-0.000646973	0.00763245
2152.12	-0.697693	-0.0181824
2152.58	0.000723267	0.00468658
2153.06	0.000509644	0.00763245
2153.52	-0.698822	-0.0181793
2153.98	0.000228882	0.00469574
2154.46	-0.000576782	0.00763245
2154.92	-0.698914	-0.0181793
2155.38	0.000540161	0.00469269
2155.86	-0.000247192	0.0076355
2156.32	-0.698578	-0.0181854
2156.78	0.000354004	0.00469208
2157.26	-0.000430298	0.0076355
2157.72	-0.698059	-0.0181885
2158.18	-0.000494385	0.00469604
2158.66	-0.000527954	0.00762024
2159.12	-0.698944	-0.0181732
2159.58	0.000802612	0.00469055
2160.06	0.000509644	0.00762329
2160.52	-0.698456	-0.0181732
2160.98	-0.000119019	0.00469971
2161.46	0.000253296	0.00762939
2161.92	-0.699036	-0.0181824
2162.38	-0.000424194	0.00469971
2162.86	-0.00038147	0.00762939
2163.32	-0.698883	-0.0181854
2163.78	0.000323486	0.00469421
2164.26	-0.000762939	0.0076355
2164.72	-0.698944	-0.0181793
2165.18	0.000402832	0.00469482
2165.66	-0.000427246	0.00762329
2166.12	-0.699036	-0.0181732
2166.58	-0.00043335	0.00470459
2167.06	-0.000393677	0.00762939
2167.52	-0.697723	-0.0181854
2167.98	0.000772095	0.00469391
2168.46	0.000588989	0.00762024
2168.92	-0.698914	-0.0181732
2169.38	0.000646973	0.00469452
2169.86	0.000430298	0.00762939
2170.32	-0.698395	-0.0181793
2170.78	-0.000402832	0.00470581
2171.26	-0.00015564	0.00761414
2171.72	-0.69812	-0.0181702
2172.18	0.000814819	0.00469757
2172.66	0.000421143	0.00762024
2173.12	-0.698792	-0.0181732
2173.58	-0.000500488	0.00470734
2174.06	-0.000723267	0.00762329
2174.52	-0.699066	-0.0181702
2174.98	-0.000125122	0.00470367
2175.46	5.49316e-05	0.00761719
2175.92	-0.697571	-0.0181702
2176.38	0.000158691	0.00470612
2176.86	-0.000588989	0.00763245
2177.32	-0.698639	-0.0181671
2177.78	0.000714111	0.00470001
2178.26	0.000436401	0.00761414
2178.72	-0.697845	-0.0181763
2179.18	0.000344849	0.00470154
2179.66	-0.000735474	0.00762329
2180.12	-0.697632	-0.0181732
2180.58	-0.000570679	0.00470978
2181.06	0.000357056	0.00761414
2181.52	-0.697937	-0.0181732
2181.98	-0.000149536	0.00470398
2182.46	-0.000201416	0.00762329
2182.92	-0.697845	-0.0181732
2183.38	3.05176e-06	0.00470856
2183.86	0.000585937	0.00761719
2184.32	-0.698273	-0.0181702
2184.78	-0.000112915	0.0047113
2185.26	-0.000582886	0.0076355
2185.72	-0.698242	-0.018158
2186.18	0.000253296	0.00470581
2186.66	0.000360107	0.00762024
2187.12	-0.699036	-0.018158
2187.58	-6.71387e-05	0.00471222
2188.06	-0.000177002	0.00762329
2188.52	-0.697815	-0.018158
2188.98	0.00083313	0.00470459
2189.46	0.000579834	0.00761719
2189.92	-0.698364	-0.0181732
2190.38	0.000231934	0.00471161
2190.86	0.000524902	0.00761414
2191.32	-0.697601	-0.0181702
2191.78	-0.000430298	0.00471313
2192.26	0.000445557	0.00761108
2192.72	-0.698212	-0.0181702
2193.18	-0.000115967	0.00471527
2193.66	-0.000775146	0.00762024
2194.12	-0.698517	-0.018158
2194.58	2.74658e-05	0.00470856
2195.06	-0.000360107	0.00760803
2195.52	-0.697784	-0.018158
2195.98	0.000106812	0.00470917
2196.46	-0.000827026	0.00761719
2196.92	-0.698822	-0.018161
2197.38	0.000259399	0.00471527
2197.86	0.000466919	0.00761108
2198.32	-0.698029	-0.0181702
2198.78	-4.27246e-05	0.00471741
2199.26	0.000540161	0.00761108
2199.72	-0.698547	-0.018158
2200.18	0.000445557	0.00471039
2200.66	-0.000195313	0.00760498
2201.12	-0.698578	-0.0181488
2201.58	0.000241089	0.00471558
2202.06	0.000604248	0.00760803
2202.52	-0.697754	-0.0181641
2202.98	-6.10352e-06	0.00471832
2203.46	-0.000216675	0.00760803
2203.92	-0.698975	-0.0181549
2204.38	-0.000360107	0.00471832
2204.86	-0.000726318	0.00761414
2205.32	-0.697632	-0.0181549
2205.78	0.000421143	0.00471832
2206.26	0.000146484	0.00760193
2206.72	-0.698669	-0.0181519
2207.18	0.000656128	0.00471954
2207.66	-0.000650024	0.00760498
2208.12	-0.698212	-0.0181549
2208.58	0.000637817	0.00472015
2209.06	-0.00085144	0.00761108
2209.52	-0.697784	-0.0181671
2209.98	0.000759888	0.0047168
2210.46	0.000460815	0.00760803
2210.92	-0.698975	-0.0181488
2211.38	-0.00050354	0.00472565
2211.86	-0.000738525	0.00761414
2212.32	-0.697754	-0.0181549
2212.78	0.000375366	0.00471741
2213.26	-0.00017395	0.00759888
2213.72	-0.698975	-0.0181519
2214.18	0.000469971	0.00471741
2214.66	-0.000186157	0.00760193
2215.12	-0.697754	-0.018158
2215.58	0.000311279	0.00472351
2216.06	0.000299072	0.00761719
2216.52	-0.697876	-0.0181488
2216.98	-0.00027771	0.00472443
2217.46	1.83105e-05	0.00759888
2217.92	-0.697662	-0.018158
2218.38	-0.000265503	0.00472504
2218.86	0.000549316	0.00759888
2219.32	-0.697784	-0.0181519
2219.78	-4.27246e-05	0.00472137
2220.26	-0.000354004	0.00761108
2220.72	-0.698456	-0.0181427
2221.18	0.000894165	0.00472229
2221.66	-0.000195313	0.00760193
2222.12	-0.698853	-0.0181549
2222.58	-4.57764e-05	0.00472321
2223.06	-8.8501e-05	0.00762024
2223.52	-0.698517	-0.0181519
2223.98	-0.000424194	0.00473053
2224.46	0.000546265	0.00760498
2224.92	-0.697754	-0.0181549
2225.38	-0.000454712	0.00473206
2225.86	0.000332642	0.00760803
2226.32	-0.697845	-0.0181488
2226.78	-0.000558472	0.00473297
2227.26	0.00057373	0.00760498
2227.72	-0.698181	-0.0181427
2228.18	-0.000521851	0.00473358
2228.66	-0.000186157	0.00761108
2229.12	-0.699097	-0.0181488
2229.58	7.01904e-05	0.00472992
2230.06	-0.000552368	0.00761414
2230.52	-0.697693	-0.0181549
2230.98	0.000296021	0.00473206
2231.46	-0.000256348	0.00760193
2231.92	-0.698853	-0.0181366
2232.38	0.000674438	0.00472717
2232.86	-0.000762939	0.00760498
2233.32	-0.698334	-0.0181427
2233.78	-0.00022583	0.00473083
2234.26	0.000653076	0.00760498
2234.72	-0.697601	-0.0181458
2235.18	-0.000354004	0.00473206
2235.66	0.00065918	0.00759888
2236.12	-0.697693	-0.0181488
2236.58	-2.13623e-05	0.00473236
2237.06	0.000634766	0.00759888
2237.52	-0.69812	-0.0181458
2237.98	0.000823975	0.00472931
2238.46	-0.000222778	0.00758972
2238.92	-0.697662	-0.0181549
2239.38	0.00027771	0.00473114
2239.86	-0.000671387	0.00759583
2240.32	-0.69873	-0.0181335
2240.78	-0.000543213	0.00473999
2241.26	-0.000338745	0.00760193
2241.72	-0.697571	-0.0181458
2242.18	0.000750732	0.00473328
2242.66	0.000228882	0.00760498
2243.12	-0.698883	-0.0181427
2243.58	0.00055542	0.00473145
2244.06	0.000552368	0.00759888
2244.52	-0.698639	-0.0181458
2244.98	0.00062561	0.00473145
2245.46	9.15527e-05	0.00760193
2245.92	-0.69809	-0.0181488
2246.38	0.000350952	0.00473907
2246.86	-0.000784302	0.00759583
2247.32	-0.697632	-0.0181427
2247.78	-0.000292969	0.00474335
2248.26	-0.000793457	0.00759888
2248.72	-0.698944	-0.0181396
2249.18	0.000463867	0.00473328
2249.66	0.000363159	0.00758972
2250.12	-0.697815	-0.0181458
2250.58	0.000762939	0.00473389
2251.06	-7.93457e-05	0.00759277
2251.52	-0.697845	-0.0181488
2251.98	0.000372314	0.0047403
2252.46	0.000531006	0.00758972
2252.92	-0.697662	-0.0181396
2253.38	0.000244141	0.00474091
2253.86	-0.000283813	0.00758362
2254.32	-0.697571	-0.0181396
2254.78	-0.000271606	0.00474457
2255.26	6.40869e-05	0.00758362
2255.72	-0.697754	-0.0181305
2256.18	0.000427246	0.00474121
2256.66	-0.000738525	0.00759888
2257.12	-0.697754	-0.0181366
2257.58	0.000473022	0.00473755
2258.06	0.000170898	0.00759888
2258.52	-0.698639	-0.0181366
2258.98	-0.000509644	0.00474457
2259.46	0.000372314	0.00758972
2259.92	-0.697998	-0.0181335
2260.38	-0.000143433	0.00473969
2260.86	0	0.00759583
2261.32	-0.697998	-0.0181427
2261.78	-0.000390625	0.00474396
2262.26	-0.000765991	0.00759277
2262.72	-0.697662	-0.0181366
2263.18	0.000390625	0.00474457
2263.66	-0.000344849	0.00759583
2264.12	-0.698303	-0.0181274
2264.58	-0.000515747	0.00475037
2265.06	-0.000228882	0.00759888
2265.52	-0.698944	-0.0181244
2265.98	-9.15527e-05	0.00474396
2266.46	-0.000720215	0.00758972
2266.92	-0.698975	-0.0181305
2267.38	0.000604248	0.0047406
2267.86	-0.000747681	0.00758972
2268.32	-0.69809	-0.0181305
2268.78	0.000396729	0.00474213
2269.26	-0.000653076	0.00758362
2269.72	-0.697601	-0.0181274
2270.18	0.000469971	0.00474579
2270.66	0.000473022	0.00758362
2271.12	-0.698944	-0.0181152
2271.58	-0.000500488	0.00475128
2272.06	0.000527954	0.00758362
2272.52	-0.697723	-0.0181335
2272.98	6.10352e-06	0.00474396
2273.46	0.000146484	0.00757751
2273.92	-0.698944	-0.0181152
2274.38	-0.000595093	0.00474792
2274.86	-0.000842285	0.00758362
2275.32	-0.697815	-0.0181305
2275.78	0.000119019	0.0047464
2276.26	-2.13623e-05	0.00758362
2276.72	-0.69873	-0.0181244
2277.18	0.000653076	0.00474579
2277.66	0.00045166	0.00757751
2278.12	-0.697601	-0.0181274
2278.58	0.000537109	0.00474731
2279.06	0.00020752	0.00757141
2279.52	-0.698975	-0.0181152
2279.98	-0.000299072	0.0047525
2280.46	0.000598145	0.00757751
2280.92	-0.699066	-0.0181335
2281.38	-0.000527954	0.00475372
2281.86	0.000585937	0.00758667
2282.32	-0.697998	-0.0181183
2282.78	0.000466919	0.00474731
2283.26	0.000592041	0.00757446
2283.72	-0.6987	-0.0181213
2284.18	5.79834e-05	0.00475098
2284.66	-4.88281e-05	0.00758667
2285.12	-0.699036	-0.0181213
2285.58	-0.000341797	0.00474976
2286.06	-0.000750732	0.00757141
2286.52	-0.698883	-0.0181305
2286.98	0.000921631	0.00474701
2287.46	0.000341797	0.00757141
2287.92	-0.697754	-0.0181274
2288.38	-0.000204468	0.00475372
2288.86	0.000579834	0.00757446
2289.32	-0.697601	-0.0181366
2289.78	-0.000494385	0.00475281
2290.26	1.2207e-05	0.00758362
2290.72	-0.698303	-0.0181213
2291.18	0.000775146	0.0047464
2291.66	0.000216675	0.00756531
2292.12	-0.698669	-0.0181122
2292.58	0.000198364	0.00474762
2293.06	-0.000695801	0.00757751
2293.52	-0.698486	-0.0181152
2293.98	-0.000549316	0.00475403
2294.46	-0.000247192	0.00758057
2294.92	-0.698425	-0.0181152
2295.38	-0.000115967	0.00474884
2295.86	-0.000765991	0.00757141
2296.32	-0.698639	-0.0181274
2296.78	-0.000430298	0.00475403
2297.26	0.000595093	0.00757446
2297.72	-0.698975	-0.0181183
2298.18	-0.000375366	0.00474945
2298.66	0.000549316	0.00757446
2299.08	0.000540161	0.00312592