File: Edgar/20240607/20240607/electrodeposition_pulsed_potential_20240607_D/pulses_0_to_1000.txt
Time (s)	WE(1).Potential (V)	WE(1).Current (A)
181.635	-0.699463	-0.00305206
182.095	0.000576782	1.92261e-06
182.575	0.000610352	0.000105713
183.035	-0.69873	-0.00403168
183.495	0.00057373	6.13403e-06
183.975	-0.000170898	0.000173492
184.435	-0.699341	-0.00532013
184.895	-0.000115967	-2.43225e-05
185.375	0.000604248	0.000215759
185.835	-0.698669	-0.00652283
186.295	0.0006073	-8.71582e-05
186.775	2.44141e-05	0.000285339
187.235	-0.699432	-0.007547
187.695	-0.000109863	-0.000134491
188.175	-0.000177002	0.000435028
188.635	-0.698822	-0.00839233
189.095	-0.000244141	-0.000172089
189.575	-0.00010376	0.000721436
190.035	-0.698669	-0.0091156
190.495	-0.000201416	-0.000198608
190.975	-9.15527e-06	0.00115021
191.435	-0.698578	-0.009729
191.895	-0.000183105	-0.000217133
192.375	0.000372314	0.00168671
192.835	-0.698669	-0.0102386
193.295	0.000549316	-0.000236359
193.775	0.000527954	0.00226624
194.235	-0.698975	-0.0106903
194.695	0.000262451	-0.000243225
195.175	0.000354004	0.00284241
195.635	-0.698914	-0.0110901
196.095	0.0006073	-0.000248627
196.575	0.000653076	0.00338318
197.035	-0.699127	-0.0114471
197.495	0.000595093	-0.00025174
197.975	0.000634766	0.00388336
198.435	-0.698853	-0.0117706
198.895	0.000558472	-0.000253021
199.375	0.0006073	0.00433868
199.835	-0.699036	-0.0120575
200.295	-4.88281e-05	-0.00024823
200.775	-7.93457e-05	0.00475128
201.235	-0.6987	-0.0123383
201.695	-6.10352e-06	-0.000247742
202.175	-0.000286865	0.00511932
202.635	-0.698334	-0.0125885
203.095	0.000357056	-0.000247223
203.575	0.00062561	0.00544403
204.035	-0.698975	-0.0127991
204.495	-0.000256348	-0.000239319
204.975	-9.76562e-05	0.00574799
205.435	-0.698425	-0.0130219
205.895	-0.00027771	-0.0002341
206.375	0.000396729	0.006008
206.835	-0.699005	-0.013205
207.295	0.00071106	-0.000232391
207.775	0.000238037	0.00625427
208.235	-0.698395	-0.0133881
208.695	-0.000231934	-0.000218414
209.175	0.000143433	0.00647156
209.635	-0.698151	-0.0135468
210.095	-0.000265503	-0.0002109375
210.575	0.000640869	0.00666504
211.035	-0.698181	-0.0137146
211.495	3.05176e-06	-0.000202026
211.975	-0.000241089	0.00685028
212.435	-0.698914	-0.0138611
212.895	0.00032959	-0.00019339
213.375	0.000628662	0.00700806
213.835	-0.698181	-0.0139923
214.295	0.000204468	-0.00017807
214.775	-0.000366211	0.00716217
215.235	-0.698273	-0.0141266
215.695	0.000140381	-0.000162964
216.175	-0.000341797	0.00729797
216.635	-0.698822	-0.0142426
217.095	0.00055542	-0.00015036
217.575	-0.000408936	0.00741852
218.035	-0.698303	-0.0143524
218.495	0.000570679	-0.000134888
218.975	-0.000143433	0.00753479
219.435	-0.698822	-0.0144592
219.895	-0.000354004	-0.000110291
220.375	-0.000128174	0.0076416
220.835	-0.698303	-0.0145599
221.295	0.000152588	-9.11865e-05
221.775	-0.000357056	0.00772705
222.235	-0.699066	-0.0146515
222.695	0.00050354	-7.51648e-05
223.175	-7.62939e-05	0.0078125
223.635	-0.698944	-0.01474
224.095	0.00039978	-5.33142e-05
224.575	-0.000421143	0.0078949
225.035	-0.699158	-0.0148254
225.495	0.000668335	-3.51562e-05
225.975	3.05176e-06	0.00796814
226.435	-0.698914	-0.0149139
226.895	-0.000131226	-7.04956e-06
227.375	0.000500488	0.00804138
227.835	-0.698212	-0.0149933
228.295	-0.000283813	1.61438e-05
228.775	-0.000430298	0.00809937
229.235	-0.698151	-0.0150574
229.695	-0.000311279	3.76282e-05
230.175	-0.000259399	0.00814514
230.635	-0.698059	-0.0151245
231.095	-9.15527e-06	5.76172e-05
231.575	-5.79834e-05	0.00821533
232.035	-0.698395	-0.0151886
232.495	0.000598145	7.8186e-05
232.975	-0.000570679	0.00825195
233.435	-0.699066	-0.0152466
233.895	0.000671387	0.000100037
234.375	0.000448608	0.00830078
234.835	-0.698914	-0.0153137
235.295	0.000720215	0.000118988
235.775	-7.93457e-05	0.00834656
236.235	-0.698029	-0.0153717
236.695	-0.000274658	0.000148682
237.175	0.000546265	0.00837708
237.635	-0.698547	-0.0154236
238.095	0.000793457	0.000162018
238.575	-0.000653076	0.00842285
239.035	-0.699158	-0.0154724
239.495	0.000726318	0.000182556
239.975	-0.000341797	0.00846252
240.435	-0.698822	-0.015509
240.895	0.000790405	0.000202515
241.375	-0.000323486	0.00849304
241.835	-0.698303	-0.0155731
242.295	0.000393677	0.000224457
242.775	0.000189209	0.00852661
243.235	-0.699036	-0.0156342
243.695	-0.000317383	0.000248138
244.175	0.000637817	0.00855103
244.635	-0.698853	-0.0156799
245.095	0.000317383	0.000266113
245.575	0.000509644	0.00858459
246.035	-0.699097	-0.0157257
246.495	0.000878906	0.000279205
246.975	9.76562e-05	0.00861816
247.435	-0.698975	-0.0157837
247.895	0.0003479	0.000301361
248.375	0.000344849	0.00864563
248.835	-0.698364	-0.0158356
249.295	-0.000280762	0.0003237
249.775	0.000534058	0.0086792
250.235	-0.698486	-0.0158691
250.695	0.000814819	0.000333038
251.175	-0.000570679	0.00870056
251.635	-0.697815	-0.015918
252.095	0.000549316	0.000352386
252.575	-0.000561523	0.00872803
253.035	-0.697968	-0.0159515
253.495	0.000668335	0.000368896
253.975	-0.000701904	0.00875854
254.435	-0.698792	-0.0160004
254.895	-0.000317383	0.000392151
255.375	-0.000393677	0.00878296
255.835	-0.698975	-0.0160217
256.295	7.01904e-05	0.000405609
256.775	8.8501e-05	0.00879517
257.235	-0.698944	-0.0160492
257.695	-0.000213623	0.000422119
258.175	3.66211e-05	0.00881042
258.635	-0.699066	-0.0160828
259.095	0.000665283	0.000433929
259.575	6.40869e-05	0.00882874
260.035	-0.697876	-0.0161255
260.495	-0.000231934	0.000458984
260.975	-0.000604248	0.00884705
261.435	-0.698059	-0.016156
261.895	0.000790405	0.000466858
262.375	0.000125122	0.00886536
262.835	-0.69809	-0.0161865
263.295	-0.000473022	0.000490295
263.775	0.000579834	0.00886536
264.235	-0.698669	-0.016217
264.695	0.000216675	0.000500488
265.175	0.000402832	0.00888367
265.635	-0.699158	-0.0162354
266.095	-0.000143433	0.000520325
266.575	0.000189209	0.00888977
267.035	-0.6987	-0.0162506
267.495	0.000268555	0.000534363
267.975	9.76562e-05	0.00890808
268.435	-0.698669	-0.016275
268.895	0.000131226	0.000552368
269.375	-0.000546265	0.00890808
269.835	-0.698914	-0.0162842
270.295	0.000860596	0.000560303
270.775	-0.000665283	0.00890198
271.235	-0.698914	-0.0162933
271.695	0.00057373	0.000575256
272.175	0.00027771	0.00892334
272.635	-0.698853	-0.0163208
273.095	0.000662231	0.000589294
273.575	0.000592041	0.00892029
274.035	-0.698639	-0.0163391
274.495	0.000839233	0.000605164
274.975	0.000149536	0.0089386
275.435	-0.698944	-0.0163574
275.895	0.000408936	0.000623169
276.375	0.00032959	0.00893555
276.835	-0.697876	-0.016391
277.295	0.000442505	0.00063385
277.775	0.000579834	0.0089447
278.235	-0.698486	-0.0164124
278.695	-0.000320435	0.000653992
279.175	-0.000656128	0.00895386
279.635	-0.698822	-0.0164246
280.095	-0.000357056	0.00066864
280.575	-0.000357056	0.00895081
281.035	-0.6987	-0.0164368
281.495	0.000549316	0.000674438
281.975	-0.000195313	0.00896301
282.435	-0.698212	-0.016452
282.895	-0.000286865	0.000694885
283.375	-3.96729e-05	0.00897522
283.835	-0.698517	-0.0164917
284.295	0.000643921	0.000699463
284.775	0.000650024	0.00898132
285.235	-0.698395	-0.0165009
285.695	0.000396729	0.000719604
286.175	-0.000683594	0.00898743
286.635	-0.698547	-0.0165283
287.095	0.000769043	0.000729675
287.575	0.000537109	0.00899353
288.035	-0.699066	-0.0165436
288.495	0.000549316	0.00073761
288.975	0.000521851	0.00900574
289.435	-0.697845	-0.016571
289.895	-0.000216675	0.000756531
290.375	-0.000698853	0.00901184
290.835	-0.697937	-0.0165894
291.295	-0.000119019	0.000767517
291.775	-0.00055542	0.00901489
292.235	-0.697815	-0.0166107
292.695	0.00083313	0.000774231
293.175	-0.000726318	0.00903015
293.635	-0.698792	-0.016626
294.095	0.000546265	0.000786438
294.575	-0.000439453	0.00903931
295.035	-0.698761	-0.0166351
295.495	0.0006073	0.000797729
295.975	-0.000680542	0.00904236
296.435	-0.699036	-0.0166626
296.895	0.000863647	0.000808716
297.375	0.000558472	0.00903625
297.835	-0.698822	-0.0166809
298.295	0.000546265	0.000821838
298.775	0.000643921	0.00905457
299.235	-0.698944	-0.0167053
299.695	0.000259399	0.000839539
300.175	0.000558472	0.00906067
300.635	-0.697815	-0.0167267
301.095	-0.000405884	0.000849609
301.575	0.000561523	0.00905762
302.035	-0.698975	-0.0167419
302.495	0.000802612	0.000859985
302.975	4.88281e-05	0.00907288
303.435	-0.697784	-0.0167664
303.895	0.000891113	0.000869141
304.375	-0.000701904	0.00907288
304.835	-0.697754	-0.0167908
305.295	0.000527954	0.000882568
305.775	-0.000485229	0.00907898
306.235	-0.699066	-0.0167938
306.695	4.57764e-05	0.000896912
307.175	-0.000286865	0.00908508
307.635	-0.698853	-0.0168091
308.095	0.000836182	0.000905457
308.575	-0.000656128	0.00908508
309.035	-0.69809	-0.0168457
309.495	-0.000271606	0.000925293
309.975	-0.000506592	0.00909119
310.435	-0.698669	-0.0168427
310.895	0.000708008	0.000931091
311.375	0.000543213	0.00910645
311.835	-0.699036	-0.016864
312.295	0.000119019	0.000945129
312.775	0.000622559	0.0091095
313.235	-0.698364	-0.0168884
313.695	-6.10352e-05	0.000957336
314.175	-0.000738525	0.0091095
314.635	-0.697998	-0.0168945
315.095	0.000332642	0.000967407
315.575	-0.000411987	0.00911865
316.035	-0.698212	-0.016925
316.495	0.000546265	0.000979309
316.975	-0.000326538	0.0091217
317.435	-0.698059	-0.0169403
317.895	-0.000375366	0.00100189
318.375	-0.000125122	0.00914001
318.835	-0.698181	-0.0169464
319.295	-0.000180054	0.00101135
319.775	0.000506592	0.00914307
320.235	-0.697784	-0.0169647
320.695	0.000244141	0.00102173
321.175	-0.000115967	0.00914612
321.635	-0.698792	-0.0169708
322.095	-0.000357056	0.00104156
322.575	-0.000274658	0.00916138
323.035	-0.698944	-0.016983
323.495	0.000372314	0.00104828
323.975	-0.000698853	0.00916748
324.435	-0.697845	-0.0170135
324.895	0.000604248	0.00105988
325.375	-0.00072937	0.00916443
325.835	-0.698334	-0.0170319
326.295	0.000256348	0.00107544
326.775	0.000384521	0.00917358
327.235	-0.698517	-0.0170349
327.695	8.8501e-05	0.00109344
328.175	0.00039978	0.00918579
328.635	-0.697998	-0.0170593
329.095	0.00085144	0.00109833
329.575	-0.000140381	0.00917358
330.035	-0.698822	-0.0170532
330.495	-0.00045166	0.0011203
330.975	-0.000390625	0.00917664
331.435	-0.697876	-0.0170868
331.895	0.000604248	0.00113007
332.375	6.10352e-06	0.009198
332.835	-0.698181	-0.0170959
333.295	0.000875854	0.00113831
333.775	0.000497437	0.00919189
334.235	-0.698029	-0.0171143
334.695	0.000469971	0.00115662
335.175	0.000540161	0.0092041
335.635	-0.697662	-0.0171265
336.095	8.8501e-05	0.00117249
336.575	0.000357056	0.00921021
337.035	-0.698853	-0.0171326
337.495	-0.000100708	0.00118439
337.975	-0.000701904	0.00921936
338.435	-0.699188	-0.0171539
338.895	0.000863647	0.00119171
339.375	0.000323486	0.00921021
339.835	-0.698547	-0.01716
340.295	-0.000363159	0.00121338
340.775	-4.27246e-05	0.00922546
341.235	-0.698944	-0.0171722
341.695	0.000378418	0.00121948
342.175	-0.000701904	0.00922852
342.635	-0.697754	-0.0171936
343.095	0.000891113	0.00122986
343.575	0.000247192	0.00924072
344.035	-0.698853	-0.0171936
344.495	-0.000149536	0.0012442
344.975	0.000253296	0.00923157
345.435	-0.697968	-0.0172211
345.895	0.000817871	0.00125336
346.375	-0.000149536	0.00923157
346.835	-0.699036	-0.0172241
347.295	0.000650024	0.00126648
347.775	-0.000631714	0.00924072
348.235	-0.698151	-0.0172333
348.695	-0.000378418	0.00128601
349.175	0.000564575	0.00924072
349.635	-0.697784	-0.0172577
350.095	-0.000384521	0.0012973
350.575	0.000167847	0.00923462
351.035	-0.697723	-0.0172699
351.495	-3.96729e-05	0.00130554
351.975	0.000518799	0.00923767
352.435	-0.699097	-0.0172791
352.895	0.000814819	0.00131165
353.375	0.000350952	0.00925598
353.835	-0.698059	-0.0172974
354.295	0.000854492	0.00132446
354.775	-0.00050354	0.00925598
355.235	-0.698944	-0.0172974
355.695	-0.000280762	0.00134308
356.175	9.76562e-05	0.00923767
356.635	-0.698944	-0.0173096
357.095	0.000839233	0.00134399
357.575	0.000531006	0.00924072
358.035	-0.698792	-0.0173279
358.495	0.000244141	0.00135956
358.975	-0.000131226	0.00923462
359.435	-0.697693	-0.0173431
359.895	0.000292969	0.00137299
360.375	-0.000161743	0.00925598
360.835	-0.698975	-0.0173492
361.295	-0.000454712	0.00138275
361.775	0.000521851	0.00924377
362.235	-0.698029	-0.0173615
362.695	0.000909424	0.0013858
363.175	-0.000714111	0.00924377
363.635	-0.698944	-0.0173676
364.095	0.000762939	0.00139771
364.575	-2.13623e-05	0.00924072
365.035	-0.698547	-0.0173889
365.495	-0.000372314	0.00141357
365.975	0.000491333	0.00924072
366.435	-0.698883	-0.0173889
366.895	0.000357056	0.00141968
367.375	-0.000610352	0.00924377
367.835	-0.697937	-0.0174072
368.295	9.76562e-05	0.00142822
368.775	0.000350952	0.00924377
369.235	-0.698944	-0.0174225
369.695	0.000747681	0.00143707
370.175	-0.000518799	0.00924988
370.635	-0.698914	-0.0174225
371.095	-0.000375366	0.00145264
371.575	0	0.00922852
372.035	-0.698944	-0.0174377
372.495	0.000430298	0.0014563
372.975	-6.10352e-06	0.00922852
373.435	-0.698944	-0.0174408
373.895	0.000750732	0.00146423
374.375	-0.000704956	0.00923462
374.835	-0.698822	-0.0174622
375.295	0.000109863	0.00147583
375.775	-0.000592041	0.00923157
376.235	-0.699005	-0.0174713
376.695	5.79834e-05	0.00148529
377.175	-0.000415039	0.00922546
377.635	-0.698334	-0.0174744
378.095	5.18799e-05	0.00150238
378.575	0.000473022	0.00923157
379.035	-0.697815	-0.0175018
379.495	-0.00027771	0.00151123
379.975	0.000488281	0.00922546
380.435	-0.698425	-0.017511
380.895	0.000793457	0.00151215
381.375	-0.000643921	0.00923462
381.835	-0.698456	-0.017514
382.295	-1.83105e-05	0.00152588
382.775	0.000283813	0.00922241
383.235	-0.698822	-0.0175232
383.695	0.000787354	0.00153137
384.175	0.000421143	0.00922852
384.635	-0.698364	-0.0175446
385.095	-0.000234985	0.00154877
385.575	-0.000274658	0.00923462
386.035	-0.697784	-0.0175507
386.495	-0.000338745	0.00155823
386.975	-0.000637817	0.00923157
387.435	-0.697815	-0.0175659
387.895	0.000125122	0.00156464
388.375	-0.000616455	0.00923157
388.835	-0.697968	-0.017569
389.295	-3.66211e-05	0.00157654
389.775	0.000442505	0.00922852
390.235	-0.698883	-0.0175812
390.695	0.000820923	0.00157898
391.175	0.000250244	0.00922852
391.635	-0.698822	-0.0175873
392.095	0.000808716	0.00159363
392.575	0.000363159	0.00922241
393.035	-0.698761	-0.0175934
393.495	0.000756836	0.00160461
393.975	-0.000631714	0.00922852
394.435	-0.698944	-0.0176117
394.895	-0.000161743	0.00161835
395.375	-0.000479126	0.00923157
395.835	-0.698578	-0.0176239
396.295	-0.000192261	0.00162811
396.775	0.000469971	0.00921936
397.235	-0.697876	-0.017627
397.695	0.000643921	0.00162994
398.175	-0.000598145	0.00921936
398.635	-0.699005	-0.0176361
399.095	8.8501e-05	0.00164307
399.575	-0.000534058	0.00922546
400.035	-0.698425	-0.0176331
400.495	-0.000350952	0.00165619
400.975	0.000402832	0.00922241
401.435	-0.698059	-0.0176514
401.895	0.000769043	0.00165863
402.375	-0.000415039	0.00922852
402.835	-0.69812	-0.0176575
403.295	4.57764e-05	0.0016745
403.775	0.000463867	0.00921936
404.235	-0.698547	-0.0176666
404.695	0.000521851	0.00167908
405.175	-0.000640869	0.00922546
405.635	-0.698761	-0.0176727
406.095	-0.000292969	0.00169678
406.575	-0.000650024	0.00922241
407.035	-0.698669	-0.0176727
407.495	-0.000286865	0.00170715
407.975	0.000149536	0.00921326
408.435	-0.698975	-0.017691
408.895	0.000869751	0.00170837
409.375	0	0.00922546
409.835	-0.697876	-0.0177094
410.295	0.000424194	0.00171692
410.775	0.000546265	0.00922241
411.235	-0.698975	-0.0177063
411.695	0.000247192	0.00172943
412.175	0.000473022	0.00921936
412.635	-0.697845	-0.0177216
413.095	0.000836182	0.00173889
413.575	-0.000601196	0.00922241
414.035	-0.698944	-0.0177216
414.495	-0.000357056	0.0017569
414.975	0.00039978	0.00921936
415.435	-0.698242	-0.0177277
415.895	9.46045e-05	0.00176483
416.375	3.05176e-06	0.00921326
416.835	-0.697723	-0.0177399
417.295	0.000259399	0.00177094
417.775	-0.0006073	0.00922241
418.235	-0.698395	-0.0177551
418.695	-0.000354004	0.0017868
419.175	9.46045e-05	0.00922546
419.635	-0.698395	-0.0177582
420.095	2.13623e-05	0.00179596
420.575	0.000518799	0.00921936
421.035	-0.698547	-0.0177612
421.495	-0.000216675	0.00180695
421.975	0.00027771	0.00921326
422.435	-0.697784	-0.0177734
422.895	0.000283813	0.00181519
423.375	-0.000656128	0.00921936
423.835	-0.698273	-0.0177887
424.295	0.000189209	0.00182251
424.775	-0.000549316	0.00922546
425.235	-0.698914	-0.0177887
425.695	-7.62939e-05	0.00183167
426.175	-0.000695801	0.00922241
426.635	-0.697968	-0.0177948
427.095	-0.000421143	0.0018454
427.575	-0.000415039	0.00921936
428.035	-0.697784	-0.017804
428.495	0.000827026	0.00185089
428.975	0.000354004	0.00921021
429.435	-0.698029	-0.0178101
429.895	0.000363159	0.00185944
430.375	0.000164795	0.00921021
430.835	-0.697937	-0.0178192
431.295	0.000268555	0.00187012
431.775	-0.000518799	0.00921936
432.235	-0.698425	-0.0178253
432.695	2.74658e-05	0.00188385
433.175	-0.000512695	0.00921631
433.635	-0.698669	-0.0178253
434.095	0.000149536	0.00189362
434.575	-0.000357056	0.00921936
435.035	-0.698334	-0.0178345
435.495	0.000634766	0.0018985
435.975	0.000387573	0.00921631
436.435	-0.697937	-0.0178436
436.895	-9.76562e-05	0.00191223
437.375	-0.000476074	0.00922546
437.835	-0.697815	-0.0178528
438.295	0.000604248	0.00191895
438.775	0.000393677	0.00921936
439.235	-0.698334	-0.0178558
439.695	-0.000289917	0.00193329
440.175	8.54492e-05	0.00921936
440.635	-0.698792	-0.017868
441.095	0.000714111	0.00193817
441.575	0.000320435	0.00922546
442.035	-0.697815	-0.0178772
442.495	0.000601196	0.00194672
442.975	0.00022583	0.00921021
443.435	-0.698578	-0.0178772
443.895	0.000698853	0.00195862
444.375	-0.000512695	0.00921631
444.835	-0.698608	-0.0178864
445.295	0.000494385	0.00197083
445.775	7.01904e-05	0.00921631
446.235	-0.698242	-0.0178925
446.695	0.000714111	0.00197632
447.175	-0.000500488	0.00921631
447.635	-0.698029	-0.0178925
448.095	-0.000262451	0.00199097
448.575	-0.000579834	0.00922241
449.035	-0.698212	-0.0179077
449.495	0.000546265	0.00199646
449.975	0.000357056	0.00921326
450.435	-0.698669	-0.0179077
450.895	0.000631714	0.00200378
451.375	0.000189209	0.00921631
451.835	-0.698273	-0.0179169
452.295	-3.35693e-05	0.00201752
452.775	0.000305176	0.0092041
453.235	-0.697723	-0.017926
453.695	-4.88281e-05	0.00202545
454.175	-0.000509644	0.00921326
454.635	-0.697754	-0.017926
455.095	-0.000271606	0.00203522
455.575	-0.0006073	0.00921021
456.035	-0.698151	-0.0179352
456.495	0.00015564	0.00203827
456.975	-0.000308228	0.00920105
457.435	-0.698883	-0.0179382
457.895	0.000585937	0.00204498
458.375	-0.000265503	0.00921021
458.835	-0.698364	-0.0179474
459.295	0.00072937	0.00205597
459.775	-0.00032959	0.0092041
460.235	-0.698364	-0.0179535
460.695	0.000860596	0.00206421
461.175	0.0006073	0.0092041
461.635	-0.69873	-0.0179504
462.095	0.000454712	0.0020694
462.575	-0.00012207	0.00921326
463.035	-0.698822	-0.0179718
463.495	0.00012207	0.00207947
463.975	-0.000311279	0.00920105
464.435	-0.698914	-0.0179718
464.895	-0.000305176	0.00209229
465.375	0.000170898	0.00920105
465.835	-0.697968	-0.0179779
466.295	-7.32422e-05	0.00210114
466.775	0.000372314	0.00918884
467.235	-0.698029	-0.017981
467.695	0.000186157	0.0021048
468.175	6.10352e-05	0.009198
468.635	-0.69873	-0.0179871
469.095	-0.000137329	0.00211426
469.575	0.000497437	0.00918884
470.035	-0.698395	-0.0179871
470.495	5.49316e-05	0.00212402
470.975	-0.000250244	0.00918579
471.435	-0.697876	-0.0180084
471.895	0.000814819	0.00212585
472.375	-0.000289917	0.009198
472.835	-0.697784	-0.0180054
473.295	0.000100708	0.00213898
473.775	-0.000384521	0.00918274
474.235	-0.698608	-0.0180115
474.695	-0.000238037	0.002146
475.175	-4.88281e-05	0.00919189
475.635	-0.698181	-0.0180267
476.095	0.000262451	0.00214905
476.575	-0.000576782	0.00918579
477.035	-0.697906	-0.0180267
477.495	0.000866699	0.00215668
477.975	-0.000387573	0.00918884
478.435	-0.698578	-0.0180328
478.895	0.000680542	0.00216248
479.375	-6.10352e-05	0.00917358
479.835	-0.697845	-0.0180481
480.295	-0.000402832	0.00217621
480.775	-0.000534058	0.00917969
481.235	-0.6987	-0.0180359
481.695	0.00039978	0.00218384
482.175	-0.0003479	0.00918274
482.635	-0.697845	-0.0180511
483.095	-0.000271606	0.00219238
483.575	5.79834e-05	0.00916443
484.035	-0.698853	-0.018045
484.495	0.000332642	0.00219818
484.975	-0.000259399	0.00917664
485.435	-0.697968	-0.0180573
485.895	0.0003479	0.00220154
486.375	0.000509644	0.00916443
486.835	-0.697815	-0.0180573
487.295	0.000201416	0.00221283
487.775	-0.00055542	0.00916138
488.235	-0.698639	-0.0180695
488.695	-0.000302124	0.00222168
489.175	0.000274658	0.00914917
489.635	-0.697845	-0.0180756
490.095	0.000720215	0.0022226
490.575	0.000415039	0.00915833
491.035	-0.698151	-0.0180878
491.495	0.000753784	0.00223175
491.975	7.93457e-05	0.00916138
492.435	-0.697968	-0.0180939
492.895	0.00027771	0.00224213
493.375	0.000460815	0.00916443
493.835	-0.697998	-0.0181091
494.295	-0.000411987	0.0022525
494.775	-0.000271606	0.00916443
495.235	-0.698792	-0.0181122
495.695	-0.000485229	0.00225922
496.175	-0.000360107	0.00916138
496.635	-0.698944	-0.0181213
497.095	-4.57764e-05	0.00225891
497.575	0.000326538	0.00918579
498.035	-0.698853	-0.0181366
498.495	-0.000305176	0.0022699
498.975	-0.000582886	0.00917358
499.435	-0.698822	-0.0181458
499.895	0.000799561	0.00227234
500.375	-0.000674438	0.00917969
500.835	-0.698792	-0.0181671
501.295	0.000802612	0.00228058
501.775	-0.000375366	0.00917664
502.235	-0.698303	-0.0181885
502.695	-0.000326538	0.00229675
503.175	-0.000161743	0.00917358
503.635	-0.697784	-0.0181854
504.095	-0.0003479	0.00230408
504.575	-0.000152588	0.00917969
505.035	-0.697998	-0.0182129
505.495	0.000256348	0.0023056
505.975	0.000201416	0.00917664
506.435	-0.69873	-0.0182037
506.895	0.000720215	0.00231323
507.375	-0.000576782	0.00918274
507.835	-0.697754	-0.0182251
508.295	0.000518799	0.00231812
508.775	0.000323486	0.00918884
509.235	-0.697815	-0.0182373
509.695	-0.000378418	0.00233337
510.175	0.000109863	0.00917969
510.635	-0.699005	-0.0182373
511.095	0.000769043	0.0023349
511.575	-0.000656128	0.00919495
512.035	-0.698578	-0.0182465
512.495	0.000234985	0.00234253
512.975	-0.000735474	0.00920105
513.435	-0.698944	-0.0182709
513.895	0.000164795	0.00234863
514.375	0.000335693	0.00920715
514.835	-0.697968	-0.0182922
515.295	-0.000366211	0.00236267
515.775	0.000115967	0.00919495
516.235	-0.698639	-0.0182892
516.695	0.00015564	0.00236969
517.175	0.000369263	0.00920715
517.635	-0.698883	-0.0183044
518.095	-0.000393677	0.00237762
518.575	-0.000506592	0.00921021
519.035	-0.698792	-0.0183044
519.495	-0.000271606	0.0023819
519.975	0.000268555	0.009198
520.435	-0.697937	-0.0183289
520.895	0.000775146	0.00238342
521.375	-0.000692749	0.0092041
521.835	-0.698883	-0.0183258
522.295	-0.000402832	0.00239716
522.775	-0.000692749	0.00920105
523.235	-0.698669	-0.0183228
523.695	-0.000201416	0.00240326
524.175	-0.000137329	0.00920105
524.635	-0.698242	-0.0183533
525.095	-0.000241089	0.00240875
525.575	-6.10352e-06	0.009198
526.035	-0.697662	-0.0183533
526.495	-0.000323486	0.00241608
526.975	-0.000119019	0.009198
527.435	-0.697784	-0.0183533
527.895	0.000247192	0.00242065
528.375	-0.000372314	0.00921021
528.835	-0.698669	-0.0183624
529.295	0.000784302	0.00242218
529.775	0.000436401	0.009198
530.235	-0.698883	-0.0183594
530.695	7.93457e-05	0.00243195
531.175	0.000491333	0.009198
531.635	-0.69809	-0.0183716
532.095	-0.000390625	0.00244354
532.575	-4.57764e-05	0.00918884
533.035	-0.697754	-0.0183868
533.495	0.000848389	0.00244263
533.975	-0.000491333	0.00918884
534.435	-0.698212	-0.0183838
534.895	0.000775146	0.00244843
535.375	0.000430298	0.009198
535.835	-0.69873	-0.0183838
536.295	-0.000378418	0.0024649
536.775	-0.000744629	0.00918579
537.235	-0.698914	-0.0183838
537.695	0.000622559	0.00246094
538.175	0.000228882	0.00918579
538.635	-0.6987	-0.0183899
539.095	0.000640869	0.00247131
539.575	0.000247192	0.00916748
540.035	-0.698212	-0.0183929
540.495	0.000762939	0.00247406
540.975	-0.000695801	0.00917664
541.435	-0.697876	-0.0184021
541.895	-0.000366211	0.00248932
542.375	-4.57764e-05	0.00916443
542.835	-0.698944	-0.0183929
543.295	0.000759888	0.0024884
543.775	-0.000518799	0.00917664
544.235	-0.699005	-0.018396
544.695	-0.000271606	0.00250214
545.175	-0.000595093	0.00917358
545.635	-0.698029	-0.0184113
546.095	-0.000344849	0.00250824
546.575	-0.000341797	0.00915527
547.035	-0.697845	-0.018399
547.495	-6.10352e-05	0.00251007
547.975	0.000360107	0.00914612
548.435	-0.698456	-0.0184052
548.895	0.00010376	0.00251495
549.375	0.000247192	0.00914307
549.835	-0.698822	-0.0183929
550.295	0.000280762	0.00252136
550.775	0.000460815	0.00914612
551.235	-0.698853	-0.0184021
551.695	0.000476074	0.0025296
552.175	-0.000714111	0.00914307
552.635	-0.698425	-0.0184021
553.095	0.000378418	0.00253326
553.575	-0.000491333	0.00914307
554.035	-0.698914	-0.018399
554.495	0.000820923	0.00253815
554.975	-0.000570679	0.00914001
555.435	-0.697845	-0.0184113
555.895	-0.000247192	0.00254639
556.375	0.000222778	0.00913391
556.835	-0.698792	-0.018399
557.295	-0.000463867	0.00255493
557.775	-0.00050354	0.00911865
558.235	-0.698151	-0.0184052
558.695	-0.000222778	0.002565
559.175	-0.000689697	0.0091156
559.635	-0.698761	-0.018396
560.095	0.00022583	0.00256317
560.575	0.000344849	0.00910645
561.035	-0.698029	-0.018396
561.495	4.57764e-05	0.00257507
561.975	-0.00055542	0.00910645
562.435	-0.698517	-0.018396
562.895	0.000497437	0.00257355
563.375	-0.000643921	0.00910339
563.835	-0.698669	-0.0184021
564.295	0.000448608	0.00258087
564.775	-0.000164795	0.00909424
565.235	-0.698883	-0.0183899
565.695	0.000827026	0.00258606
566.175	0.000271606	0.00909424
566.635	-0.697632	-0.018399
567.095	-0.000131226	0.00259949
567.575	-0.000692749	0.00908203
568.035	-0.697693	-0.018396
568.495	0.000830078	0.00259766
568.975	0.000234985	0.00908813
569.435	-0.697937	-0.0184021
569.895	-0.000360107	0.00261292
570.375	4.88281e-05	0.00906982
570.835	-0.698669	-0.018399
571.295	0.000808716	0.002612
571.775	-0.000335693	0.00909729
572.235	-0.698669	-0.0184204
572.695	0.000500488	0.00262146
573.175	-0.000671387	0.00909729
573.635	-0.697662	-0.0184479
574.095	-0.000216675	0.00263031
574.575	-0.000125122	0.00909729
575.035	-0.698059	-0.018454
575.495	0.000753784	0.00263092
575.975	-0.000656128	0.00911255
576.435	-0.698547	-0.0184631
576.895	-3.66211e-05	0.0026474
577.375	0.000619507	0.0091156
577.835	-0.698303	-0.0184814
578.295	0.000930786	0.00264648
578.775	-0.00078125	0.00911865
579.235	-0.697784	-0.0185028
579.695	0.000311279	0.002659
580.175	0.000112915	0.00912781
580.635	-0.697693	-0.0185028
581.095	-7.32422e-05	0.00266693
581.575	-3.05176e-05	0.00913086
582.035	-0.698334	-0.0185181
582.495	0.000552368	0.00266632
582.975	0.000289917	0.00913391
583.435	-0.698883	-0.0185089
583.895	-0.000424194	0.00268188
584.375	-0.000531006	0.00912476
584.835	-0.698334	-0.0185333
585.295	2.74658e-05	0.00268829
585.775	0.000497437	0.00914001
586.235	-0.698944	-0.0185425
586.695	-0.000219727	0.00269318
587.175	0.000497437	0.00913086
587.635	-0.697662	-0.0185577
588.095	0.00010376	0.00269653
588.575	0.000341797	0.00913696
589.035	-0.697937	-0.0185699
589.495	3.05176e-05	0.00270721
589.975	-0.000402832	0.00913696
590.435	-0.698761	-0.0185699
590.895	0.000604248	0.00270996
591.375	-0.000668335	0.00914917
591.835	-0.698486	-0.0185608
592.295	0.000311279	0.00271606
592.775	-0.00057373	0.00914917
593.235	-0.69873	-0.0185699
593.695	-0.000296021	0.00272675
594.175	-0.000241089	0.00914917
594.635	-0.69873	-0.018573
595.095	-0.000274658	0.00273376
595.575	-0.000515747	0.00914612
596.035	-0.698669	-0.0185822
596.495	0.000674438	0.00273407
596.975	0.000125122	0.00913391
597.435	-0.698822	-0.0185822
597.895	0.000469971	0.00273865
598.375	-0.000637817	0.00914307
598.835	-0.698486	-0.0185944
599.295	-3.05176e-05	0.00275452
599.775	0.000262451	0.00913391
600.235	-0.697723	-0.0186005
600.695	-0.000238037	0.00275482
601.175	0.000552368	0.00914001
601.635	-0.6987	-0.0185913
602.095	-0.000454712	0.00276672
602.575	-0.000671387	0.00913696
603.035	-0.69812	-0.0186035
603.495	-0.000283813	0.00277344
603.975	-0.000726318	0.00914307
604.435	-0.698639	-0.0186066
604.895	0.000479126	0.00277496
605.375	8.23975e-05	0.00914307
605.835	-0.698059	-0.0186127
606.295	-0.000411987	0.00278564
606.775	-5.79834e-05	0.0091217
607.235	-0.698975	-0.0186035
607.695	3.05176e-06	0.00279053
608.175	0.000521851	0.00912781
608.635	-0.698944	-0.0186035
609.095	-0.00038147	0.00279907
609.575	-0.000198364	0.00913086
610.035	-0.69754	-0.0186188
610.495	-0.000338745	0.00280304
610.975	-0.000634766	0.00913696
611.435	-0.698761	-0.0186127
611.895	-0.000421143	0.00281067
612.375	0.000241089	0.00913391
612.835	-0.698029	-0.0186218
613.295	0.00083313	0.00280884
613.775	-0.000537109	0.0091217
614.235	-0.697571	-0.0186249
614.695	9.15527e-06	0.00281952
615.175	-0.000491333	0.00913696
615.635	-0.698914	-0.0186157
616.095	0.000360107	0.00282562
616.575	-0.000140381	0.0091217
617.035	-0.698853	-0.0186249
617.495	-4.57764e-05	0.0028302
617.975	0.000558472	0.00912476
618.435	-0.698334	-0.018631
618.895	6.10352e-06	0.00283936
619.375	-0.000128174	0.00912781
619.835	-0.698242	-0.018634
620.295	0.000567627	0.00284302
620.775	0.000143433	0.0091156
621.235	-0.698761	-0.0186249
621.695	-0.000332642	0.00285461
622.175	-6.10352e-05	0.00913086
622.635	-0.697998	-0.018634
623.095	9.15527e-06	0.00285217
623.575	-0.000646973	0.00911865
624.035	-0.698029	-0.0186432
624.495	-0.000491333	0.0028653
624.975	-0.000616455	0.0091217
625.435	-0.698273	-0.018631
625.895	-0.000125122	0.00287292
626.375	-0.0003479	0.00910339
626.835	-0.698792	-0.018631
627.295	0.000860596	0.00286835
627.775	-0.000500488	0.00911255
628.235	-0.69873	-0.0186371
628.695	0.000219727	0.00287659
629.175	7.62939e-05	0.0091156
629.635	-0.698547	-0.0186401
630.095	-0.000234985	0.0028894
630.575	0.000396729	0.00910034
631.035	-0.698944	-0.0186401
631.495	-0.000439453	0.00289459
631.975	-0.00067749	0.0091095
632.435	-0.697937	-0.0186523
632.895	0.000540161	0.00289185
633.375	0.00043335	0.00910034
633.835	-0.697815	-0.0186493
634.295	-0.000152588	0.00290497
634.775	-0.000723267	0.0091095
635.235	-0.698212	-0.0186493
635.695	0.000561523	0.00290375
636.175	-0.00043335	0.00909729
636.635	-0.698456	-0.0186493
637.095	-0.000363159	0.00291595
637.575	-0.000634766	0.0091095
638.035	-0.69809	-0.0186554
638.495	-0.000354004	0.00292206
638.975	0.000244141	0.00910034
639.435	-0.698914	-0.0186615
639.895	0.000283813	0.00292419
640.375	0.000485229	0.00909729
640.835	-0.697754	-0.0186768
641.295	0.000842285	0.00292542
641.775	-0.000759888	0.00910034
642.235	-0.698486	-0.0186676
642.695	-0.000421143	0.00293945
643.175	-9.15527e-05	0.00910645
643.635	-0.698303	-0.0186676
644.095	0.000338745	0.00293854
644.575	-0.00032959	0.00908508
645.035	-0.698486	-0.0186768
645.495	0.000799561	0.0029425
645.975	-0.000216675	0.00908508
646.435	-0.697601	-0.0186798
646.895	0.000869751	0.00294739
647.375	0.000152588	0.00909729
647.835	-0.697815	-0.0186737
648.295	-0.000515747	0.00295868
648.775	-0.00055542	0.00909729
649.235	-0.697693	-0.0186798
649.695	0.000930786	0.00295959
650.175	-0.000585937	0.00909119
650.635	-0.698822	-0.0186798
651.095	0.000933838	0.00296387
651.575	-0.000384521	0.00909424
652.035	-0.697815	-0.018689
652.495	-7.93457e-05	0.00297302
652.975	-0.000756836	0.00908508
653.435	-0.698181	-0.018692
653.895	0.000228882	0.00297913
654.375	-0.000653076	0.00908813
654.835	-0.698944	-0.0186768
655.295	0.00065918	0.00297821
655.775	-0.000534058	0.00908813
656.235	-0.698578	-0.0186798
656.695	0.000759888	0.0029837
657.175	-0.000570679	0.00907593
657.635	-0.698853	-0.0186768
658.095	0.000747681	0.00298889
658.575	-0.000723267	0.00907593
659.035	-0.697662	-0.0186829
659.495	0.000765991	0.00299438
659.975	0.00027771	0.00907288
660.435	-0.698944	-0.0186829
660.895	0.00020752	0.0030014
661.375	0.00050354	0.00906982
661.835	-0.697662	-0.018689
662.295	0.000665283	0.00300446
662.775	0.000531006	0.00906982
663.235	-0.698364	-0.018689
663.695	0.000402832	0.00301147
664.175	0.000448608	0.00905762
664.635	-0.698914	-0.0186951
665.095	3.05176e-06	0.00302002
665.575	-0.000421143	0.00905762
666.035	-0.697693	-0.0187012
666.495	-0.000292969	0.00302979
666.975	-0.000732422	0.00906982
667.435	-0.697601	-0.0187012
667.895	0.00065918	0.00302704
668.375	0.000469971	0.00905762
668.835	-0.698822	-0.0187012
669.295	0.000708008	0.00302948
669.776	-0.000708008	0.00905762
670.236	-0.6987	-0.018689
670.696	-0.00043335	0.0030426
671.176	0.000537109	0.00906067
671.636	-0.697968	-0.018692
672.096	0.000790405	0.00303864
672.576	0.000491333	0.00905457
673.036	-0.698242	-0.0186981
673.496	-0.000454712	0.00305115
673.976	-0.00085144	0.00905151
674.436	-0.698486	-0.0186981
674.896	-0.00038147	0.00305756
675.376	0.000561523	0.00904541
675.836	-0.698883	-0.0186951
676.296	0.000311279	0.0030603
676.776	0.000479126	0.00904236
677.236	-0.697662	-0.0187042
677.696	0.000579834	0.00306091
678.176	-0.000274658	0.00903625
678.636	-0.698029	-0.0187012
679.096	-8.23975e-05	0.00306976
679.576	-0.000741577	0.00903931
680.036	-0.697662	-0.0187103
680.496	0.000765991	0.00306854
680.976	0.000241089	0.00903625
681.436	-0.698822	-0.0186951
681.896	0.000720215	0.00307159
682.376	0.000466919	0.00903015
682.836	-0.698608	-0.0187042
683.296	0.000204468	0.00307831
683.776	-0.000369263	0.0090271
684.236	-0.698883	-0.0186951
684.696	-0.000393677	0.00308716
685.176	-0.00043335	0.00903015
685.636	-0.698486	-0.0187103
686.096	-0.000338745	0.00309387
686.576	-0.000112915	0.00903015
687.036	-0.697754	-0.0187042
687.496	-0.00043335	0.00309753
687.976	-0.000692749	0.0090271
688.436	-0.698761	-0.0186981
688.896	-0.000192261	0.00310028
689.376	-0.000631714	0.00901489
689.836	-0.697632	-0.0187073
690.296	0.000405884	0.00309998
690.776	-3.66211e-05	0.00900269
691.236	-0.697693	-0.0187073
691.696	0.000817871	0.00310364
692.176	0.000299072	0.00900574
692.636	-0.69812	-0.0187012
693.096	0.000863647	0.00310852
693.576	-0.000448608	0.009021
694.036	-0.698456	-0.0187103
694.496	-0.000317383	0.00312225
694.976	0.000408936	0.00900269
695.436	-0.698639	-0.0187073
695.896	0.000765991	0.00311768
696.376	0.000479126	0.00900269
696.836	-0.698914	-0.0187073
697.296	-0.000189209	0.00312958
697.776	-0.000708008	0.00900574
698.236	-0.698578	-0.0187134
698.696	0.000875854	0.00312714
699.176	-0.000866699	0.00899963
699.636	-0.698029	-0.0187103
700.096	0.000857544	0.00313293
700.576	0.000457764	0.00899963
701.036	-0.697693	-0.0187225
701.496	0.000408936	0.00314209
701.976	-0.000756836	0.00900269
702.436	-0.698639	-0.0187225
702.896	0.00055542	0.00314606
703.376	0.000366211	0.00900269
703.836	-0.698883	-0.0187195
704.296	-0.000366211	0.00314911
704.776	-0.000613403	0.00900269
705.236	-0.697784	-0.0187286
705.696	0.000823975	0.00314972
706.176	-0.000558472	0.00899963
706.636	-0.698792	-0.0187164
707.096	-0.000454712	0.00316132
707.576	-0.000363159	0.00898132
708.036	-0.698914	-0.0187134
708.496	-0.000292969	0.00316376
708.976	-2.44141e-05	0.00899048
709.436	-0.697815	-0.0187286
709.896	0.000634766	0.00316284
710.376	-0.000134277	0.00897827
710.836	-0.69809	-0.0187195
711.296	-0.000143433	0.00317505
711.776	-0.000741577	0.008984375
712.236	-0.697968	-0.0187286
712.696	0.000808716	0.00317108
713.176	0.000338745	0.00897827
713.636	-0.698395	-0.0187195
714.096	3.05176e-06	0.00317932
714.576	-0.000701904	0.00897522
715.036	-0.698669	-0.0187195
715.496	0.000430298	0.00318451
715.976	0.000524902	0.00896912
716.436	-0.698883	-0.0187225
716.896	0.000241089	0.00318573
717.376	-0.000704956	0.00896606
717.836	-0.698669	-0.0187317
718.296	0.000140381	0.0031955
718.776	0.000100708	0.00896606
719.236	-0.697632	-0.0187256
719.696	0.000750732	0.0031955
720.176	0.000384521	0.00895996
720.636	-0.698761	-0.0187195
721.096	-0.000335693	0.00320374
721.576	-0.000686646	0.00896606
722.036	-0.697968	-0.0187317
722.496	-0.000186157	0.00320862
722.976	0.000509644	0.00895996
723.436	-0.697845	-0.0187195
723.896	0.000747681	0.00320557
724.376	-0.000717163	0.00895996
724.836	-0.698242	-0.0187286
725.296	-0.00032959	0.00321716
725.776	-0.000244141	0.00896301
726.236	-0.698669	-0.0187225
726.696	0.000280762	0.00321655
727.176	-0.000631714	0.00896301
727.636	-0.697754	-0.0187286
728.096	0.000778198	0.0032193
728.576	-0.000265503	0.0089447
729.036	-0.698669	-0.0187164
729.496	-0.000250244	0.0032312
729.976	0.000369263	0.00895691
730.436	-0.697632	-0.0187225
730.896	0.000158691	0.00322693
731.376	-0.000769043	0.0089447
731.836	-0.698242	-0.0187286
732.296	0.00065918	0.00323029
732.776	0.000186157	0.00893555
733.236	-0.698822	-0.0187225
733.696	0.000714111	0.00324097
734.176	-3.66211e-05	0.00892944
734.636	-0.697632	-0.0187225
735.096	0.000442505	0.00324738
735.576	0.000216675	0.00892334
736.036	-0.697876	-0.0187225
736.496	-0.000231934	0.00324768
736.976	0.000442505	0.0089325
737.436	-0.69873	-0.0187103
737.896	0.000805664	0.0032486
738.376	-0.000759888	0.0089325
738.836	-0.698181	-0.0187195
739.296	-0.000161743	0.0032605
739.776	0.000326538	0.0089325
740.236	-0.698273	-0.0187195
740.696	-0.000265503	0.00326324
741.176	0.000158691	0.00892334
741.636	-0.698334	-0.0187347
742.096	0.000759888	0.00326202
742.576	-0.000552368	0.0089325
743.036	-0.697662	-0.0187286
743.496	-0.000424194	0.00327423
743.976	0.000454712	0.00892029
744.436	-0.698853	-0.0187195
744.896	0.000750732	0.00326965
745.376	-0.000637817	0.00892639
745.836	-0.698334	-0.0187317
746.296	-0.000448608	0.00328278
746.776	-1.2207e-05	0.00891418
747.236	-0.698151	-0.0187347
747.696	0.000390625	0.00327881
748.176	-0.000140381	0.00892029
748.636	-0.697693	-0.0187317
749.096	-0.000427246	0.00329193
749.576	0.000274658	0.00891113
750.036	-0.69754	-0.0187317
750.496	0.000726318	0.00328705
750.976	0.00032959	0.00891418
751.436	-0.698517	-0.0187317
751.896	0.000506592	0.00329315
752.376	-0.000296021	0.00892334
752.836	-0.698639	-0.0187347
753.296	0.000253296	0.00329895
753.776	-0.000131226	0.00891418
754.236	-0.698669	-0.0187256
754.696	0.000836182	0.00329712
755.176	0.000421143	0.00890808
755.636	-0.698669	-0.0187256
756.096	0.000579834	0.00330322
756.576	0.000265503	0.00890503
757.036	-0.698761	-0.0187225
757.496	0.000650024	0.00330566
757.976	-6.40869e-05	0.00890808
758.436	-0.698914	-0.0187286
758.896	-6.10352e-05	0.00331421
759.376	-0.000424194	0.00889893
759.836	-0.698151	-0.0187347
760.296	-0.000430298	0.00331787
760.776	-0.000622559	0.00890808
761.236	-0.698273	-0.0187317
761.696	-0.000265503	0.00332031
762.176	0.000192261	0.00890198
762.636	-0.699005	-0.0187439
763.096	0.000335693	0.00331879
763.576	-0.00027771	0.00888672
764.036	-0.697968	-0.0187408
764.496	0.000866699	0.00332489
764.976	-0.00020752	0.00888367
765.436	-0.69873	-0.0187408
765.896	0.000732422	0.00332764
766.376	-0.000640869	0.00888977
766.836	-0.698669	-0.0187408
767.296	2.74658e-05	0.00333984
767.776	-0.000671387	0.00888977
768.236	-0.6987	-0.0187439
768.696	-0.000335693	0.00334015
769.176	0.000360107	0.00888977
769.636	-0.697723	-0.0187531
770.096	-0.000244141	0.00334381
770.576	-0.000299072	0.00890198
771.036	-0.698181	-0.0187531
771.496	-0.000253296	0.00335022
771.976	-0.000592041	0.00889587
772.436	-0.698792	-0.0187531
772.896	0.000332642	0.00334961
773.376	-0.000598145	0.00889282
773.836	-0.69812	-0.0187622
774.296	0.000402832	0.00335602
774.776	0.000344849	0.00888672
775.236	-0.697937	-0.0187592
775.696	0.000604248	0.00335907
776.176	0.000369263	0.00888672
776.636	-0.698639	-0.0187653
777.096	0.000457764	0.0033606
777.576	-0.000543213	0.00889282
778.036	-0.697906	-0.0187744
778.496	0.000466919	0.00336731
778.976	0.000335693	0.00888977
779.436	-0.697723	-0.0187683
779.896	-0.000195313	0.00337433
780.376	-0.000491333	0.00889282
780.836	-0.697906	-0.0187775
781.296	0.00065918	0.00337402
781.776	-0.000167847	0.00888672
782.236	-0.697998	-0.0187836
782.696	0.000445557	0.00338013
783.176	0.000192261	0.00888367
783.636	-0.698822	-0.0187805
784.096	-0.000314331	0.00338898
784.576	-9.15527e-05	0.00888672
785.036	-0.69873	-0.0187744
785.496	0.000668335	0.00338654
785.976	0.000256348	0.00887756
786.436	-0.697784	-0.0187836
786.896	0.000341797	0.00339172
787.376	-0.000567627	0.00888062
787.836	-0.698273	-0.0187836
788.296	-0.000268555	0.00340027
788.776	-0.00057373	0.00888672
789.236	-0.6987	-0.0187805
789.696	-0.000137329	0.00340424
790.176	-5.49316e-05	0.00888062
790.636	-0.698395	-0.0187805
791.096	-0.000204468	0.0034082
791.576	0.000390625	0.00888062
792.036	-0.69809	-0.0187805
792.496	0.000387573	0.0034079
792.976	0.000387573	0.00887451
793.436	-0.697968	-0.0187866
793.896	0.000674438	0.00341003
794.376	-0.000366211	0.00886841
794.836	-0.697693	-0.0187866
795.296	0.000280762	0.00341736
795.776	-0.000482178	0.00888062
796.236	-0.698151	-0.0187866
796.696	0.00017395	0.00342438
797.176	0.000463867	0.00887146
797.636	-0.698792	-0.0187805
798.096	0.000836182	0.0034201
798.576	-0.000790405	0.00886841
799.036	-0.698914	-0.0187866
799.496	-0.000415039	0.00342896
799.976	-0.000439453	0.00887756
800.436	-0.698914	-0.0187805
800.896	0.000717163	0.00343231
801.376	0.000170898	0.00885925
801.836	-0.698425	-0.0187927
802.296	-0.000109863	0.00343353
802.776	0.000253296	0.0088623
803.236	-0.698059	-0.0188019
803.696	0.000354004	0.00344208
804.176	0.000201416	0.0088562
804.636	-0.698425	-0.0187988
805.096	0.000762939	0.00343994
805.576	-0.000158691	0.00885925
806.036	-0.698639	-0.0187866
806.496	-0.000317383	0.00344971
806.976	-0.000360107	0.00887146
807.436	-0.698486	-0.0187927
807.896	0.00078125	0.00344757
808.376	0.00017395	0.0088501
808.836	-0.698181	-0.0187897
809.296	0.000268555	0.00345215
809.776	-0.000158691	0.0088623
810.236	-0.697632	-0.0187897
810.696	0.000799561	0.00345398
811.176	0.000479126	0.0088562
811.636	-0.697632	-0.0187897
812.096	0.000442505	0.00345764
812.576	-0.000234985	0.0088501
813.036	-0.698486	-0.0187927
813.496	-0.00039978	0.00346802
813.976	-0.000738525	0.00884094
814.436	-0.698944	-0.0187897
814.896	5.18799e-05	0.00346771
815.376	-0.000643921	0.0088501
815.836	-0.698456	-0.0187927
816.296	0.000665283	0.00346802
816.776	-0.000534058	0.00884399
817.236	-0.697784	-0.0187927
817.696	-1.52588e-05	0.0034787
818.176	0.000494385	0.00884399
818.636	-0.698761	-0.0187836
819.096	-0.000311279	0.00348206
819.576	0.000177002	0.00884399
820.036	-0.697845	-0.0187897
820.496	0.000784302	0.003479
820.976	-0.00065918	0.00884399
821.436	-0.697754	-0.0187897
821.896	0.000604248	0.00348541
822.376	-0.00038147	0.00883484
822.836	-0.697632	-0.0187927
823.296	0.000265503	0.00349121
823.776	0.000494385	0.00883484
824.236	-0.698303	-0.0187897
824.696	-0.000402832	0.00349701
825.176	-0.000686646	0.00883789
825.636	-0.698761	-0.0187927
826.096	0.000466919	0.00349365
826.576	0.000201416	0.00882568
827.036	-0.698029	-0.0187988
827.496	0.00032959	0.00350128
827.976	0.000210571	0.00883179
828.436	-0.697815	-0.0187958
828.896	-0.00020752	0.00350769
829.376	6.10352e-06	0.00883484
829.836	-0.698273	-0.0187836
830.296	0.000445557	0.00350555
830.776	-0.000317383	0.00881653
831.236	-0.698456	-0.0187927
831.696	-0.000244141	0.00351227
832.176	0.000170898	0.00881653
832.636	-0.69812	-0.0187866
833.096	-5.49316e-05	0.003515625
833.576	-0.000454712	0.00882568
834.036	-0.697693	-0.0187958
834.496	0.00072937	0.00351257
834.976	0.000430298	0.00881348
835.436	-0.698883	-0.0187866
835.896	-9.15527e-06	0.00352386
836.376	-0.000750732	0.00881653
836.836	-0.698883	-0.0187836
837.296	0.000796509	0.00351776
837.776	-0.000689697	0.00881653
838.236	-0.697693	-0.0187988
838.696	-0.00010376	0.00352386
839.176	-0.000524902	0.00881042
839.636	-0.698273	-0.0187836
840.096	0.000372314	0.00352478
840.576	-0.000286865	0.00880127
841.036	-0.698822	-0.0187988
841.496	0.000860596	0.00352936
841.976	0.000427246	0.00880432
842.436	-0.698517	-0.0187805
842.896	-0.000259399	0.00354065
843.376	-0.000775146	0.00880432
843.836	-0.697632	-0.0187897
844.296	-0.000512695	0.00354126
844.776	-0.000360107	0.00879517
845.236	-0.698486	-0.0187836
845.696	0.000680542	0.00353516
846.176	-0.00017395	0.00880127
846.636	-0.697662	-0.0187927
847.096	-6.71387e-05	0.00354828
847.576	-0.000509644	0.00879517
848.036	-0.698883	-0.0187805
848.496	0.000817871	0.00354156
848.976	0.000506592	0.00879517
849.436	-0.698151	-0.0187836
849.896	-9.76562e-05	0.0035495
850.376	-0.000561523	0.00879211
850.836	-0.697815	-0.018808
851.296	-0.00032959	0.00355621
851.776	0.00045166	0.00879517
852.236	-0.698944	-0.0187958
852.696	0.000527954	0.0035495
853.176	-0.000567627	0.00878906
853.636	-0.698059	-0.0188019
854.096	-0.000448608	0.00355927
854.576	-0.000546265	0.00878296
855.036	-0.697662	-0.018811
855.496	0.000747681	0.00355591
855.976	3.05176e-05	0.00879211
856.436	-0.698944	-0.0187988
856.896	0.000332642	0.00355865
857.376	0.000427246	0.00877991
857.836	-0.697662	-0.018808
858.296	0.000198364	0.00356628
858.776	-0.00055542	0.00878906
859.236	-0.698029	-0.018808
859.696	0.000201416	0.00357086
860.176	-0.000756836	0.00878296
860.636	-0.698822	-0.0187958
861.096	-0.000296021	0.00357635
861.576	-0.000723267	0.00877991
862.036	-0.697937	-0.018808
862.496	3.35693e-05	0.00357819
862.976	0.000500488	0.00877075
863.436	-0.69754	-0.0188019
863.896	0.000854492	0.0035733
864.376	0.000344849	0.0087677
864.836	-0.698975	-0.018811
865.296	3.05176e-06	0.0035791
865.776	-0.000445557	0.00877991
866.236	-0.698792	-0.0188141
866.696	0.000296021	0.00358002
867.176	-0.000668335	0.00878296
867.636	-0.698669	-0.0188202
868.096	-0.000421143	0.00358917
868.576	8.54492e-05	0.00877991
869.036	-0.698486	-0.018808
869.496	0.000131226	0.00359039
869.976	0.000534058	0.0087616
870.436	-0.697784	-0.0188202
870.896	0.000317383	0.00358826
871.376	-0.000747681	0.00877686
871.836	-0.69873	-0.0188141
872.296	-0.000311279	0.00359863
872.776	0.000537109	0.00876465
873.236	-0.6987	-0.0188354
873.696	-0.000241089	0.00359863
874.176	0.000241089	0.00876465
874.636	-0.698853	-0.0188324
875.096	0.000793457	0.00359497
875.576	0.000497437	0.00877686
876.036	-0.697906	-0.0188385
876.496	-0.000268555	0.00360657
876.976	-3.05176e-06	0.0087677
877.436	-0.697998	-0.0188293
877.896	-0.000482178	0.00361023
878.376	-0.000695801	0.0087677
878.836	-0.698273	-0.0188263
879.296	0.000131226	0.00360596
879.776	-0.000302124	0.00875549
880.236	-0.698059	-0.0188354
880.696	0.000714111	0.00360657
881.176	0.00027771	0.00875854
881.596	4.27246e-05	0.00137787