File: Edgar/20240607/20240607/electrodeposition_pulsed_potential_20240607_D/pulses_1000_to_2000.txt
Time (s)	WE(1).Potential (V)	WE(1).Current (A)
890.124	-0.697571	-0.0202148
890.584	0.000796509	0.00302155
891.064	-0.000646973	0.00845642
891.524	-0.698914	-0.0189606
891.984	0.000692749	0.0034549
892.464	0.000454712	0.0085968
892.924	-0.698975	-0.0188965
893.384	-0.000457764	0.00352325
893.864	-0.000686646	0.00864868
894.324	-0.69873	-0.0188873
894.784	0.000613403	0.00354797
895.264	-2.44141e-05	0.00866394
895.724	-0.697601	-0.0188629
896.184	0.000402832	0.00356781
896.664	-0.000360107	0.0086853
897.124	-0.697754	-0.0188568
897.584	-0.000280762	0.00358398
898.064	0.000189209	0.00867615
898.524	-0.698883	-0.0188416
898.984	-0.000357056	0.00359741
899.464	-0.000671387	0.00869141
899.924	-0.698517	-0.0188385
900.384	-0.00038147	0.00360687
900.864	-0.000238037	0.00869141
901.324	-0.69873	-0.0188477
901.784	0.000497437	0.00361084
902.264	-0.000500488	0.00869446
902.724	-0.698517	-0.0188446
903.184	-3.05176e-05	0.00361969
903.664	-0.00067749	0.00870361
904.124	-0.698029	-0.0188385
904.584	0.000259399	0.0036264
905.064	-0.000180054	0.00870667
905.524	-0.697937	-0.0188477
905.984	0	0.00363129
906.464	7.93457e-05	0.00870361
906.924	-0.697937	-0.0188293
907.384	0.000534058	0.00363403
907.864	0.000335693	0.00870667
908.324	-0.698273	-0.0188232
908.784	-0.00017395	0.0036441
909.264	-0.000469971	0.00870361
909.724	-0.698303	-0.0188385
910.184	0.00055542	0.00364532
910.664	0.00038147	0.00871277
911.124	-0.697876	-0.0188263
911.584	0.000366211	0.00365265
912.064	2.44141e-05	0.00871582
912.524	-0.698029	-0.0188263
912.984	0.000479126	0.00365692
913.464	-0.000125122	0.00870972
913.924	-0.697845	-0.0188293
914.384	0.000137329	0.00366028
914.864	0.000552368	0.00870667
915.324	-0.697968	-0.0188293
915.784	0.000350952	0.00366211
916.264	0.0006073	0.00871277
916.724	-0.698761	-0.0188141
917.184	-0.000521851	0.0036734
917.664	-0.00055542	0.00871277
918.124	-0.698486	-0.0188232
918.584	-0.000454712	0.00367981
919.064	0.000384521	0.00870361
919.524	-0.698914	-0.0188263
919.984	0.000735474	0.00367493
920.464	-9.15527e-06	0.00871887
920.924	-0.697662	-0.0188263
921.384	0.000698853	0.00368408
921.864	-0.000576782	0.00871887
922.324	-0.698486	-0.0188171
922.784	0.000888062	0.00368439
923.264	-0.00062561	0.00871582
923.724	-0.698792	-0.0188141
924.184	0.000198364	0.00368561
924.664	0.000332642	0.00871582
925.124	-0.698212	-0.0188202
925.584	0.000231934	0.00369629
926.064	-0.000720215	0.00870667
926.524	-0.69873	-0.0188171
926.984	-0.000436401	0.00370087
927.464	0.000247192	0.00869751
927.924	-0.697754	-0.0188263
928.384	-0.000457764	0.00370361
928.864	0.00038147	0.00870056
929.324	-0.698334	-0.0188202
929.784	-5.18799e-05	0.00370575
930.264	-0.000558472	0.00869751
930.724	-0.698822	-0.018808
931.184	0.000137329	0.00370819
931.664	-0.000115967	0.00869751
932.124	-0.698334	-0.0188232
932.584	-0.000372314	0.00371552
933.064	0.000140381	0.00869141
933.524	-0.697632	-0.0188202
933.984	-0.000390625	0.00371582
934.464	0.000509644	0.00869751
934.924	-0.698029	-0.018811
935.384	0.000811768	0.00371155
935.864	-0.000695801	0.00870361
936.324	-0.698761	-0.0188171
936.784	-0.000299072	0.00372375
937.264	0.000476074	0.00869446
937.724	-0.698883	-0.0188202
938.184	-0.000350952	0.0037262
938.664	0.000317383	0.00869751
939.124	-0.69873	-0.018811
939.584	-0.000430298	0.00372772
940.064	-0.000354004	0.00869751
940.524	-0.697906	-0.0188202
940.984	0.00083313	0.00372314
941.464	0.000247192	0.00868835
941.924	-0.698944	-0.018808
942.384	0.000183105	0.00372894
942.864	-0.000515747	0.0086853
943.324	-0.697815	-0.0188049
943.784	-6.40869e-05	0.00373322
944.264	-0.000320435	0.0086853
944.724	-0.697449	-0.018808
945.184	0.000198364	0.00373444
945.664	0.000170898	0.0086792
946.124	-0.697601	-0.018811
946.584	0.00072937	0.00373444
947.064	-0.000167847	0.00869141
947.524	-0.697754	-0.0188171
947.984	-0.000164795	0.00374451
948.464	-0.000442505	0.00869446
948.924	-0.698853	-0.0188019
949.384	-0.000183105	0.00374756
949.864	-0.00071106	0.0086853
950.324	-0.6987	-0.0188171
950.784	-0.000335693	0.00374847
951.264	-0.000595093	0.0086792
951.724	-0.698792	-0.0188049
952.184	-0.000384521	0.00375244
952.664	-0.000289917	0.0086731
953.124	-0.698944	-0.0187988
953.584	0.000387573	0.00374969
954.064	0.000100708	0.0086731
954.524	-0.699066	-0.018808
954.984	0.000454712	0.00375092
955.464	0.000134277	0.00866699
955.924	-0.698456	-0.0187988
956.384	0.00045166	0.00375305
956.864	-0.0006073	0.00867615
957.324	-0.697693	-0.018808
957.784	0.000686646	0.00375519
958.264	0.000463867	0.00867004
958.724	-0.698883	-0.0187927
959.184	0.000646973	0.00375763
959.664	0.000238037	0.00866699
960.124	-0.697754	-0.0188049
960.584	-0.000366211	0.00376892
961.064	-0.000408936	0.0086731
961.524	-0.698822	-0.0188049
961.984	-0.000146484	0.0037674
962.464	-0.000723267	0.00866394
962.924	-0.698792	-0.0187988
963.384	0.000152588	0.00376892
963.864	-0.000668335	0.00866089
964.324	-0.698608	-0.0188049
964.784	0.000247192	0.00376892
965.264	-0.000601196	0.00865784
965.724	-0.698883	-0.0188019
966.184	5.18799e-05	0.00377289
966.664	-0.000561523	0.00865479
967.124	-0.698883	-0.0187927
967.584	-0.000427246	0.00378021
968.064	-0.000506592	0.00866394
968.524	-0.6987	-0.0187897
968.984	-0.000234985	0.00378296
969.464	-0.000231934	0.00866089
969.924	-0.697968	-0.0187897
970.384	0.000732422	0.00377808
970.864	2.13623e-05	0.00864563
971.324	-0.698914	-0.0187866
971.784	0.000466919	0.00378387
972.264	-0.00045166	0.00865479
972.724	-0.698303	-0.0187958
973.184	-6.10352e-05	0.00378601
973.664	-0.000772095	0.00864868
974.124	-0.698303	-0.0187958
974.584	0.000292969	0.00378662
975.064	-0.000738525	0.00865479
975.524	-0.697571	-0.0187958
975.984	0.000820923	0.00378784
976.464	-0.000476074	0.00863953
976.924	-0.698822	-0.0187805
977.384	-0.000256348	0.00379456
977.864	0.000512695	0.00863647
978.324	-0.697845	-0.0187927
978.784	0.000656128	0.0037912
979.264	0.000570679	0.00864258
979.724	-0.697662	-0.0187927
980.184	0.000460815	0.00379761
980.664	-0.000326538	0.00862732
981.124	-0.698425	-0.0187927
981.584	-0.000387573	0.00380249
982.064	0.000552368	0.00863953
982.524	-0.698853	-0.0187836
982.984	0.000778198	0.00380005
983.464	-0.000836182	0.00863953
983.924	-0.698242	-0.0187927
984.384	0.000518799	0.00380188
984.864	-0.000790405	0.00863953
985.324	-0.698944	-0.0187866
985.784	-0.000204468	0.00381409
986.264	-0.000692749	0.00863647
986.724	-0.697693	-0.0187958
987.184	-7.62939e-05	0.00381714
987.664	0.000302124	0.00863953
988.124	-0.698517	-0.0187866
988.584	0.000585937	0.00380829
989.064	0.000286865	0.00862427
989.524	-0.698639	-0.0187775
989.984	-0.000268555	0.0038147
990.464	0.000631714	0.00863037
990.924	-0.697998	-0.0187836
991.384	0.000595093	0.00381348
991.864	-0.000341797	0.00861206
992.324	-0.697693	-0.0187897
992.784	-0.00039978	0.00382202
993.264	-0.000857544	0.00862427
993.724	-0.697906	-0.0187866
994.184	-0.00020752	0.00382996
994.664	-0.000836182	0.00862122
995.124	-0.697937	-0.0187866
995.584	0.000717163	0.0038266
996.064	-0.000765991	0.00862122
996.524	-0.6987	-0.0187775
996.984	0.000915527	0.00382629
997.464	0.000415039	0.00861206
997.924	-0.698975	-0.0187775
998.384	0.000350952	0.0038269
998.864	0.000418091	0.00861816
999.324	-0.698944	-0.0187775
999.784	-0.00043335	0.00383789
1000.26	0.000524902	0.00861206
1000.72	-0.698853	-0.0187805
1001.18	-0.000488281	0.00383972
1001.66	-0.00072937	0.00861816
1002.12	-0.698273	-0.0187744
1002.58	-0.000479126	0.00384399
1003.06	0.000100708	0.00861511
1003.52	-0.698181	-0.0187714
1003.98	-0.000357056	0.00384277
1004.46	0.000567627	0.00861206
1004.92	-0.697754	-0.0187805
1005.38	-0.000360107	0.00384888
1005.86	0.000454712	0.00860596
1006.32	-0.697845	-0.0187866
1006.78	0.00050354	0.00384613
1007.26	0.000427246	0.00860596
1007.72	-0.698212	-0.0187866
1008.18	0.000811768	0.00384644
1008.66	0.000366211	0.00860596
1009.12	-0.698883	-0.0187683
1009.58	-0.00038147	0.00385742
1010.06	-0.000616455	0.00861206
1010.52	-0.697632	-0.0187836
1010.98	0.000469971	0.00385437
1011.46	-0.000762939	0.00860596
1011.92	-0.697601	-0.0187836
1012.38	0.00010376	0.00385956
1012.86	-0.000622559	0.00860596
1013.32	-0.697693	-0.0187836
1013.78	0.00072937	0.00385498
1014.26	0.000253296	0.00859375
1014.72	-0.698212	-0.0187866
1015.18	-0.000469971	0.00386505
1015.66	-0.000610352	0.00861206
1016.12	-0.698914	-0.0187775
1016.58	-0.000494385	0.00386749
1017.06	0.000531006	0.00859375
1017.52	-0.698303	-0.0187805
1017.98	0.000762939	0.00386169
1018.46	-0.000219727	0.0085907
1018.92	-0.698212	-0.0187775
1019.38	-0.000256348	0.00387115
1019.86	-0.000592041	0.00860596
1020.32	-0.698486	-0.0187775
1020.78	0.000177002	0.00387054
1021.26	0.000314331	0.0085907
1021.72	-0.698639	-0.0187744
1022.18	0.000482178	0.00387024
1022.66	-0.000204468	0.0085907
1023.12	-0.698914	-0.0187714
1023.58	8.54492e-05	0.00387817
1024.06	0.000439453	0.0085907
1024.52	-0.698944	-0.0187836
1024.98	-0.000314331	0.00388
1025.46	0.000158691	0.0085907
1025.92	-0.698273	-0.0187866
1026.38	0.000372314	0.00387756
1026.86	-0.000570679	0.00859985
1027.32	-0.697876	-0.0187897
1027.78	0.000286865	0.00388428
1028.26	-0.000241089	0.00858459
1028.72	-0.697754	-0.0187866
1029.18	0.00043335	0.00388489
1029.66	-8.23975e-05	0.00858459
1030.12	-0.698975	-0.0187805
1030.58	0.000286865	0.00388916
1031.06	0.000482178	0.00858765
1031.52	-0.698669	-0.0187805
1031.98	-0.000384521	0.00389618
1032.46	0.000167847	0.00859375
1032.92	-0.698486	-0.0187897
1033.38	-0.000335693	0.00389709
1033.86	-0.000198364	0.00859985
1034.32	-0.698639	-0.0188019
1034.78	-0.000262451	0.00390198
1035.26	6.10352e-05	0.00860291
1035.72	-0.698151	-0.0188019
1036.18	-0.000305176	0.00390594
1036.66	0.000314331	0.00860291
1037.12	-0.698822	-0.0188019
1037.58	-0.000286865	0.00390778
1038.06	0.000521851	0.0085968
1038.52	-0.698364	-0.018808
1038.98	-0.000323486	0.0039093
1039.46	0.000448608	0.00859985
1039.92	-0.698669	-0.018808
1040.38	-0.000411987	0.00391052
1040.86	0.0003479	0.0085968
1041.32	-0.697937	-0.0188171
1041.78	-0.000100708	0.00391205
1042.26	0.00017395	0.00859985
1042.72	-0.698029	-0.0188141
1043.18	0.000793457	0.00391022
1043.66	-0.000546265	0.00860291
1044.12	-0.698395	-0.0188232
1044.58	-0.000408936	0.0039212
1045.06	0.000506592	0.00859375
1045.52	-0.697906	-0.0188171
1045.98	4.88281e-05	0.00391754
1046.46	0.000164795	0.00858765
1046.92	-0.698029	-0.0188171
1047.38	0.000601196	0.00391602
1047.86	3.05176e-05	0.00859985
1048.32	-0.6987	-0.0188141
1048.78	0.000808716	0.00391876
1049.26	0.000390625	0.0085907
1049.72	-0.698181	-0.0188293
1050.18	-0.000436401	0.00393005
1050.66	2.13623e-05	0.0085907
1051.12	-0.697723	-0.0188324
1051.58	0.000820923	0.00392426
1052.06	2.44141e-05	0.00858765
1052.52	-0.697998	-0.0188293
1052.98	-0.000332642	0.00393524
1053.46	-0.000244141	0.0085907
1053.92	-0.697723	-0.0188324
1054.38	-0.00039978	0.00393768
1054.86	0.000183105	0.00859985
1055.32	-0.698242	-0.0188385
1055.78	0.000665283	0.00393097
1056.26	-9.76562e-05	0.00858459
1056.72	-0.697784	-0.0188293
1057.18	0.00071106	0.00393555
1057.66	0.000311279	0.00859375
1058.12	-0.698273	-0.0188354
1058.58	-0.000125122	0.00394073
1059.06	-0.00032959	0.00858154
1059.52	-0.698822	-0.0188324
1059.98	0.000479126	0.00394348
1060.46	-0.000323486	0.0085968
1060.92	-0.698792	-0.0188232
1061.38	0.000527954	0.00393829
1061.86	-0.000674438	0.00857849
1062.32	-0.697723	-0.0188354
1062.78	-0.000460815	0.00394745
1063.26	0.000518799	0.00857849
1063.72	-0.698853	-0.0188324
1064.18	7.32422e-05	0.00395233
1064.66	-0.000631714	0.0085907
1065.12	-0.697601	-0.0188385
1065.58	-0.000152588	0.00394958
1066.06	-0.000595093	0.00857849
1066.52	-0.698761	-0.0188324
1066.98	0.000613403	0.00394714
1067.46	0.000396729	0.00858459
1067.92	-0.697876	-0.0188324
1068.38	0.000860596	0.00395325
1068.86	0.000320435	0.00858154
1069.32	-0.698059	-0.0188446
1069.78	-0.000299072	0.00395599
1070.26	-0.000720215	0.00857239
1070.72	-0.6987	-0.0188446
1071.18	0.000894165	0.00395721
1071.66	0.000622559	0.00858459
1072.12	-0.698456	-0.0188324
1072.58	0.000708008	0.00395752
1073.06	0.000631714	0.00858459
1073.52	-0.698395	-0.0188416
1073.98	-0.000524902	0.00396667
1074.46	-0.000167847	0.0085907
1074.92	-0.698303	-0.0188477
1075.38	0.000848389	0.0039621
1075.86	0.000158691	0.00857544
1076.32	-0.698792	-0.0188385
1076.78	-0.000296021	0.00396606
1077.26	-0.000253296	0.00858765
1077.72	-0.697632	-0.0188477
1078.18	-0.000344849	0.00397003
1078.66	-0.00078125	0.00857544
1079.12	-0.69809	-0.0188416
1079.58	-0.00020752	0.00397888
1080.06	-0.000567627	0.00857239
1080.52	-0.698181	-0.0188477
1080.98	-0.000418091	0.00397766
1081.46	0.000415039	0.00857544
1081.92	-0.697693	-0.0188416
1082.38	-0.000323486	0.00398224
1082.86	0.000335693	0.00856628
1083.32	-0.698914	-0.0188416
1083.78	0.000631714	0.0039743
1084.26	-0.000622559	0.00856934
1084.72	-0.698181	-0.0188354
1085.18	-0.000354004	0.003984375
1085.66	-0.000305176	0.00856934
1086.12	-0.698547	-0.0188446
1086.58	0.00071106	0.0039801
1087.06	-0.000500488	0.00856323
1087.52	-0.698639	-0.0188416
1087.98	0.000341797	0.00398224
1088.46	0.000531006	0.00856628
1088.92	-0.698059	-0.0188446
1089.38	-7.01904e-05	0.00398621
1089.86	0.00038147	0.00855408
1090.32	-0.698914	-0.0188324
1090.78	9.46045e-05	0.00399048
1091.26	-0.000628662	0.00855713
1091.72	-0.697845	-0.0188416
1092.18	-0.000460815	0.00399414
1092.66	0.000512695	0.00855408
1093.12	-0.697662	-0.0188354
1093.58	-0.000482178	0.00399567
1094.06	0.000112915	0.00855408
1094.52	-0.698181	-0.0188263
1094.98	0.00012207	0.00399292
1095.46	-0.000576782	0.00856018
1095.92	-0.698364	-0.0188232
1096.38	0.000137329	0.00399353
1096.86	0.000350952	0.00854187
1097.32	-0.697662	-0.0188293
1097.78	-0.000436401	0.00400116
1098.26	-0.000738525	0.00855103
1098.72	-0.697968	-0.0188293
1099.18	-0.000338745	0.00400238
1099.66	0.000115967	0.00854797
1100.12	-0.698608	-0.0188232
1100.58	0.000177002	0.00400085
1101.06	0.000259399	0.00854492
1101.52	-0.698547	-0.0188171
1101.98	-0.000457764	0.00400513
1102.46	-0.000476074	0.00852966
1102.92	-0.69812	-0.018811
1103.38	0.000534058	0.00400024
1103.86	5.49316e-05	0.00854492
1104.32	-0.698547	-0.0188171
1104.78	-0.000280762	0.00400726
1105.26	-0.000170898	0.00853271
1105.72	-0.698669	-0.018808
1106.18	-4.27246e-05	0.00400635
1106.66	-0.000741577	0.00852966
1107.12	-0.697723	-0.0188293
1107.58	0.000808716	0.00400482
1108.06	0.000494385	0.00852966
1108.52	-0.698669	-0.0188049
1108.98	-0.00017395	0.00401337
1109.46	-0.00062561	0.00853577
1109.92	-0.698029	-0.0188141
1110.38	0.000790405	0.00400787
1110.86	0.00050354	0.00852356
1111.32	-0.698669	-0.018811
1111.78	0.000350952	0.00401062
1112.26	-0.000646973	0.00852356
1112.72	-0.698792	-0.0187958
1113.18	-0.0003479	0.00402069
1113.66	7.62939e-05	0.00852966
1114.12	-0.698364	-0.0188049
1114.58	-0.000445557	0.00402283
1115.06	0.00055542	0.00852051
1115.52	-0.697632	-0.018811
1115.98	-0.000100708	0.00402222
1116.46	0.000430298	0.0085083
1116.92	-0.697906	-0.0188171
1117.38	0.000665283	0.00401917
1117.86	0.000457764	0.0085144
1118.32	-0.698761	-0.018811
1118.78	0.000717163	0.00402008
1119.26	-7.32422e-05	0.0085144
1119.72	-0.698853	-0.018811
1120.18	0.000100708	0.00402405
1120.66	0.000344849	0.00851746
1121.12	-0.698486	-0.018811
1121.58	0.000640869	0.00402344
1122.06	-2.13623e-05	0.00852051
1122.52	-0.698853	-0.018808
1122.98	-0.000411987	0.0040332
1123.46	0.000234985	0.00851135
1123.92	-0.697662	-0.0188141
1124.38	0.000598145	0.00402649
1124.86	-0.00017395	0.00852356
1125.32	-0.697876	-0.0188293
1125.78	-0.000436401	0.00403595
1126.26	0.000424194	0.00851135
1126.72	-0.698639	-0.0188263
1127.18	-6.71387e-05	0.00403809
1127.66	-0.000689697	0.00851746
1128.12	-0.697571	-0.0188232
1128.58	-0.000460815	0.00404083
1129.06	-0.000714111	0.00852356
1129.52	-0.69754	-0.0188232
1129.98	-0.00022583	0.00404053
1130.46	-0.000704956	0.00851746
1130.92	-0.697968	-0.0188354
1131.38	-0.000454712	0.00404541
1131.86	-3.96729e-05	0.00852051
1132.32	-0.698975	-0.0188263
1132.78	0.000491333	0.00404266
1133.26	-0.000170898	0.00849915
1133.72	-0.69754	-0.0188202
1134.18	-0.000466919	0.00404755
1134.66	0.000482178	0.0085022
1135.12	-0.698242	-0.018808
1135.58	0.000720215	0.00404175
1136.06	-0.000762939	0.00850525
1136.52	-0.698578	-0.0188202
1136.98	-0.000320435	0.00405182
1137.46	0.000262451	0.00850525
1137.92	-0.697601	-0.0188171
1138.38	0.000350952	0.00404633
1138.86	-0.000646973	0.0085022
1139.32	-0.697632	-0.0188141
1139.78	0.000784302	0.00404694
1140.26	-0.000653076	0.00849915
1140.72	-0.697479	-0.0188202
1141.18	0.000775146	0.00404816
1141.66	-0.000372314	0.00849304
1142.12	-0.69754	-0.0188171
1142.58	0.000671387	0.00405212
1143.06	0.000305176	0.00849304
1143.52	-0.698334	-0.018811
1143.98	-0.000448608	0.00405487
1144.46	-0.000643921	0.00849915
1144.92	-0.69809	-0.0188202
1145.38	0.000253296	0.00404877
1145.86	-0.000665283	0.00848389
1146.32	-0.698151	-0.0188293
1146.78	0.000442505	0.00404785
1147.26	-0.000720215	0.00848083
1147.72	-0.697937	-0.0188293
1148.18	0.000500488	0.00405029
1148.66	0.000546265	0.00847778
1149.12	-0.697723	-0.0188141
1149.58	-0.000296021	0.00405396
1150.06	-0.000613403	0.00848389
1150.52	-0.698547	-0.0188232
1150.98	0.00072937	0.00405151
1151.46	-3.96729e-05	0.00847473
1151.92	-0.698334	-0.018811
1152.38	-0.000247192	0.00406067
1152.86	0.00010376	0.00846863
1153.32	-0.698212	-0.018811
1153.78	-1.83105e-05	0.00405518
1154.26	0.000259399	0.00847473
1154.72	-0.698639	-0.0188232
1155.18	0.000421143	0.00405945
1155.66	0.000476074	0.00846558
1156.12	-0.698486	-0.0188049
1156.58	0.000445557	0.00405701
1157.06	-0.000759888	0.00846863
1157.52	-0.697601	-0.0188141
1157.98	-0.000415039	0.00406433
1158.46	-0.000610352	0.00846863
1158.92	-0.697449	-0.018811
1159.38	0.000784302	0.00405975
1159.86	0.000469971	0.00846558
1160.32	-0.698578	-0.018811
1160.78	-0.000296021	0.00407013
1161.26	-0.000689697	0.00847473
1161.72	-0.698273	-0.0188019
1162.18	0.000769043	0.00406494
1162.66	0.000354004	0.00846252
1163.12	-0.697571	-0.018808
1163.58	0.000671387	0.00406525
1164.06	0.000546265	0.00846252
1164.52	-0.698151	-0.0188171
1164.98	-0.000466919	0.00407623
1165.46	-0.000671387	0.00845642
1165.92	-0.697937	-0.018811
1166.38	-0.000402832	0.00407898
1166.86	-0.000567627	0.00845337
1167.32	-0.698334	-0.018808
1167.78	-0.000354004	0.00407928
1168.26	-0.000653076	0.00845642
1168.72	-0.697906	-0.0188049
1169.18	-0.000296021	0.00408264
1169.66	-0.000650024	0.00846252
1170.12	-0.698578	-0.018808
1170.58	0.000732422	0.00407837
1171.06	0.000488281	0.00845032
1171.52	-0.699036	-0.0187988
1171.98	0.000439453	0.00407867
1172.46	0.000476074	0.00844421
1172.92	-0.697845	-0.0187927
1173.38	-0.000491333	0.00408752
1173.86	-0.00043335	0.00844421
1174.32	-0.698914	-0.0187958
1174.78	0.000183105	0.00408508
1175.26	0.000546265	0.00844727
1175.72	-0.698425	-0.0187988
1176.18	0.000613403	0.00408783
1176.66	-3.35693e-05	0.00845337
1177.12	-0.697815	-0.0187836
1177.58	-0.00043335	0.00409485
1178.06	-0.000732422	0.00845032
1178.52	-0.697937	-0.0187836
1178.98	-0.00043335	0.00409821
1179.46	-0.000445557	0.00844421
1179.92	-0.698029	-0.0187836
1180.38	6.10352e-05	0.00409882
1180.86	0.000134277	0.00844421
1181.32	-0.697815	-0.0187866
1181.78	9.15527e-06	0.00409637
1182.26	-0.000473022	0.00843506
1182.72	-0.697693	-0.0187866
1183.18	0.000482178	0.00409637
1183.66	-0.000405884	0.00843506
1184.12	-0.697693	-0.0187775
1184.58	0.000778198	0.00409912
1185.06	6.10352e-06	0.00843201
1185.52	-0.697754	-0.0187714
1185.98	0.000823975	0.00410095
1186.46	-0.000167847	0.00842896
1186.92	-0.69809	-0.0187836
1187.38	0.000738525	0.00410248
1187.86	0.000213623	0.00842896
1188.32	-0.697784	-0.0187683
1188.78	0.000469971	0.00410919
1189.26	-8.54492e-05	0.0084259
1189.72	-0.698517	-0.0187744
1190.18	0.000836182	0.00410767
1190.66	-0.000695801	0.00842896
1191.12	-0.698578	-0.0187744
1191.58	0.00027771	0.00411102
1192.06	-0.000726318	0.00843506
1192.52	-0.697998	-0.0187714
1192.98	0.000524902	0.00411224
1193.46	-0.000552368	0.00843506
1193.92	-0.697693	-0.0187683
1194.38	0.00055542	0.00411438
1194.86	-0.000653076	0.00843201
1195.32	-0.697571	-0.0187653
1195.78	8.23975e-05	0.00412231
1196.26	-0.000128174	0.0084198
1196.72	-0.698212	-0.0187561
1197.18	-0.000436401	0.00412689
1197.66	0.000497437	0.00842285
1198.12	-0.699005	-0.0187561
1198.58	0.000668335	0.00412079
1199.06	-0.000643921	0.00842285
1199.52	-0.698181	-0.01875
1199.98	-0.000436401	0.00413086
1200.46	-0.000515747	0.0084259
1200.92	-0.697479	-0.0187531
1201.38	-0.000491333	0.00413361
1201.86	-0.000634766	0.00842896
1202.32	-0.69812	-0.0187439
1202.78	-0.000421143	0.00413361
1203.26	6.10352e-06	0.0084198
1203.72	-0.699005	-0.0187531
1204.18	0.000775146	0.00413055
1204.66	-0.000445557	0.0084259
1205.12	-0.698395	-0.0187439
1205.58	-0.000198364	0.00413696
1206.06	-0.000164795	0.0084259
1206.52	-0.698029	-0.0187561
1206.98	-0.000195313	0.00414154
1207.46	-0.000619507	0.0084198
1207.92	-0.69812	-0.0187439
1208.38	0.000326538	0.0041391
1208.86	-0.000744629	0.00843506
1209.32	-0.698975	-0.0187714
1209.78	0.000219727	0.00414185
1210.26	-0.000430298	0.00843506
1210.72	-0.698914	-0.0187714
1211.18	0.000714111	0.0041391
1211.66	0.000567627	0.00842285
1212.12	-0.698944	-0.0187653
1212.58	0.000204468	0.00414093
1213.06	-0.000738525	0.00842896
1213.52	-0.697632	-0.0187622
1213.98	0.00072937	0.00414398
1214.46	-0.000299072	0.0084137
1214.92	-0.698273	-0.0187592
1215.38	-0.000457764	0.00415222
1215.86	0.000106812	0.0084137
1216.32	-0.698578	-0.0187561
1216.78	0.000308228	0.00414978
1217.26	-0.000662231	0.00842285
1217.72	-0.697784	-0.0187714
1218.18	0.000521851	0.00414764
1218.66	0.000369263	0.00841675
1219.12	-0.697876	-0.0187531
1219.58	0.000735474	0.00414978
1220.06	-0.000610352	0.0084259
1220.52	-0.697693	-0.0187561
1220.98	0.000799561	0.00415222
1221.46	0.00039978	0.00841675
1221.92	-0.698975	-0.0187531
1222.38	0.000653076	0.00415649
1222.86	0.000494385	0.00841064
1223.32	-0.69751	-0.0187561
1223.78	0.000387573	0.00415741
1224.26	-0.00072937	0.0084137
1224.72	-0.698822	-0.0187622
1225.18	-8.23975e-05	0.00416473
1225.66	0.000488281	0.00841064
1226.12	-0.69751	-0.0187622
1226.58	4.88281e-05	0.00416229
1227.06	-0.000692749	0.0084137
1227.52	-0.698639	-0.0187653
1227.98	-0.000256348	0.00416931
1228.46	0.000466919	0.00840759
1228.92	-0.698975	-0.0187531
1229.38	0.000460815	0.00416595
1229.86	-0.000167847	0.00840759
1230.32	-0.697571	-0.0187561
1230.78	-3.96729e-05	0.00416809
1231.26	-0.000561523	0.0084198
1231.72	-0.698242	-0.0187683
1232.18	0.000738525	0.00416687
1232.66	-0.000753784	0.00840759
1233.12	-0.697601	-0.0187531
1233.58	0.000665283	0.00416992
1234.06	-0.000741577	0.00840454
1234.52	-0.697723	-0.0187622
1234.98	0.000552368	0.00416901
1235.46	0.000164795	0.00840454
1235.92	-0.6987	-0.01875
1236.38	0.000195313	0.00417725
1236.86	-0.000720215	0.00840454
1237.32	-0.697876	-0.0187592
1237.78	-0.000445557	0.0041806
1238.26	-3.66211e-05	0.00839233
1238.72	-0.697845	-0.0187561
1239.18	0.000271606	0.00417572
1239.66	0.000549316	0.00840149
1240.12	-0.697571	-0.0187531
1240.58	-0.000189209	0.0041803
1241.06	0.000436401	0.00839233
1241.52	-0.697998	-0.0187439
1241.98	-4.88281e-05	0.00417999
1242.46	0.000213623	0.00838623
1242.92	-0.69754	-0.0187469
1243.38	1.83105e-05	0.00418121
1243.86	4.27246e-05	0.00838318
1244.32	-0.698212	-0.0187439
1244.78	-0.000231934	0.00418427
1245.26	-0.000485229	0.00838623
1245.72	-0.697723	-0.0187469
1246.18	-0.000463867	0.00419006
1246.66	-0.000601196	0.00838928
1247.12	-0.698364	-0.0187378
1247.58	0.000408936	0.00418396
1248.06	0.000439453	0.00837402
1248.52	-0.698944	-0.0187286
1248.98	0.000732422	0.00418365
1249.46	0.000558472	0.00837402
1249.92	-0.698639	-0.0187408
1250.38	1.2207e-05	0.00419281
1250.86	-0.000741577	0.00838013
1251.32	-0.697784	-0.0187317
1251.78	-2.44141e-05	0.00418854
1252.26	0.000146484	0.00837402
1252.72	-0.698944	-0.0187225
1253.18	5.18799e-05	0.00419312
1253.66	-0.000662231	0.00837402
1254.12	-0.698456	-0.0187256
1254.58	0.000790405	0.00418793
1255.06	0.000537109	0.00837097
1255.52	-0.698822	-0.0187286
1255.98	-0.000338745	0.00419861
1256.46	-0.00071106	0.00837097
1256.92	-0.697723	-0.0187286
1257.38	0.000653076	0.00419037
1257.86	0.000418091	0.00837097
1258.32	-0.698883	-0.0187286
1258.78	0.000772095	0.00419312
1259.26	-0.000537109	0.00836792
1259.72	-0.697632	-0.0187256
1260.18	1.2207e-05	0.00419708
1260.66	-0.000158691	0.00837097
1261.12	-0.698273	-0.0187195
1261.58	0.000592041	0.00419403
1262.06	-0.00015564	0.00834961
1262.52	-0.697937	-0.0187286
1262.98	-0.000402832	0.00420319
1263.46	-0.000479126	0.00836182
1263.92	-0.698303	-0.0187195
1264.38	0.000820923	0.00419647
1264.86	0.000262451	0.00835266
1265.32	-0.69809	-0.0187134
1265.78	0.000839233	0.00419678
1266.26	-0.000570679	0.00834656
1266.72	-0.698181	-0.0187073
1267.18	0.00065918	0.00420044
1267.66	-0.000476074	0.00834961
1268.12	-0.698944	-0.0187103
1268.58	-0.000372314	0.00420471
1269.06	0.000546265	0.00834351
1269.52	-0.697815	-0.0187134
1269.98	-0.000494385	0.00420837
1270.46	0.000448608	0.00834656
1270.92	-0.698151	-0.0187073
1271.38	-0.000390625	0.0042099
1271.86	0.000396729	0.00834961
1272.32	-0.698608	-0.0187073
1272.78	-0.000396729	0.00421082
1273.26	-0.000549316	0.00834351
1273.72	-0.698853	-0.0187073
1274.18	0.000732422	0.00420288
1274.66	-0.000640869	0.00834656
1275.12	-0.697906	-0.0187073
1275.58	-0.000457764	0.00421387
1276.06	-0.000546265	0.00834961
1276.52	-0.698212	-0.0187164
1276.98	0.000775146	0.00420654
1277.46	-0.000540161	0.00833435
1277.92	-0.698914	-0.0187073
1278.38	0.000588989	0.00420715
1278.86	-0.000140381	0.00834656
1279.32	-0.698273	-0.0187012
1279.78	0.000314331	0.0042099
1280.26	0.000488281	0.0083313
1280.72	-0.697723	-0.0187073
1281.18	0.00022583	0.0042099
1281.66	-1.83105e-05	0.0083252
1282.12	-0.697693	-0.0187134
1282.58	0.000485229	0.00421021
1283.06	-0.000595093	0.0083313
1283.52	-0.697876	-0.0187164
1283.98	0.000485229	0.00421082
1284.46	0.000149536	0.0083374
1284.92	-0.6987	-0.0186981
1285.38	-0.000518799	0.00422272
1285.86	-0.000375366	0.00832214
1286.32	-0.698792	-0.0187012
1286.78	0.000585937	0.00421326
1287.26	0.000476074	0.00832214
1287.72	-0.697693	-0.0187073
1288.18	0.000387573	0.00422272
1288.66	-0.000186157	0.0083374
1289.12	-0.697876	-0.0187042
1289.58	0.000772095	0.0042157
1290.06	0.000619507	0.0083313
1290.52	-0.698914	-0.0186981
1290.98	-0.000582886	0.00422577
1291.46	-3.05176e-06	0.00831299
1291.92	-0.697693	-0.0187042
1292.38	0.000799561	0.00421783
1292.86	-0.000393677	0.0083252
1293.32	-0.698547	-0.018689
1293.78	-0.00055542	0.00422974
1294.26	0.000643921	0.00832214
1294.72	-0.698761	-0.0186981
1295.18	8.54492e-05	0.0042218
1295.66	-0.000457764	0.0083252
1296.12	-0.698303	-0.0186981
1296.58	0.000210571	0.00422363
1297.06	-0.00045166	0.00830994
1297.52	-0.697601	-0.0186981
1297.98	0.000869751	0.00422485
1298.46	-0.000100708	0.00830688
1298.92	-0.698212	-0.018692
1299.38	0.000906372	0.00422699
1299.86	0.000598145	0.00830994
1300.32	-0.698059	-0.0186951
1300.78	0.000875854	0.00422913
1301.26	0.000588989	0.00830383
1301.72	-0.698914	-0.0186829
1302.18	0.000222778	0.00422852
1302.66	-0.000543213	0.00830383
1303.12	-0.698242	-0.0186798
1303.58	-0.000360107	0.00423401
1304.06	-0.000735474	0.00830383
1304.52	-0.697693	-0.018692
1304.98	-0.000299072	0.00423737
1305.46	0.000564575	0.00830688
1305.92	-0.698792	-0.0186707
1306.38	0.000463867	0.00423065
1306.86	-0.000784302	0.00830383
1307.32	-0.69812	-0.0186859
1307.78	0.000228882	0.00423737
1308.26	0.000579834	0.00829468
1308.72	-0.697662	-0.0186829
1309.18	-0.000186157	0.00423676
1309.66	-0.000515747	0.00829773
1310.12	-0.698944	-0.0186737
1310.58	0.00045166	0.00423737
1311.06	-0.000509644	0.00829163
1311.52	-0.698608	-0.0186798
1311.98	3.96729e-05	0.00424042
1312.46	-0.000317383	0.00828552
1312.92	-0.697998	-0.0186768
1313.38	-0.000134277	0.00424042
1313.86	0.000469971	0.00828552
1314.32	-0.698486	-0.0186646
1314.78	0.000762939	0.00423676
1315.26	-0.000546265	0.00829468
1315.72	-0.698914	-0.0186646
1316.18	0.000531006	0.00424042
1316.66	-0.0006073	0.00827637
1317.12	-0.698608	-0.0186646
1317.58	-0.000360107	0.00424683
1318.06	-0.000198364	0.00826721
1318.52	-0.697845	-0.0186646
1318.98	-0.000274658	0.00424683
1319.46	-0.000247192	0.00827026
1319.92	-0.698273	-0.0186615
1320.38	0.000509644	0.00424377
1320.86	-0.000497437	0.00827026
1321.32	-0.698151	-0.0186584
1321.78	0.000741577	0.00424164
1322.26	-0.000634766	0.00826721
1322.72	-0.697998	-0.0186523
1323.18	0.000817871	0.00424103
1323.66	-0.000762939	0.00827332
1324.12	-0.698181	-0.0186523
1324.58	-0.000296021	0.00424805
1325.06	0.00012207	0.00826721
1325.52	-0.6987	-0.0186371
1325.98	0.000317383	0.00424774
1326.46	6.10352e-06	0.00826111
1326.92	-0.697632	-0.0186432
1327.38	0.000616455	0.00424286
1327.86	-0.000204468	0.008255
1328.32	-0.697632	-0.0186371
1328.78	0.000515747	0.004245
1329.26	-0.00072937	0.00825806
1329.72	-0.698669	-0.0186371
1330.18	-0.000457764	0.00425415
1330.66	0.000326538	0.00825195
1331.12	-0.699005	-0.018631
1331.58	0.00055542	0.00424957
1332.06	-0.00072937	0.008255
1332.52	-0.697571	-0.018631
1332.98	-0.000341797	0.00425629
1333.46	0.000292969	0.0082428
1333.92	-0.698639	-0.0186279
1334.38	0.000326538	0.00424988
1334.86	0.000473022	0.00824585
1335.32	-0.698303	-0.018631
1335.78	0.000668335	0.00424988
1336.26	-0.000442505	0.00825195
1336.72	-0.698639	-0.0186127
1337.18	0.000817871	0.00425049
1337.66	0.000134277	0.0082428
1338.12	-0.699036	-0.0186188
1338.58	-0.000210571	0.00425598
1339.06	0.000564575	0.00823669
1339.52	-0.698273	-0.0186157
1339.98	0.000604248	0.00425079
1340.46	0.000518799	0.00823364
1340.92	-0.698212	-0.0186188
1341.38	-0.000482178	0.00426208
1341.86	0.00039978	0.00822449
1342.32	-0.697601	-0.0186127
1342.78	-0.000424194	0.00426086
1343.26	-0.000234985	0.00822144
1343.72	-0.697693	-0.0186127
1344.18	-0.000259399	0.00426392
1344.66	-0.000662231	0.00823975
1345.12	-0.698669	-0.0186096
1345.58	5.49316e-05	0.0042627
1346.06	-0.00072937	0.00823059
1346.52	-0.697998	-0.0186127
1346.98	-0.000463867	0.00426575
1347.46	-0.000445557	0.00822449
1347.92	-0.697693	-0.0186127
1348.38	-0.000360107	0.00426544
1348.86	-0.000265503	0.00821838
1349.32	-0.697693	-0.0186096
1349.78	-0.000137329	0.00426392
1350.26	-0.000741577	0.00822754
1350.72	-0.697693	-0.0186096
1351.18	0.000161743	0.004263
1351.66	-0.000167847	0.00821533
1352.12	-0.698242	-0.0186005
1352.58	0.000817871	0.00426178
1353.06	3.66211e-05	0.00821533
1353.52	-0.698334	-0.0185974
1353.98	0.000720215	0.00426147
1354.46	-0.000115967	0.00820923
1354.92	-0.697876	-0.0186035
1355.38	0.000799561	0.00426147
1355.86	0.00055542	0.00821533
1356.32	-0.698303	-0.0186096
1356.78	0.000186157	0.00426178
1357.26	0.000256348	0.00820618
1357.72	-0.69873	-0.0186127
1358.18	0.000332642	0.00426117
1358.66	0.000518799	0.00820007
1359.12	-0.698669	-0.0186066
1359.58	0.00083313	0.00426178
1360.06	0.000427246	0.00820618
1360.52	-0.697968	-0.0186157
1360.98	-1.83105e-05	0.00427155
1361.46	-0.000738525	0.00820618
1361.92	-0.697754	-0.0186035
1362.38	-0.000445557	0.00426758
1362.86	-0.000177002	0.00819092
1363.32	-0.697693	-0.0186005
1363.78	-9.15527e-06	0.00426453
1364.26	0.000546265	0.008203125
1364.72	-0.697754	-0.0185974
1365.18	0.000909424	0.00426666
1365.66	-0.000744629	0.00819702
1366.12	-0.698486	-0.0185913
1366.58	0.000561523	0.00427216
1367.06	3.66211e-05	0.00819092
1367.52	-0.698364	-0.0186005
1367.98	-0.000549316	0.00427765
1368.46	0.000561523	0.008203125
1368.92	-0.697876	-0.0186066
1369.38	-2.44141e-05	0.00427246
1369.86	0.00020752	0.00819397
1370.32	-0.698944	-0.0186096
1370.78	-0.0006073	0.00428192
1371.26	-0.000762939	0.00819702
1371.72	-0.698669	-0.0186066
1372.18	-0.000588989	0.00428253
1372.66	-0.000735474	0.008203125
1373.12	-0.697845	-0.0186157
1373.58	-0.000531006	0.00428375
1374.06	-0.000698853	0.00820923
1374.52	-0.697784	-0.0186279
1374.98	-0.000454712	0.0042868
1375.46	0.000408936	0.00820923
1375.92	-0.698792	-0.0186188
1376.38	0.000775146	0.00428131
1376.86	-4.57764e-05	0.00820007
1377.32	-0.697662	-0.0186249
1377.78	-0.000299072	0.00428894
1378.26	-3.35693e-05	0.00819092
1378.72	-0.698822	-0.0186188
1379.18	0.000393677	0.00428833
1379.66	0.000256348	0.00820618
1380.12	-0.697693	-0.018631
1380.58	-0.00032959	0.00429443
1381.06	-0.000750732	0.008203125
1381.52	-0.698853	-0.0186157
1381.98	0.000247192	0.00428894
1382.46	0.000473022	0.00819702
1382.92	-0.697845	-0.0186218
1383.38	-7.93457e-05	0.00429596
1383.86	0.000146484	0.00819702
1384.32	-0.698639	-0.0186249
1384.78	0.000570679	0.00429077
1385.26	-0.000515747	0.00820923
1385.72	-0.698547	-0.0186157
1386.18	-0.000469971	0.00430054
1386.66	0.000509644	0.00820007
1387.12	-0.697571	-0.018634
1387.58	0.000747681	0.00429657
1388.06	-0.000726318	0.00820923
1388.52	-0.698883	-0.0186279
1388.98	0.000744629	0.0042984
1389.46	-0.000650024	0.00820923
1389.92	-0.6987	-0.0186249
1390.38	0.000823975	0.00430054
1390.86	-0.00072937	0.00820923
1391.32	-0.698883	-0.0186401
1391.78	0.000137329	0.00430634
1392.26	0.000415039	0.00820923
1392.72	-0.698334	-0.0186523
1393.18	0.000811768	0.00430481
1393.66	0.000292969	0.00821228
1394.12	-0.698792	-0.0186401
1394.58	0.000265503	0.00431213
1395.06	-0.000167847	0.00822144
1395.52	-0.697662	-0.0186554
1395.98	-0.000109863	0.00431671
1396.46	-0.000595093	0.00821838
1396.92	-0.697571	-0.0186523
1397.38	-0.000491333	0.00431976
1397.86	-0.000585937	0.00821228
1398.32	-0.699005	-0.0186554
1398.78	2.74658e-05	0.00431763
1399.26	0.000411987	0.00821228
1399.72	-0.69751	-0.0186707
1400.18	0.000582886	0.00431854
1400.66	-0.000622559	0.00822754
1401.12	-0.697968	-0.0186768
1401.58	-0.000445557	0.00432648
1402.06	0.000485229	0.00821838
1402.52	-0.69754	-0.0186768
1402.98	-0.000158691	0.0043277
1403.46	0.000286865	0.00822754
1403.92	-0.698273	-0.0186829
1404.38	0.000805664	0.00432129
1404.86	0.00032959	0.00823059
1405.32	-0.697784	-0.0186737
1405.78	-0.000387573	0.00433258
1406.26	-0.000662231	0.00822449
1406.72	-0.698792	-0.0186798
1407.18	0.000753784	0.00432678
1407.66	0.000595093	0.00823059
1408.12	-0.698944	-0.0186798
1408.58	1.83105e-05	0.00432983
1409.06	0.000418091	0.00822754
1409.52	-0.698792	-0.0186737
1409.98	-0.000186157	0.00433838
1410.46	-0.000686646	0.0082428
1410.92	-0.697754	-0.0187195
1411.38	0.000830078	0.00432983
1411.86	0.000372314	0.00823364
1412.32	-0.698883	-0.0187073
1412.78	-0.000488281	0.00433838
1413.26	0.000234985	0.00823669
1413.72	-0.697784	-0.0187164
1414.18	0.000195313	0.00433899
1414.66	-0.000717163	0.00823975
1415.12	-0.697693	-0.0187134
1415.58	0.000384521	0.0043396
1416.06	0.000488281	0.00823059
1416.52	-0.698792	-0.0186981
1416.98	0.000463867	0.00433472
1417.46	0.000509644	0.00823975
1417.92	-0.698181	-0.0187042
1418.38	0.000674438	0.00433533
1418.86	0.000637817	0.00823059
1419.32	-0.698853	-0.0187103
1419.78	-0.000393677	0.00434784
1420.26	0.000323486	0.00823669
1420.72	-0.698792	-0.0187073
1421.18	-9.15527e-06	0.00434082
1421.66	-0.000866699	0.00822754
1422.12	-0.698853	-0.0187012
1422.58	0.000665283	0.00433929
1423.06	-0.000482178	0.00822144
1423.52	-0.697876	-0.0187073
1423.98	1.83105e-05	0.00434387
1424.46	-0.000192261	0.00822754
1424.92	-0.69809	-0.0187134
1425.38	-0.000485229	0.00434906
1425.86	-0.000805664	0.00822449
1426.32	-0.698456	-0.0187012
1426.78	0.000396729	0.00434937
1427.26	-0.000665283	0.00822144
1427.72	-0.697601	-0.0187103
1428.18	-0.000518799	0.00435638
1428.66	-0.000161743	0.00823059
1429.12	-0.698975	-0.0186951
1429.58	0.000357056	0.00435303
1430.06	-0.000140381	0.00821838
1430.52	-0.698151	-0.0187103
1430.98	-0.000415039	0.00435883
1431.46	0.000552368	0.00821838
1431.92	-0.697845	-0.0187164
1432.38	0.000195313	0.00435669
1432.86	0.000170898	0.00821533
1433.32	-0.697937	-0.0187073
1433.78	0.000799561	0.00435272
1434.26	-0.000418091	0.00822449
1434.72	-0.698059	-0.0187042
1435.18	0.000512695	0.00435699
1435.66	0.000283813	0.00821228
1436.12	-0.697693	-0.0187073
1436.58	0.000415039	0.00435883
1437.06	0.000552368	0.00821533
1437.52	-0.698059	-0.0186951
1437.98	-0.000302124	0.00436462
1438.46	0.000363159	0.00822144
1438.92	-0.698944	-0.0186951
1439.38	-0.000186157	0.00436218
1439.86	-0.000601196	0.00823059
1440.32	-0.697479	-0.0187073
1440.78	0.000689697	0.00436157
1441.26	0.000326538	0.00822144
1441.72	-0.69873	-0.0187134
1442.18	-0.000491333	0.00436981
1442.66	-0.000228882	0.00821533
1443.12	-0.698303	-0.0187103
1443.58	-0.000311279	0.00437073
1444.06	-0.000460815	0.00821533
1444.52	-0.697693	-0.0187042
1444.98	-0.000506592	0.00437195
1445.46	4.88281e-05	0.00821228
1445.92	-0.698364	-0.0186951
1446.38	-0.000491333	0.00437195
1446.86	0.000518799	0.00821228
1447.32	-0.699005	-0.0187042
1447.78	0.000109863	0.00436737
1448.26	0.000494385	0.00820923
1448.72	-0.69873	-0.0187073
1449.18	4.57764e-05	0.00437378
1449.66	-0.000582886	0.00822449
1450.12	-0.69754	-0.0186981
1450.58	-0.000476074	0.00437622
1451.06	-0.000299072	0.00822754
1451.52	-0.698334	-0.0187042
1451.98	-4.88281e-05	0.00437622
1452.46	0.000134277	0.00822144
1452.92	-0.697601	-0.0187134
1453.38	0.000799561	0.00436981
1453.86	0.000216675	0.008203125
1454.32	-0.698761	-0.0187073
1454.78	-1.83105e-05	0.00437408
1455.26	-0.000738525	0.00821533
1455.72	-0.697601	-0.0187073
1456.18	0.00055542	0.00437134
1456.66	-0.000460815	0.008203125
1457.12	-0.69809	-0.0187042
1457.58	0.00083313	0.00437286
1458.06	-0.000616455	0.00820923
1458.52	-0.69809	-0.0187103
1458.98	-0.000442505	0.00438446
1459.46	-0.000286865	0.00821838
1459.92	-0.6987	-0.0187012
1460.38	0.000732422	0.00437469
1460.86	-0.000741577	0.00821228
1461.32	-0.698517	-0.0186951
1461.78	3.96729e-05	0.00438568
1462.26	3.05176e-05	0.00820007
1462.72	-0.698975	-0.018692
1463.18	-0.000491333	0.00438202
1463.66	-0.000473022	0.00820007
1464.12	-0.698914	-0.018692
1464.58	0.000857544	0.00437775
1465.06	-7.62939e-05	0.00819702
1465.52	-0.698944	-0.0186829
1465.98	0.000473022	0.00438538
1466.46	-0.000567627	0.00819092
1466.92	-0.698975	-0.0186859
1467.38	-0.00055542	0.00438477
1467.86	0.000442505	0.008203125
1468.32	-0.698944	-0.018689
1468.78	0.000567627	0.00438629
1469.26	-0.000817871	0.00819702
1469.72	-0.698761	-0.018689
1470.18	-0.000552368	0.00438843
1470.66	0.000601196	0.00819397
1471.12	-0.697906	-0.0186951
1471.58	0.000186157	0.00439087
1472.06	-0.000860596	0.00819092
1472.52	-0.697754	-0.0186859
1472.98	-0.000582886	0.00439148
1473.46	0.000631714	0.00819397
1473.92	-0.698975	-0.0186829
1474.38	0.000772095	0.00438477
1474.86	0.000393677	0.00818176
1475.32	-0.698578	-0.0186829
1475.78	0.000744629	0.0043869
1476.26	-0.000204468	0.00819092
1476.72	-0.698181	-0.0186768
1477.18	-0.000302124	0.00439331
1477.66	5.49316e-05	0.00817566
1478.12	-0.698212	-0.0186859
1478.58	0.000796509	0.00438782
1479.06	-0.000149536	0.00819092
1479.52	-0.697754	-0.0186768
1479.98	-0.000482178	0.00439758
1480.46	-0.000778198	0.00817871
1480.92	-0.698456	-0.0186615
1481.38	-0.000494385	0.00439789
1481.86	-0.000195313	0.00817871
1482.32	-0.698669	-0.0186707
1482.78	0.000784302	0.00439117
1483.26	-0.000247192	0.00818481
1483.72	-0.698456	-0.0186615
1484.18	-0.000192261	0.00439606
1484.66	0.000497437	0.0081665
1485.12	-0.697845	-0.0186646
1485.58	-0.000213623	0.00440002
1486.06	0.000408936	0.00816956
1486.52	-0.699036	-0.0186646
1486.98	0.000204468	0.0043985
1487.46	0.000445557	0.0081665
1487.92	-0.69754	-0.0186676
1488.38	-2.74658e-05	0.00440125
1488.86	0.000537109	0.0081665
1489.32	-0.698212	-0.0186554
1489.78	-0.000115967	0.00440247
1490.26	0.000189209	0.00817261
1490.72	-0.698425	-0.0186646
1491.18	-0.000439453	0.00440399
1491.66	-0.000744629	0.0081665
1492.12	-0.697723	-0.0186646
1492.58	-0.000442505	0.00440582
1493.06	0.000363159	0.00815125
1493.52	-0.698761	-0.0186493
1493.98	0.000714111	0.00439728
1494.46	0.000228882	0.0081604
1494.92	-0.698151	-0.0186584
1495.38	-0.00050354	0.00440674
1495.86	0	0.00816345
1496.32	-0.698944	-0.0186401
1496.78	4.27246e-05	0.00440643
1497.26	-0.000445557	0.00817261
1497.72	-0.699005	-0.0186462
1498.18	1.83105e-05	0.00440704
1498.66	-0.000350952	0.0081665
1499.12	-0.697845	-0.0186584
1499.58	0.000192261	0.00440247
1500.06	0.000183105	0.00814514
1500.52	-0.697632	-0.0186554
1500.98	0.000790405	0.00440094
1501.46	0.000579834	0.00815125
1501.92	-0.698334	-0.018634
1502.38	-0.000524902	0.00441223
1502.86	0.000317383	0.0081543
1503.32	-0.697662	-0.0186401
1503.78	0.000808716	0.00440216
1504.26	-0.000119019	0.00815735
1504.72	-0.698608	-0.0186371
1505.18	-0.000378418	0.00440796
1505.66	1.2207e-05	0.00814514
1506.12	-0.698242	-0.0186432
1506.58	0.000933838	0.00440735
1507.06	1.2207e-05	0.0081543
1507.52	-0.699066	-0.0186279
1507.98	0.000894165	0.00440704
1508.46	0.000650024	0.00814819
1508.92	-0.697662	-0.018634
1509.38	-0.000518799	0.00441681
1509.86	-0.000848389	0.00813599
1510.32	-0.697571	-0.0186249
1510.78	-0.000454712	0.00441681
1511.26	6.10352e-06	0.00813293
1511.72	-0.69812	-0.0186157
1512.18	0.000762939	0.00440979
1512.66	-5.79834e-05	0.00813904
1513.12	-0.698944	-0.0186218
1513.58	0.000787354	0.00441193
1514.06	-0.000354004	0.00812683
1514.52	-0.698639	-0.0186127
1514.98	0.000119019	0.00441956
1515.46	0.000576782	0.00813599
1515.92	-0.698914	-0.0186188
1516.38	-0.000341797	0.00442322
1516.86	0.000219727	0.00812683
1517.32	-0.6987	-0.0186035
1517.78	0.000323486	0.00441376
1518.26	0.000564575	0.00812378
1518.72	-0.698853	-0.0186005
1519.18	-0.000466919	0.004422
1519.66	-0.000750732	0.00812378
1520.12	-0.697906	-0.0186005
1520.58	0.000738525	0.00441467
1521.06	-0.000570679	0.00811768
1521.52	-0.698883	-0.0186096
1521.98	4.88281e-05	0.0044223
1522.46	-0.0003479	0.00815125
1522.92	-0.698975	-0.018634
1523.38	-0.000152588	0.00442596
1523.86	0.00045166	0.00812988
1524.32	-0.698486	-0.0186218
1524.78	-0.00045166	0.00442505
1525.26	0.000506592	0.00812988
1525.72	-0.698944	-0.018631
1526.18	-0.000482178	0.00442841
1526.66	-0.000552368	0.00812988
1527.12	-0.699005	-0.0186249
1527.58	0.000750732	0.00441803
1528.06	-4.27246e-05	0.00812073
1528.52	-0.698914	-0.0186218
1528.98	-0.000411987	0.00442627
1529.46	-0.000762939	0.00813599
1529.92	-0.698395	-0.0186157
1530.38	-0.000250244	0.00442963
1530.86	0.000241089	0.00812988
1531.32	-0.698212	-0.0186279
1531.78	0.000369263	0.00442291
1532.26	-0.000747681	0.00812988
1532.72	-0.697968	-0.0186157
1533.18	0.000598145	0.00442657
1533.66	0.000286865	0.00811462
1534.12	-0.698822	-0.0186066
1534.58	-0.000521851	0.00443024
1535.06	-0.000720215	0.00812988
1535.52	-0.698181	-0.0186096
1535.98	-0.000427246	0.00442963
1536.46	-0.000772095	0.00812378
1536.92	-0.698334	-0.0186096
1537.38	0.000335693	0.00442352
1537.86	-0.00027771	0.00810852
1538.32	-0.698761	-0.0186035
1538.78	-0.000161743	0.00442719
1539.26	-0.000549316	0.00810852
1539.72	-0.698395	-0.0186066
1540.18	0.000769043	0.00442596
1540.66	0.000344849	0.00811157
1541.12	-0.698944	-0.0186035
1541.58	-0.000469971	0.00443176
1542.06	0.00017395	0.00810852
1542.52	-0.698303	-0.0186127
1542.98	-0.000198364	0.00443817
1543.46	-0.000735474	0.00811157
1543.92	-0.698822	-0.0185974
1544.38	0.0006073	0.00443451
1544.86	-0.000805664	0.00811157
1545.32	-0.697632	-0.0186096
1545.78	0.000717163	0.00443024
1546.26	-0.000845337	0.00810547
1546.72	-0.697968	-0.0186066
1547.18	0.000720215	0.00443115
1547.66	-0.000320435	0.00809326
1548.12	-0.698425	-0.0186066
1548.58	0.000161743	0.00443512
1549.06	1.83105e-05	0.00809631
1549.52	-0.698883	-0.0185913
1549.98	0.000100708	0.00443481
1550.46	-0.0006073	0.00809631
1550.92	-0.698883	-0.0185822
1551.38	-0.000515747	0.00444122
1551.86	-0.000698853	0.00810547
1552.32	-0.698212	-0.0185852
1552.78	0.000106812	0.0044397
1553.26	0.000418091	0.00809937
1553.72	-0.697876	-0.0185883
1554.18	-6.71387e-05	0.00444214
1554.66	0.000524902	0.00809326
1555.12	-0.697632	-0.0185913
1555.58	0.000802612	0.00443451
1556.06	-0.000305176	0.00808411
1556.52	-0.698914	-0.0185822
1556.98	0.000497437	0.00443604
1557.46	-0.000363159	0.00809937
1557.92	-0.697876	-0.0185852
1558.38	-0.000393677	0.00444519
1558.87	-0.000372314	0.00808411
1559.33	-0.698883	-0.0185822
1559.79	0.000369263	0.00443848
1560.27	-0.000131226	0.00809326
1560.73	-0.698639	-0.0185669
1561.19	0.000540161	0.00444122
1561.67	-0.000762939	0.00808716
1562.13	-0.697662	-0.0185699
1562.59	-0.000460815	0.00444763
1563.07	0.000454712	0.00807495
1563.53	-0.697601	-0.0185699
1563.99	0.000787354	0.00444031
1564.47	-0.000701904	0.00808105
1564.93	-0.697876	-0.018576
1565.39	-0.000387573	0.00444885
1565.87	-0.000274658	0.00807495
1566.33	-0.698547	-0.0185822
1566.79	-0.00043335	0.00444763
1567.27	0.000592041	0.00806885
1567.73	-0.698792	-0.0185638
1568.19	0.000692749	0.00444244
1568.67	-0.000708008	0.00808105
1569.13	-0.697632	-0.0185699
1569.59	0.000775146	0.00444
1570.07	0.000134277	0.0080719
1570.53	-0.697662	-0.0185699
1570.99	0.000759888	0.00444092
1571.47	-0.000216675	0.008078
1571.93	-0.697723	-0.0185669
1572.39	0.000189209	0.00444458
1572.87	0.000219727	0.00805969
1573.33	-0.698517	-0.0185638
1573.79	-0.000109863	0.0044455
1574.27	-0.000436401	0.00805969
1574.73	-0.698608	-0.0185455
1575.19	-0.000378418	0.00444672
1575.67	-0.000131226	0.0080658
1576.13	-0.697815	-0.0185577
1576.59	7.01904e-05	0.00444214
1577.07	2.44141e-05	0.00807495
1577.53	-0.69873	-0.0185547
1577.99	0.000708008	0.00444153
1578.47	-0.000741577	0.0080658
1578.93	-0.698975	-0.0185516
1579.39	0.000506592	0.0044516
1579.87	0.000692749	0.00806274
1580.33	-0.698608	-0.0185547
1580.79	-9.76562e-05	0.0044455
1581.27	-0.000613403	0.00804749
1581.73	-0.6987	-0.0185516
1582.19	-0.000289917	0.00444763
1582.67	0.000247192	0.00805054
1583.13	-0.698914	-0.0185516
1583.59	0.00083313	0.00444611
1584.07	-0.000234985	0.0080658
1584.53	-0.698883	-0.0185547
1584.99	0.000610352	0.00444763
1585.47	-0.000604248	0.00805054
1585.93	-0.698669	-0.0185547
1586.39	0.00078125	0.00444855
1586.87	3.05176e-05	0.00804749
1587.33	-0.698364	-0.0185699
1587.79	0.000720215	0.0044516
1588.27	-3.05176e-05	0.00805054
1588.73	-0.698181	-0.0185669
1589.19	0.000588989	0.00445221
1589.67	-0.000164795	0.00805054
1590.09	-4.88281e-05	0.00253632