File: Edgar/20240607/20240607/electrodeposition_pulsed_potential_20240607_D/pulses_4000_to_5000.txt
Time (s)	WE(1).Potential (V)	WE(1).Current (A)
3016.65	-0.698822	-0.0213654
3017.11	-0.000506592	0.0030246
3017.59	0.000610352	0.00628082
3018.05	-0.697815	-0.0184326
3018.51	-2.44141e-05	0.00454803
3018.99	0.000344849	0.00701111
3019.45	-0.697601	-0.0180237
3019.91	0.000564575	0.00477966
3020.39	-0.000299072	0.00714447
3020.85	-0.698853	-0.0179291
3021.31	0.000692749	0.00483734
3021.79	-0.000259399	0.00717621
3022.25	-0.698151	-0.0179047
3022.71	0.000534058	0.00486359
3023.19	-0.0006073	0.00720062
3023.65	-0.697876	-0.0178986
3024.11	0.00032959	0.00487366
3024.59	0.000717163	0.00720184
3025.05	-0.699127	-0.0178772
3025.51	-0.000204468	0.00488892
3025.99	0.000750732	0.00721069
3026.45	-0.698212	-0.0178772
3026.91	-0.000628662	0.00489502
3027.39	-0.000671387	0.00722198
3027.85	-0.699005	-0.0178528
3028.31	0.000622559	0.00489624
3028.79	-0.000140381	0.00722839
3029.25	-0.697968	-0.0178619
3029.71	-0.000637817	0.00490723
3030.19	0.000662231	0.0072226
3030.65	-0.698944	-0.0178497
3031.11	0.000784302	0.00490265
3031.59	0.000738525	0.00722626
3032.05	-0.697754	-0.0178558
3032.51	0.00090332	0.00490356
3032.99	-0.000695801	0.00723816
3033.45	-0.698303	-0.0178589
3033.91	-0.000442505	0.0049173
3034.39	0.000689697	0.00723206
3034.85	-0.698151	-0.0178528
3035.31	-0.000662231	0.0049176
3035.79	0.000320435	0.00723816
3036.25	-0.698669	-0.0178406
3036.71	0.000616455	0.00491089
3037.19	-0.000180054	0.00723755
3037.65	-0.698578	-0.0178406
3038.11	-0.000494385	0.0049231
3038.59	0.000714111	0.00723663
3039.05	-0.698761	-0.0178375
3039.51	-0.000335693	0.00492126
3039.99	0.000738525	0.00723755
3040.45	-0.698761	-0.0178345
3040.91	8.23975e-05	0.00491974
3041.39	5.49316e-05	0.00724487
3041.85	-0.699005	-0.0178436
3042.31	0.000701904	0.00491852
3042.79	0.000704956	0.00724304
3043.25	-0.697632	-0.0178497
3043.71	-0.000582886	0.0049292
3044.19	-0.000158691	0.00724457
3044.65	-0.699066	-0.0178345
3045.11	0.000320435	0.00492157
3045.59	-0.00045166	0.00724731
3046.05	-0.699066	-0.0178284
3046.51	-0.000241089	0.00492828
3046.99	-0.000601196	0.00725037
3047.45	-0.699127	-0.0178345
3047.91	-0.000369263	0.00493042
3048.39	0.00039978	0.00724457
3048.85	-0.697937	-0.0178375
3049.31	-0.000396729	0.00493134
3049.79	0.000762939	0.00723999
3050.25	-0.698639	-0.0178375
3050.71	0.000387573	0.00493134
3051.19	0.000531006	0.00724609
3051.65	-0.698608	-0.0178345
3052.11	-0.000531006	0.00493469
3052.59	0.000650024	0.0072403
3053.05	-0.699036	-0.0178253
3053.51	0.000628662	0.0049295
3053.99	0.000335693	0.0072464
3054.45	-0.698486	-0.0178253
3054.91	-0.000582886	0.00493622
3055.39	0.000683594	0.00723999
3055.85	-0.697601	-0.0178314
3056.31	0.000738525	0.00493103
3056.79	-0.00045166	0.00725037
3057.25	-0.698547	-0.0178314
3057.71	0.0006073	0.00492828
3058.19	0.000286865	0.0072403
3058.65	-0.697754	-0.0178253
3059.11	0.000900269	0.00492798
3059.59	0.000900269	0.00723999
3060.05	-0.697662	-0.0178223
3060.51	0.000167847	0.0049353
3060.99	0.000311279	0.00723969
3061.45	-0.69873	-0.0178162
3061.91	-0.000637817	0.00493744
3062.39	-0.000274658	0.00724304
3062.85	-0.698853	-0.0178162
3063.31	0.000149536	0.00493256
3063.79	-6.10352e-05	0.00724548
3064.25	-0.698334	-0.0178162
3064.71	-0.000134277	0.00493256
3065.19	0.000732422	0.00723938
3065.65	-0.69873	-0.0178253
3066.11	-0.000512695	0.0049411
3066.59	0.00067749	0.00723938
3067.05	-0.697693	-0.0178223
3067.51	0.000866699	0.00492981
3067.99	0.000289917	0.00723877
3068.45	-0.699219	-0.0178162
3068.91	-0.000552368	0.00493927
3069.39	0.00020752	0.00723755
3069.85	-0.698059	-0.0178101
3070.31	-0.000427246	0.00494049
3070.79	-0.000656128	0.00724365
3071.25	-0.698364	-0.0178253
3071.71	0.000662231	0.00493378
3072.19	-0.000619507	0.00724243
3072.65	-0.698059	-0.0178253
3073.11	0.00057373	0.004935
3073.59	-0.000357056	0.00724182
3074.05	-0.698944	-0.0178101
3074.51	0.000735474	0.00493317
3074.99	-0.0006073	0.00724487
3075.45	-0.697754	-0.0178101
3075.91	0.000646973	0.00493195
3076.39	-0.000274658	0.00723969
3076.85	-0.697632	-0.0178131
3077.31	-0.000567627	0.00494171
3077.79	-0.000479126	0.00723785
3078.25	-0.698151	-0.0178101
3078.71	-0.000524902	0.00494202
3079.19	0.000738525	0.00723328
3079.65	-0.698975	-0.0178009
3080.11	-0.000271606	0.0049411
3080.59	-0.000488281	0.00724396
3081.05	-0.697906	-0.0178131
3081.51	-0.00022583	0.00494141
3081.99	0.000750732	0.00723083
3082.45	-0.698761	-0.017807
3082.91	-4.88281e-05	0.00494202
3083.39	0.000708008	0.00723297
3083.85	-0.69809	-0.0178162
3084.31	0.000360107	0.00493744
3084.79	0.0006073	0.00722778
3085.25	-0.697601	-0.017807
3085.71	-0.000213623	0.00493439
3086.19	0.000686646	0.00723358
3086.65	-0.697693	-0.0178101
3087.11	0.000161743	0.00494049
3087.59	0.000762939	0.007229
3088.05	-0.697601	-0.0178101
3088.51	-0.000125122	0.00494354
3088.99	0.000518799	0.00723022
3089.45	-0.69812	-0.0178131
3089.91	-0.000241089	0.00493958
3090.39	0.00015564	0.00723297
3090.85	-0.698181	-0.0177979
3091.31	0.000588989	0.00493347
3091.79	-0.000424194	0.00723267
3092.25	-0.697784	-0.0178131
3092.71	0.000839233	0.00493439
3093.19	0.000613403	0.00722504
3093.65	-0.697632	-0.017807
3094.11	0.000653076	0.00493713
3094.59	0.000323486	0.00722717
3095.05	-0.697845	-0.017804
3095.51	-7.01904e-05	0.00493927
3095.99	-0.000292969	0.00723419
3096.45	-0.697815	-0.017807
3096.91	0.000741577	0.00493378
3097.39	-0.000643921	0.00723297
3097.85	-0.697693	-0.0177979
3098.31	0.000280762	0.00493591
3098.79	0.000411987	0.00722443
3099.25	-0.698181	-0.0177979
3099.71	-0.000604248	0.00494415
3100.19	-0.000491333	0.00723297
3100.65	-0.698364	-0.0177917
3101.11	0.000854492	0.00493622
3101.59	-0.000738525	0.00723022
3102.05	-0.697632	-0.0178101
3102.51	0.000842285	0.00493561
3102.99	0.000238037	0.00722473
3103.45	-0.697662	-0.0178009
3103.91	0.000216675	0.00493622
3104.39	-0.000534058	0.00723206
3104.85	-0.697815	-0.0177948
3105.31	6.10352e-06	0.00494263
3105.79	-0.000689697	0.00723022
3106.25	-0.697662	-0.0178009
3106.71	0.000271606	0.00494446
3107.19	-0.000704956	0.00722687
3107.65	-0.697784	-0.0178009
3108.11	0.000296021	0.0049411
3108.59	-0.000567627	0.00722626
3109.05	-0.698395	-0.017804
3109.51	-0.000219727	0.00493835
3109.99	-6.71387e-05	0.0072287
3110.45	-0.697937	-0.017807
3110.91	0.000881958	0.00493744
3111.39	0.000546265	0.00722168
3111.85	-0.697662	-0.017804
3112.31	-0.000628662	0.00494659
3112.79	-0.000418091	0.00723053
3113.25	-0.698914	-0.0177917
3113.71	-0.000500488	0.00494843
3114.19	0.000402832	0.00722626
3114.65	-0.698059	-0.017804
3115.11	0.000894165	0.00493896
3115.59	-0.000518799	0.00723206
3116.05	-0.697906	-0.0177979
3116.51	-0.000585937	0.00494659
3116.99	-0.000430298	0.00722687
3117.45	-0.697571	-0.0178101
3117.91	0.000567627	0.00494415
3118.39	-0.000604248	0.0072345
3118.85	-0.697754	-0.0178223
3119.31	-0.000158691	0.00494934
3119.79	0.000213623	0.00723206
3120.25	-0.698608	-0.0178101
3120.71	4.88281e-05	0.00494965
3121.19	0.000430298	0.00723328
3121.65	-0.698425	-0.0178284
3122.11	-0.000439453	0.00495392
3122.59	0.000735474	0.0072287
3123.05	-0.698822	-0.0178101
3123.51	0.000140381	0.00494995
3123.99	-0.000531006	0.00723846
3124.45	-0.697723	-0.0178223
3124.91	-0.000109863	0.00495331
3125.39	0.000671387	0.00723022
3125.85	-0.698273	-0.0178162
3126.31	0.000131226	0.00495087
3126.79	0.000759888	0.00723297
3127.25	-0.699066	-0.0178223
3127.71	0.000610352	0.00495453
3128.19	0.000689697	0.00723236
3128.65	-0.698578	-0.0178253
3129.11	-0.000457764	0.00495605
3129.59	0.000170898	0.00723755
3130.05	-0.69873	-0.0178253
3130.51	-0.000643921	0.0049588
3130.99	0.000463867	0.00723816
3131.45	-0.698578	-0.0178406
3131.91	-6.10352e-06	0.00495483
3132.39	-0.000601196	0.00725128
3132.85	-0.697723	-0.0178589
3133.31	0.000106812	0.00495453
3133.79	-0.000402832	0.00725433
3134.25	-0.699188	-0.0178558
3134.71	0.000445557	0.0049588
3135.19	0.000756836	0.00724335
3135.65	-0.697632	-0.0178558
3136.11	0.000521851	0.00495422
3136.59	-0.000494385	0.00725128
3137.05	-0.698639	-0.0178528
3137.51	-0.000567627	0.00496185
3137.99	0.000375366	0.00724976
3138.45	-0.69809	-0.017868
3138.91	-0.000363159	0.00496063
3139.39	0.00050354	0.00724304
3139.85	-0.699158	-0.0178589
3140.31	0.000341797	0.00495422
3140.79	0.000790405	0.007229
3141.25	-0.697754	-0.0178894
3141.71	-0.000378418	0.00494873
3142.19	0.000610352	0.00721802
3142.65	-0.697784	-0.0178925
3143.11	0.000448608	0.00493042
3143.59	0.000289917	0.00720947
3144.05	-0.699005	-0.0178925
3144.51	-0.000210571	0.0049295
3144.99	-0.000238037	0.00721405
3145.45	-0.698334	-0.0178894
3145.91	-8.54492e-05	0.00492401
3146.39	0.000485229	0.00720398
3146.85	-0.698822	-0.0178925
3147.31	0.000695801	0.00492218
3147.79	-0.000393677	0.00721283
3148.25	-0.698578	-0.0178986
3148.71	-0.000259399	0.00492493
3149.19	-0.000515747	0.00721069
3149.65	-0.698303	-0.0178894
3150.11	-0.000354004	0.00493011
3150.59	-0.00050354	0.0072113
3151.05	-0.698944	-0.0178986
3151.51	0.00057373	0.00492676
3151.99	-0.00020752	0.00721283
3152.45	-0.697906	-0.0179108
3152.91	-0.000198364	0.00493378
3153.39	0.000521851	0.00720734
3153.85	-0.697998	-0.0179077
3154.31	-0.000216675	0.00493317
3154.79	-0.000491333	0.00722015
3155.25	-0.69873	-0.0178986
3155.71	-0.000268555	0.00493774
3156.19	0.000234985	0.00721222
3156.65	-0.6987	-0.0179016
3157.11	-0.000250244	0.00494019
3157.59	0.0006073	0.00721588
3158.05	-0.697754	-0.0179047
3158.51	0.000222778	0.00493774
3158.99	-0.000585937	0.00722595
3159.45	-0.698059	-0.0179077
3159.91	0.000741577	0.00493866
3160.39	1.83105e-05	0.00722168
3160.85	-0.699127	-0.0179047
3161.31	0.000268555	0.0049411
3161.79	0.000674438	0.00722412
3162.25	-0.699066	-0.0179047
3162.71	-0.000418091	0.00494751
3163.19	-0.000665283	0.0072287
3163.65	-0.697876	-0.0179077
3164.11	0.000271606	0.00494904
3164.59	6.10352e-06	0.00722168
3165.05	-0.697571	-0.0179077
3165.51	0.000814819	0.00494507
3165.99	0.000140381	0.007229
3166.45	-0.69809	-0.0179077
3166.91	-0.00017395	0.00495056
3167.39	0.000283813	0.00723419
3167.85	-0.697906	-0.0179138
3168.31	0.000820923	0.00494843
3168.79	-9.15527e-06	0.0072345
3169.25	-0.697693	-0.0179077
3169.71	0.000924683	0.00495361
3170.19	0.000564575	0.00722748
3170.65	-0.697754	-0.0179077
3171.11	0.000836182	0.00495361
3171.59	-0.000491333	0.00723572
3172.05	-0.698456	-0.0178925
3172.51	0.000512695	0.00496002
3172.99	-0.000540161	0.00723877
3173.45	-0.697632	-0.0178955
3173.91	-0.000491333	0.00496216
3174.39	-0.000320435	0.00723938
3174.85	-0.69873	-0.0179016
3175.31	-0.000436401	0.00496368
3175.79	-0.000341797	0.00723785
3176.25	-0.697906	-0.0178925
3176.71	-0.000427246	0.00496368
3177.19	0.000302124	0.00723236
3177.65	-0.698029	-0.0179077
3178.11	0.00062561	0.00495819
3178.59	0.000476074	0.00723114
3179.05	-0.697815	-0.0179016
3179.51	-0.000253296	0.00496429
3179.99	-6.40869e-05	0.00724304
3180.45	-0.698883	-0.0178986
3180.91	-0.000360107	0.00496796
3181.39	-0.000177002	0.00724121
3181.85	-0.698792	-0.0178894
3182.31	0.000415039	0.00496796
3182.79	0.00022583	0.00723083
3183.25	-0.698364	-0.0178894
3183.71	-0.000585937	0.00497375
3184.19	-0.000521851	0.00724365
3184.65	-0.699005	-0.0178894
3185.11	-0.000674438	0.00496979
3185.59	0.000628662	0.00723267
3186.05	-0.698883	-0.0178955
3186.51	0.00067749	0.00496307
3186.99	0.000360107	0.00723511
3187.45	-0.697662	-0.0178986
3187.91	0.000817871	0.00496307
3188.39	0.000561523	0.00723663
3188.85	-0.698761	-0.0179077
3189.31	0.000531006	0.00496826
3189.79	0.000631714	0.00723206
3190.25	-0.698883	-0.0178864
3190.71	-0.000250244	0.00497101
3191.19	-0.000402832	0.00724152
3191.65	-0.697906	-0.0178864
3192.11	-0.000570679	0.00497498
3192.59	0.000665283	0.00723206
3193.05	-0.698029	-0.0178955
3193.51	-0.000509644	0.00497528
3193.99	0.000784302	0.00723267
3194.45	-0.699036	-0.0178864
3194.91	-0.000286865	0.00497559
3195.39	0.000131226	0.00723206
3195.85	-0.698212	-0.0178986
3196.31	0.000158691	0.00497253
3196.79	7.62939e-05	0.00723389
3197.25	-0.697571	-0.0178925
3197.71	-0.000640869	0.0049762
3198.19	0.000460815	0.00723877
3198.65	-0.6987	-0.0178833
3199.11	-4.27246e-05	0.00497162
3199.59	0.000671387	0.00723511
3200.05	-0.698212	-0.0178864
3200.51	0.000567627	0.00497528
3200.99	0.000125122	0.00722992
3201.45	-0.698822	-0.0178833
3201.91	-0.000469971	0.00497772
3202.39	0.000378418	0.00723389
3202.85	-0.698029	-0.0178802
3203.31	0.000942993	0.00496979
3203.79	0.000747681	0.00722992
3204.25	-0.697662	-0.0178802
3204.71	0.00022583	0.00496918
3205.19	0.000387573	0.00722595
3205.65	-0.698242	-0.0178894
3206.11	-0.000192261	0.00497162
3206.59	-0.000418091	0.00722961
3207.05	-0.699097	-0.0178802
3207.51	-0.000476074	0.00497559
3207.99	-0.000112915	0.00723145
3208.45	-0.698059	-0.0178741
3208.91	0.000799561	0.00496552
3209.39	-0.000524902	0.00723145
3209.85	-0.698944	-0.0178833
3210.31	0.000152588	0.00497192
3210.79	-0.000183105	0.00723236
3211.25	-0.698792	-0.0178772
3211.71	-0.000552368	0.00497528
3212.19	0.000350952	0.0072229
3212.65	-0.697601	-0.0178772
3213.11	-0.000192261	0.00496826
3213.59	0.000500488	0.00722717
3214.05	-0.699097	-0.017868
3214.51	-0.000274658	0.00497284
3214.99	-1.52588e-05	0.00722595
3215.45	-0.698883	-0.017865
3215.91	0.000448608	0.00496277
3216.39	7.93457e-05	0.0072171
3216.85	-0.697723	-0.0178741
3217.31	0.000646973	0.0049646
3217.79	0.000106812	0.00721863
3218.25	-0.698273	-0.0178772
3218.71	0.00088501	0.00496552
3219.19	0.000585937	0.00721558
3219.65	-0.699127	-0.0178589
3220.11	0.000448608	0.00496674
3220.59	0.000143433	0.00721527
3221.05	-0.698975	-0.017865
3221.51	-0.000283813	0.00497253
3221.99	0.000598145	0.00721069
3222.45	-0.697754	-0.017868
3222.91	-6.10352e-05	0.00497101
3223.39	0.000558472	0.0072113
3223.85	-0.698761	-0.0178528
3224.31	0.000469971	0.0049646
3224.79	-0.000320435	0.00721649
3225.25	-0.698303	-0.0178558
3225.71	-9.15527e-06	0.0049704
3226.19	-0.000149536	0.00721039
3226.65	-0.698212	-0.0178558
3227.11	-0.00038147	0.00497162
3227.59	0.000372314	0.00720764
3228.05	-0.698608	-0.0178619
3228.51	0.00067749	0.00496399
3228.99	0.000634766	0.00720612
3229.45	-0.698578	-0.0178497
3229.91	0.000234985	0.00496552
3230.39	0.000564575	0.00720642
3230.85	-0.698853	-0.0178497
3231.31	0.000384521	0.00496857
3231.79	9.15527e-05	0.00720428
3232.25	-0.697876	-0.0178558
3232.71	0.000491333	0.00496552
3233.19	0.000396729	0.00720398
3233.65	-0.698303	-0.0178497
3234.11	0.000634766	0.00496613
3234.59	0.000265503	0.00720154
3235.05	-0.697815	-0.0178497
3235.51	0.000646973	0.00496185
3235.99	-0.000445557	0.00720886
3236.45	-0.697845	-0.0178528
3236.91	0.000701904	0.00496277
3237.39	0.000598145	0.00719971
3237.85	-0.699036	-0.0178436
3238.31	-0.000357056	0.00496704
3238.79	0.000323486	0.00719788
3239.25	-0.69809	-0.0178406
3239.71	-0.000259399	0.00496918
3240.19	0.000717163	0.00719666
3240.65	-0.697754	-0.0178467
3241.11	-0.000308228	0.00497009
3241.59	0.000784302	0.00719482
3242.05	-0.698853	-0.0178284
3242.51	2.74658e-05	0.00496429
3242.99	-0.000219727	0.00720245
3243.45	-0.698303	-0.0178314
3243.91	0.000387573	0.0049646
3244.39	-0.000631714	0.00720032
3244.85	-0.69873	-0.0178223
3245.31	0.000762939	0.00495911
3245.79	-0.000637817	0.00719666
3246.25	-0.699066	-0.0178223
3246.71	0.000985718	0.00496063
3247.19	0.000906372	0.00718719
3247.65	-0.698151	-0.0178253
3248.11	-0.000570679	0.00496704
3248.59	0.000814819	0.00718414
3249.05	-0.697632	-0.0178131
3249.51	-0.000628662	0.00496307
3249.99	0.000671387	0.00718353
3250.45	-0.699066	-0.0178131
3250.91	0.000393677	0.00496155
3251.39	0.000790405	0.00719574
3251.85	-0.697693	-0.0178528
3252.31	0.000772095	0.0049649
3252.79	-0.000506592	0.00720612
3253.25	-0.699127	-0.0178375
3253.71	-0.000305176	0.00497345
3254.19	-0.000646973	0.00720428
3254.65	-0.698669	-0.0178284
3255.11	0.000509644	0.00496918
3255.59	-0.000305176	0.00720154
3256.05	-0.698761	-0.0178467
3256.51	9.76562e-05	0.00497101
3256.99	0.000796509	0.00719055
3257.45	-0.698944	-0.0178223
3257.91	0.000650024	0.00496552
3258.39	-0.00062561	0.00719696
3258.85	-0.6987	-0.0178162
3259.31	-0.000183105	0.00496613
3259.79	0.000616455	0.00719208
3260.25	-0.698059	-0.0178314
3260.71	-0.000445557	0.00496918
3261.19	-0.000213623	0.00718964
3261.65	-0.698456	-0.0178223
3262.11	0.000238037	0.00497101
3262.59	-0.000415039	0.00719513
3263.05	-0.697632	-0.0178284
3263.51	0.000546265	0.00496704
3263.99	-0.00017395	0.00719177
3264.45	-0.699066	-0.0178131
3264.91	-0.000613403	0.00497314
3265.39	-0.000372314	0.00718994
3265.85	-0.699005	-0.0178253
3266.31	0.000305176	0.00496979
3266.79	-0.000622559	0.00719482
3267.25	-0.697693	-0.0178253
3267.71	0.000637817	0.00496368
3268.19	0.000759888	0.00718414
3268.65	-0.698608	-0.0178284
3269.11	-0.000427246	0.00497437
3269.59	0.000344849	0.00718384
3270.05	-0.697693	-0.0178284
3270.51	0.000872803	0.00496429
3270.99	0.000765991	0.00718323
3271.45	-0.698578	-0.0178101
3271.91	0.000888062	0.00496521
3272.39	0.000906372	0.00718445
3272.85	-0.697693	-0.0178192
3273.31	0.000820923	0.00496521
3273.79	-0.000671387	0.00719116
3274.25	-0.697693	-0.0178223
3274.71	0.000927734	0.00496521
3275.19	0.000115967	0.00717987
3275.65	-0.698303	-0.0178284
3276.11	-0.000152588	0.00497101
3276.59	-0.000601196	0.00719025
3277.05	-0.698029	-0.0178314
3277.51	0.000997925	0.00496918
3277.99	-0.000643921	0.00718903
3278.45	-0.698151	-0.0178192
3278.91	0.00045166	0.00496582
3279.39	-0.000674438	0.00718842
3279.85	-0.698822	-0.0178131
3280.31	-0.000619507	0.00497406
3280.79	0.000628662	0.00717865
3281.25	-0.698883	-0.017804
3281.71	0.000848389	0.00496552
3282.19	-0.00015564	0.00718597
3282.65	-0.697876	-0.0178162
3283.11	0.000170898	0.00497314
3283.59	-0.000149536	0.00718353
3284.05	-0.699127	-0.0178162
3284.51	0.000878906	0.00496643
3284.99	-0.000408936	0.00718811
3285.45	-0.69812	-0.0178253
3285.91	0.000262451	0.00497314
3286.39	0.000177002	0.00717896
3286.85	-0.698792	-0.017807
3287.31	0.000808716	0.00496796
3287.79	0.000946045	0.00717529
3288.25	-0.697876	-0.0178192
3288.71	0.000814819	0.00496704
3289.19	-0.000436401	0.00718719
3289.65	-0.697968	-0.0178223
3290.11	-0.000442505	0.00497162
3290.59	-5.18799e-05	0.00717651
3291.05	-0.698639	-0.0178101
3291.51	1.83105e-05	0.00497528
3291.99	0.00057373	0.00717804
3292.45	-0.698853	-0.0178101
3292.91	0.00088501	0.00497314
3293.39	-0.000723267	0.00718475
3293.85	-0.698273	-0.0178101
3294.31	-0.000564575	0.00497772
3294.79	-0.00062561	0.00718292
3295.25	-0.698181	-0.0178223
3295.71	9.15527e-05	0.00496857
3296.19	0.000753784	0.00717346
3296.65	-0.697571	-0.0178131
3297.11	0.00085144	0.00496887
3297.59	0.000689697	0.00717072
3298.05	-0.698669	-0.0177979
3298.51	0.000881958	0.00496765
3298.99	-0.000683594	0.00717834
3299.45	-0.697693	-0.017807
3299.91	0.000811768	0.00496735
3300.39	-0.000192261	0.00717163
3300.85	-0.698456	-0.0177979
3301.31	0.000775146	0.00496735
3301.79	-0.000457764	0.00717346
3302.25	-0.69809	-0.0177979
3302.71	-0.000482178	0.0049762
3303.19	-0.000140381	0.0071759
3303.65	-0.698578	-0.0178009
3304.11	-0.000158691	0.00497345
3304.59	0.000411987	0.00716522
3305.05	-0.699036	-0.0177917
3305.51	-0.000540161	0.00497284
3305.99	-3.05176e-06	0.00717438
3306.45	-0.697968	-0.017807
3306.91	3.66211e-05	0.00497131
3307.39	0.00072937	0.0071637
3307.85	-0.698212	-0.017804
3308.31	-0.000421143	0.00497437
3308.79	-0.000222778	0.00716309
3309.25	-0.697968	-0.0177979
3309.71	-0.000195313	0.00497437
3310.19	0.000427246	0.00716431
3310.65	-0.698853	-0.0177979
3311.11	-0.000463867	0.00497589
3311.59	0.000588989	0.00716003
3312.05	-0.697479	-0.0178009
3312.51	0.000814819	0.00496582
3312.99	0.000634766	0.00716064
3313.45	-0.698425	-0.0177948
3313.91	-0.000311279	0.00497406
3314.39	-0.000540161	0.00716949
3314.85	-0.699127	-0.0177887
3315.31	-0.000375366	0.00497559
3315.79	-0.00055542	0.00717041
3316.25	-0.698944	-0.0177917
3316.71	0.000866699	0.00496643
3317.19	-7.32422e-05	0.00716248
3317.65	-0.699158	-0.0177979
3318.11	-0.000106812	0.0049704
3318.59	-7.32422e-05	0.00716064
3319.05	-0.698303	-0.0177948
3319.51	0.000830078	0.00496521
3319.99	-0.000402832	0.00716736
3320.45	-0.699005	-0.0177887
3320.91	0.000836182	0.00496613
3321.39	-0.000518799	0.00716736
3321.85	-0.699036	-0.0177979
3322.31	0.000784302	0.00496582
3322.79	-6.10352e-05	0.0071637
3323.25	-0.699066	-0.0177826
3323.71	-0.000448608	0.00497711
3324.19	0.000216675	0.00715576
3324.65	-0.697723	-0.0177948
3325.11	0.00057373	0.0049707
3325.59	-4.27246e-05	0.00716492
3326.05	-0.698303	-0.0177917
3326.51	0.000665283	0.00497437
3326.99	0.000753784	0.00715973
3327.45	-0.699005	-0.0177979
3327.91	-0.000506592	0.00497986
3328.39	-0.000622559	0.00716827
3328.85	-0.698425	-0.0177979
3329.31	-1.52588e-05	0.00497314
3329.79	0.000421143	0.00716034
3330.25	-0.698669	-0.0177948
3330.71	-0.000552368	0.00497986
3331.19	9.46045e-05	0.00716278
3331.65	-0.698334	-0.0177948
3332.11	-0.000375366	0.00497894
3332.59	-0.000363159	0.00716583
3333.05	-0.697937	-0.0177948
3333.51	0.000238037	0.00498016
3333.99	0.000558472	0.00716064
3334.45	-0.697968	-0.017807
3334.91	-0.00032959	0.0049823
3335.39	0.000442505	0.00716339
3335.85	-0.699036	-0.0177948
3336.31	0.000601196	0.0049765
3336.79	-0.000119019	0.00716156
3337.25	-0.698669	-0.0177887
3337.71	0.000814819	0.00497437
3338.19	-0.00057373	0.00716675
3338.65	-0.698822	-0.0177856
3339.11	-0.000415039	0.00498138
3339.59	0.000808716	0.00715912
3340.05	-0.698212	-0.017807
3340.51	-0.000500488	0.00498505
3340.99	-0.000109863	0.00716705
3341.45	-0.697662	-0.0178009
3341.91	0.000738525	0.00497467
3342.39	-0.000189209	0.0071698
3342.85	-0.697571	-0.017807
3343.31	0.000692749	0.0049765
3343.79	0.000756836	0.00716309
3344.25	-0.697754	-0.017804
3344.71	0.000549316	0.0049765
3345.19	0.000524902	0.00716614
3345.65	-0.699005	-0.017804
3346.11	-0.000494385	0.00498688
3346.59	8.54492e-05	0.00716949
3347.05	-0.697845	-0.017804
3347.51	0.000375366	0.00497986
3347.99	0.000518799	0.0071637
3348.45	-0.697693	-0.0178131
3348.91	-0.000286865	0.00499084
3349.39	0.000772095	0.00716309
3349.85	-0.697632	-0.0178009
3350.31	0.000717163	0.0049823
3350.79	-0.000540161	0.00716888
3351.25	-0.697662	-0.017807
3351.71	0.000161743	0.00498932
3352.19	0.000753784	0.00716339
3352.65	-0.697754	-0.017804
3353.11	0.000848389	0.00498352
3353.59	-0.000354004	0.00716888
3354.05	-0.699127	-0.0177979
3354.51	0.000808716	0.00498627
3354.99	0.000369263	0.00716187
3355.45	-0.697662	-0.017807
3355.91	0.00078125	0.00498383
3356.39	-0.000418091	0.00717194
3356.85	-0.698364	-0.0177917
3357.31	0.000289917	0.00499268
3357.79	0.000906372	0.00716431
3358.25	-0.698425	-0.0177948
3358.71	-0.000479126	0.0049942
3359.19	-0.000500488	0.0071698
3359.65	-0.697876	-0.017807
3360.11	0.000674438	0.00498444
3360.59	0.000827026	0.00716492
3361.05	-0.697601	-0.0178009
3361.51	0.00039978	0.00498993
3361.99	3.05176e-06	0.00717072
3362.45	-0.698853	-0.0178009
3362.91	0.000854492	0.00499207
3363.39	0.000177002	0.00716949
3363.85	-0.698029	-0.0177948
3364.31	0.000561523	0.00498749
3364.79	0.000704956	0.00717896
3365.25	-0.6987	-0.0178162
3365.71	0.000958252	0.00499115
3366.19	-0.000518799	0.00718475
3366.65	-0.698425	-0.0178345
3367.11	0.00062561	0.0049884
3367.59	0.000500488	0.0071814
3368.05	-0.697784	-0.0178284
3368.51	-0.000595093	0.00499969
3368.99	0.000488281	0.00717651
3369.45	-0.699127	-0.0178253
3369.91	-0.000601196	0.00500092
3370.39	0.000463867	0.00717773
3370.85	-0.698364	-0.0178223
3371.31	0.000317383	0.00499329
3371.79	8.54492e-05	0.0071814
3372.25	-0.697662	-0.0178314
3372.71	0.000112915	0.00499939
3373.19	-0.000762939	0.00718689
3373.65	-0.698395	-0.0178284
3374.11	-0.000430298	0.00500366
3374.59	0.000338745	0.00717926
3375.05	-0.699005	-0.0178101
3375.51	0.000427246	0.00499939
3375.99	0.000909424	0.00717957
3376.45	-0.698334	-0.0178314
3376.91	0.00038147	0.00499573
3377.39	0.000802612	0.00717926
3377.85	-0.699097	-0.0178192
3378.31	0.000793457	0.00499847
3378.79	-0.000119019	0.00717834
3379.25	-0.698364	-0.0178192
3379.71	0.000900269	0.00499695
3380.19	0.000305176	0.00718445
3380.65	-0.698059	-0.0178162
3381.11	0.000268555	0.00500427
3381.59	0.000778198	0.0071817
3382.05	-0.698883	-0.0178223
3382.51	-0.000454712	0.00500763
3382.99	-0.000292969	0.00718506
3383.45	-0.697968	-0.0178253
3383.91	0.000170898	0.00499725
3384.39	0.000775146	0.00718018
3384.85	-0.698059	-0.0178223
3385.31	0.000790405	0.005
3385.79	0.000424194	0.00718567
3386.25	-0.697998	-0.0178375
3386.71	0.000949097	0.00499878
3387.19	0.000402832	0.00718658
3387.65	-0.697906	-0.0178253
3388.11	-0.000561523	0.00501099
3388.59	0.000280762	0.00718201
3389.05	-0.697754	-0.0178467
3389.51	-4.88281e-05	0.00501587
3389.99	0.000323486	0.00718475
3390.45	-0.698151	-0.0178528
3390.91	0.000793457	0.00499451
3391.39	0.000320435	0.00717377
3391.85	-0.697662	-0.0178772
3392.31	-0.000491333	0.00500122
3392.79	-0.000610352	0.0071817
3393.25	-0.699188	-0.0178802
3393.71	-0.000570679	0.00500061
3394.19	-0.000286865	0.00717651
3394.65	-0.698944	-0.017868
3395.11	0.00032959	0.00499573
3395.59	0.000784302	0.00717316
3396.05	-0.698975	-0.0178864
3396.51	-0.00062561	0.00500061
3396.99	-0.00045166	0.00717834
3397.45	-0.698944	-0.0178772
3397.91	2.44141e-05	0.00500092
3398.39	-0.000274658	0.00718414
3398.85	-0.699127	-0.0178802
3399.31	3.66211e-05	0.00499542
3399.79	-0.000576782	0.00717987
3400.25	-0.698669	-0.0178864
3400.71	0.00045166	0.00499847
3401.19	-2.74658e-05	0.00718323
3401.65	-0.697968	-0.0178864
3402.11	-0.000125122	0.00500519
3402.59	0.000756836	0.00717499
3403.05	-0.697571	-0.0178864
3403.51	-0.000509644	0.0050061
3403.99	-0.000650024	0.00718628
3404.45	-0.697662	-0.0178925
3404.91	0.00100098	0.00499908
3405.39	-0.000146484	0.00718842
3405.85	-0.699036	-0.0178864
3406.31	0.000808716	0.00500122
3406.79	0.000494385	0.00717865
3407.25	-0.699127	-0.0178833
3407.71	0.000918579	0.00500519
3408.19	-0.00050354	0.00718781
3408.65	-0.699188	-0.0178833
3409.11	0.000796509	0.00500061
3409.59	-6.10352e-06	0.00718597
3410.05	-0.697815	-0.0178925
3410.51	-0.00045166	0.00500549
3410.99	0.000817871	0.00718018
3411.45	-0.697876	-0.0179016
3411.91	-0.000604248	0.00501343
3412.39	-4.27246e-05	0.00718719
3412.85	-0.698303	-0.0178894
3413.31	-0.000634766	0.00501587
3413.79	0.000140381	0.00718506
3414.25	-0.698639	-0.0178864
3414.71	0.000619507	0.00500885
3415.19	0.000698853	0.00718414
3415.65	-0.699036	-0.0178955
3416.11	0.000778198	0.0050061
3416.59	-0.000146484	0.00718872
3417.05	-0.699249	-0.0178986
3417.51	0.000195313	0.00501068
3417.99	-7.62939e-05	0.00718781
3418.45	-0.697937	-0.0178986
3418.91	-0.000393677	0.00501831
3419.39	-0.000271606	0.00719147
3419.85	-0.69809	-0.0178894
3420.31	-4.27246e-05	0.00501526
3420.79	0.000448608	0.00719147
3421.25	-0.698883	-0.0178833
3421.71	0.000244141	0.00501404
3422.19	0.000341797	0.00718689
3422.65	-0.698547	-0.0179016
3423.11	-0.000588989	0.00502258
3423.59	-0.000128174	0.00718658
3424.05	-0.699005	-0.0178864
3424.51	-0.000595093	0.00502197
3424.99	-0.000161743	0.00719391
3425.45	-0.699158	-0.0178833
3425.91	0.000759888	0.00501129
3426.39	-0.000762939	0.0071936
3426.85	-0.699097	-0.0178894
3427.31	-0.000149536	0.00502197
3427.79	1.83105e-05	0.00719421
3428.25	-0.6987	-0.0178833
3428.71	0.000717163	0.00501282
3429.19	0.000784302	0.00718994
3429.65	-0.697906	-0.0178955
3430.11	-0.000106812	0.0050174
3430.59	-0.000482178	0.00719208
3431.05	-0.6987	-0.0178894
3431.51	0.000897217	0.00501801
3431.99	-0.000759888	0.00719208
3432.45	-0.697632	-0.0178955
3432.91	-0.000369263	0.00502319
3433.39	-0.000228882	0.0071936
3433.85	-0.698761	-0.0178986
3434.31	-0.000732422	0.00502319
3434.79	0.000750732	0.00718231
3435.25	-0.697571	-0.0178925
3435.71	-0.000421143	0.00502289
3436.19	0.000384521	0.00718842
3436.65	-0.698975	-0.0178864
3437.11	-0.000494385	0.00501892
3437.59	-0.00022583	0.00719086
3438.05	-0.698914	-0.0178772
3438.51	0.000598145	0.00501465
3438.99	-0.000656128	0.00719055
3439.45	-0.697571	-0.0178925
3439.91	-0.000189209	0.00501587
3440.39	0.00055542	0.00718079
3440.85	-0.697815	-0.0178955
3441.31	-0.00032959	0.00502045
3441.79	0.0006073	0.00718231
3442.25	-0.697571	-0.0178925
3442.71	3.35693e-05	0.00501465
3443.19	0.000726318	0.00717987
3443.65	-0.698761	-0.0178711
3444.11	0.000863647	0.00501526
3444.59	-0.000518799	0.00718903
3445.05	-0.698517	-0.0178772
3445.51	-1.52588e-05	0.00502533
3445.99	-0.000558472	0.00718658
3446.45	-0.699036	-0.0178741
3446.91	0.000845337	0.00501251
3447.39	-1.2207e-05	0.0071817
3447.85	-0.697632	-0.0178833
3448.31	0.000561523	0.00502136
3448.79	0.000500488	0.00717926
3449.25	-0.699127	-0.0178986
3449.71	-0.000595093	0.00502594
3450.19	0.000280762	0.00719116
3450.65	-0.698517	-0.0179077
3451.11	0.000823975	0.00501801
3451.59	0.000674438	0.00719452
3452.05	-0.698059	-0.0179199
3452.51	0.000845337	0.0050177
3452.99	0.000689697	0.00719391
3453.45	-0.699097	-0.0179047
3453.91	-0.000222778	0.00502228
3454.39	-0.000579834	0.0071994
3454.85	-0.697632	-0.0179169
3455.31	0.00057373	0.00502106
3455.79	-0.000183105	0.00720154
3456.25	-0.697723	-0.017923
3456.71	0.00067749	0.00501709
3457.19	0.000119019	0.00719604
3457.65	-0.697754	-0.0179291
3458.11	0.000869751	0.00501892
3458.59	0.000213623	0.00720215
3459.05	-0.697754	-0.017926
3459.51	-0.000201416	0.0050293
3459.99	0.000485229	0.00719971
3460.45	-0.69754	-0.017923
3460.91	0.000161743	0.0050238
3461.39	-0.000665283	0.00720001
3461.85	-0.698792	-0.0179321
3462.31	0.000863647	0.00502136
3462.79	0.000784302	0.00719543
3463.25	-0.697632	-0.0179291
3463.71	0.000796509	0.00502228
3464.19	0.000866699	0.00720032
3464.65	-0.697723	-0.0179352
3465.11	0.000161743	0.00502991
3465.59	-0.000198364	0.00720581
3466.05	-0.698914	-0.0179321
3466.51	0.000296021	0.00503204
3466.99	-0.000610352	0.00720795
3467.45	-0.699005	-0.017926
3467.91	-8.54492e-05	0.0050293
3468.39	0.000521851	0.00720032
3468.85	-0.697906	-0.0179352
3469.31	3.96729e-05	0.00502563
3469.79	-0.000442505	0.00721252
3470.25	-0.698517	-0.0179443
3470.71	-9.46045e-05	0.0050354
3471.19	0.000216675	0.00720947
3471.65	-0.698608	-0.0179443
3472.11	-0.000161743	0.00503387
3472.59	0.000302124	0.00720825
3473.05	-0.69873	-0.0179413
3473.51	0.00071106	0.00503387
3473.99	-0.00010376	0.00721741
3474.45	-0.697815	-0.0179718
3474.91	-0.000592041	0.00504303
3475.39	-0.000460815	0.00721619
3475.85	-0.699249	-0.0179596
3476.31	0.000765991	0.00503235
3476.79	0.000823975	0.00721252
3477.25	-0.699158	-0.0179565
3477.71	0.000881958	0.00503601
3478.19	0.000430298	0.00721619
3478.65	-0.69812	-0.0179535
3479.11	-0.000402832	0.00504547
3479.59	-0.000650024	0.00722168
3480.05	-0.697571	-0.0179718
3480.51	-0.00062561	0.00504639
3480.99	-0.000357056	0.00721771
3481.45	-0.697632	-0.0179626
3481.91	-0.000177002	0.00504303
3482.39	-0.000579834	0.0072226
3482.85	-0.697784	-0.0179779
3483.31	9.76562e-05	0.0050473
3483.79	0.000567627	0.00721893
3484.25	-0.699097	-0.0179718
3484.71	0.000341797	0.00504211
3485.19	-0.00043335	0.00721985
3485.65	-0.69809	-0.017984
3486.11	0.000527954	0.00504425
3486.59	0.000802612	0.00721741
3487.05	-0.698395	-0.0179718
3487.51	-0.000521851	0.00504974
3487.99	-0.000500488	0.00722992
3488.45	-0.699005	-0.017984
3488.91	0.000521851	0.00504364
3489.39	-0.000637817	0.00722992
3489.85	-0.698517	-0.01796875
3490.31	4.88281e-05	0.00505005
3490.79	-0.000299072	0.00723236
3491.25	-0.69812	-0.0179871
3491.71	-0.000546265	0.0050528
3492.19	-1.52588e-05	0.0072287
3492.65	-0.698975	-0.0179749
3493.11	0.000802612	0.00504547
3493.59	0.000820923	0.00722687
3494.05	-0.698547	-0.017984
3494.51	0.000875854	0.005047
3494.99	0.000692749	0.00722015
3495.45	-0.698059	-0.017981
3495.91	0.000494385	0.00504578
3496.39	-0.000622559	0.00723175
3496.85	-0.698242	-0.017984
3497.31	0.000900269	0.00504639
3497.79	0.000714111	0.00721924
3498.25	-0.698669	-0.0179779
3498.71	0.000854492	0.00504639
3499.19	0.000610352	0.00722168
3499.65	-0.698181	-0.0179993
3500.11	0.000845337	0.00504944
3500.59	9.15527e-05	0.00722687
3501.05	-0.697754	-0.0179962
3501.51	-0.000338745	0.00505646
3501.99	-0.000784302	0.0072348
3502.45	-0.698395	-0.0179901
3502.91	-0.00057373	0.00506409
3503.39	-0.000515747	0.00723938
3503.85	-0.697937	-0.0180145
3504.31	0.000985718	0.00505493
3504.79	-0.00010376	0.00723694
3505.25	-0.6987	-0.0179993
3505.71	0.000799561	0.00505402
3506.19	0.000775146	0.00722809
3506.65	-0.697968	-0.0180023
3507.11	0.000912476	0.00505829
3507.59	0.000881958	0.00723236
3508.05	-0.698364	-0.0180145
3508.51	0.000756836	0.00505829
3508.99	0.000582886	0.00723846
3509.45	-0.698456	-0.0180084
3509.91	0.000323486	0.00505798
3510.39	-0.000695801	0.00724609
3510.85	-0.698944	-0.0180115
3511.31	-0.00043335	0.00506744
3511.79	0.000457764	0.00723755
3512.25	-0.698975	-0.0180145
3512.71	-0.000402832	0.00506714
3513.19	0.000723267	0.00724091
3513.65	-0.698059	-0.0180206
3514.11	-0.000106812	0.00507446
3514.59	-0.000680542	0.00725403
3515.05	-0.697601	-0.0180298
3515.51	-0.00067749	0.00507507
3515.99	-0.000430298	0.00725098
3516.45	-0.698608	-0.0180267
3516.91	0.000741577	0.00506927
3517.39	-0.000692749	0.00725372
3517.85	-0.697662	-0.0180481
3518.31	0.000765991	0.00506775
3518.79	2.13623e-05	0.00725403
3519.25	-0.698425	-0.0180328
3519.71	0.000869751	0.00506958
3520.19	-0.000698853	0.00725769
3520.65	-0.698669	-0.0180359
3521.11	-6.10352e-06	0.005078125
3521.59	0.00050354	0.00724823
3522.05	-0.699158	-0.0180481
3522.51	0.000900269	0.00507294
3522.99	-0.000244141	0.0072525
3523.45	-0.698975	-0.0180481
3523.91	0.000100708	0.00507538
3524.39	-0.000588989	0.00726044
3524.85	-0.698578	-0.0180359
3525.31	-0.000158691	0.00507782
3525.79	-9.15527e-05	0.00725861
3526.25	-0.697906	-0.0180511
3526.71	0.000604248	0.00507843
3527.19	0.000387573	0.00725342
3527.65	-0.69754	-0.0180573
3528.11	0.000686646	0.00507446
3528.59	-0.000546265	0.007258
3529.05	-0.698822	-0.0180389
3529.51	-9.15527e-06	0.0050827
3529.99	-0.000186157	0.00725586
3530.45	-0.697906	-0.0180481
3530.91	-0.00027771	0.00508148
3531.39	-0.000524902	0.00726318
3531.85	-0.697906	-0.0180664
3532.31	0.000115967	0.00508209
3532.79	2.74658e-05	0.00726257
3533.25	-0.697723	-0.0180634
3533.71	-0.000369263	0.00508881
3534.19	0.000650024	0.00726624
3534.65	-0.698853	-0.0180573
3535.11	0.000860596	0.00508179
3535.59	-0.000421143	0.00726929
3536.05	-0.697723	-0.0180786
3536.51	0.000595093	0.00508087
3536.99	-0.000784302	0.00727142
3537.45	-0.698853	-0.0180634
3537.91	0.000244141	0.00508301
3538.39	0.000827026	0.00726044
3538.85	-0.699066	-0.0180725
3539.31	0.000152588	0.00508331
3539.79	0.000576782	0.00726868
3540.25	-0.698059	-0.0180756
3540.71	-0.00062561	0.00509308
3541.19	0.000259399	0.007265625
3541.65	-0.698639	-0.0180786
3542.11	-0.000454712	0.00509033
3542.59	-2.44141e-05	0.00726532
3543.05	-0.6987	-0.0180756
3543.51	-1.2207e-05	0.00509125
3543.99	-0.000234985	0.00727081
3544.45	-0.697906	-0.0180847
3544.91	-0.000161743	0.00509918
3545.39	-0.000808716	0.0072757
3545.85	-0.697693	-0.0180939
3546.31	0.000848389	0.00509064
3546.79	0.000720215	0.00726837
3547.25	-0.699158	-0.0180756
3547.71	-0.000738525	0.00509583
3548.19	-0.000369263	0.00726898
3548.65	-0.697571	-0.0180878
3549.11	0.000872803	0.00508911
3549.59	0.000521851	0.00726776
3550.05	-0.69754	-0.0180847
3550.51	3.66211e-05	0.00509033
3550.99	-6.10352e-06	0.00727203
3551.45	-0.698364	-0.0181
3551.91	0.000863647	0.00509369
3552.39	0.000646973	0.007276
3552.85	-0.698883	-0.0180908
3553.31	-0.000714111	0.00510437
3553.79	-0.000772095	0.00728699
3554.25	-0.699158	-0.0181122
3554.71	0.000756836	0.00509918
3555.19	0.000775146	0.00728271
3555.65	-0.699097	-0.0181152
3556.11	0.00100403	0.00510284
3556.59	0.000476074	0.00728363
3557.05	-0.697662	-0.0181213
3557.51	-0.000515747	0.00511292
3557.99	0.000222778	0.00728516
3558.45	-0.699127	-0.0181152
3558.91	-0.00055542	0.00511475
3559.39	-0.000656128	0.00729462
3559.85	-0.698242	-0.0181305
3560.31	-0.000515747	0.00511505
3560.79	0.000778198	0.00728394
3561.25	-0.697845	-0.0181244
3561.71	0.000939941	0.0051062
3562.19	-0.000747681	0.00729797
3562.65	-0.69751	-0.0181305
3563.11	-0.000622559	0.00511627
3563.59	-0.000753784	0.00729767
3564.05	-0.697815	-0.0181305
3564.51	0.000692749	0.00511292
3564.99	0.000350952	0.00729004
3565.45	-0.699066	-0.0181244
3565.91	-0.000247192	0.00511871
3566.39	0.000759888	0.00728699
3566.85	-0.697998	-0.0181396
3567.31	-0.000354004	0.0051178
3567.79	-0.000601196	0.00729828
3568.25	-0.697449	-0.0181305
3568.71	0.000787354	0.00511139
3569.19	0.000689697	0.00729187
3569.65	-0.698517	-0.0181396
3570.11	0.000878906	0.00510925
3570.59	0.000717163	0.00728973
3571.05	-0.698547	-0.0181183
3571.51	-0.000283813	0.00511841
3571.99	0.000546265	0.00728485
3572.45	-0.697632	-0.0181396
3572.91	-0.000274658	0.00511871
3573.39	-0.0006073	0.00729797
3573.85	-0.698151	-0.0181396
3574.31	-0.000259399	0.00511597
3574.79	0.000314331	0.00728516
3575.25	-0.697968	-0.0181274
3575.71	0.00010376	0.00511475
3576.19	-0.000106812	0.00729126
3576.65	-0.698212	-0.0181213
3577.11	-0.000595093	0.00512329
3577.59	0.000549316	0.00728424
3578.05	-0.698425	-0.0181335
3578.51	-0.000393677	0.00512207
3578.99	-0.00039978	0.00729614
3579.45	-0.697876	-0.0181366
3579.91	0.00101318	0.00511261
3580.39	0.000671387	0.00729309
3580.85	-0.698975	-0.0181244
3581.31	0.000784302	0.00511597
3581.79	0.000442505	0.00729279
3582.25	-0.697601	-0.0181366
3582.71	0.000891113	0.00511353
3583.19	-0.000115967	0.0072937
3583.65	-0.698517	-0.0181274
3584.11	-0.00027771	0.00512482
3584.59	-0.000674438	0.0072998
3585.05	-0.697662	-0.0181335
3585.51	1.2207e-05	0.00512634
3585.99	-0.000238037	0.00729279
3586.45	-0.697693	-0.0181274
3586.91	0.000817871	0.00511566
3587.39	0.00067749	0.00729187
3587.85	-0.698792	-0.0181366
3588.31	0.000457764	0.00511719
3588.79	0.000753784	0.00729095
3589.25	-0.697723	-0.0181305
3589.71	0.000418091	0.00511871
3590.19	0.000546265	0.00729309
3590.65	-0.698639	-0.0181335
3591.11	0.000796509	0.00512115
3591.59	-0.000695801	0.00729828
3592.05	-0.699188	-0.0181335
3592.51	-0.000537109	0.00512848
3592.99	0.000448608	0.00729187
3593.45	-0.697815	-0.0181396
3593.91	-0.000335693	0.00512878
3594.39	-0.000735474	0.00729858
3594.85	-0.699097	-0.0181274
3595.31	0.000128174	0.00512543
3595.79	-0.000683594	0.00729492
3596.25	-0.697693	-0.0181427
3596.71	-0.000527954	0.00513031
3597.19	0.000146484	0.00729462
3597.65	-0.698395	-0.0181244
3598.11	-2.13623e-05	0.00512756
3598.59	-0.000735474	0.00729858
3599.05	-0.69754	-0.0181305
3599.51	0.000521851	0.00512329
3599.99	-0.000637817	0.00729706
3600.45	-0.698944	-0.0181244
3600.91	0.00085144	0.00512207
3601.39	-0.000827026	0.00729584
3601.85	-0.697968	-0.0181305
3602.31	-0.000479126	0.00513092
3602.79	-0.000723267	0.00729492
3603.25	-0.698944	-0.0181244
3603.71	0.000509644	0.00512787
3604.19	-0.000192261	0.00729736
3604.65	-0.697723	-0.0181458
3605.11	0.000921631	0.00512085
3605.59	0.00085144	0.00728546
3606.05	-0.697937	-0.0181335
3606.51	-0.00065918	0.00513184
3606.99	-0.000643921	0.00729095
3607.45	-0.697937	-0.0181366
3607.91	0.000772095	0.00512177
3608.39	0.000268555	0.00728973
3608.85	-0.698944	-0.0181274
3609.31	-0.000177002	0.00513184
3609.79	-0.000494385	0.00729736
3610.25	-0.698578	-0.0181274
3610.71	0.000405884	0.00512665
3611.19	-0.000524902	0.00729553
3611.65	-0.699005	-0.0181274
3612.11	-0.000665283	0.00513214
3612.59	0.000820923	0.00728455
3613.05	-0.699158	-0.0181244
3613.51	0.00015564	0.00512939
3613.99	0.000317383	0.00728271
3614.45	-0.698486	-0.0181335
3614.91	-0.00045166	0.00512909
3615.39	-0.000354004	0.00729401
3615.85	-0.699188	-0.0181244
3616.31	0.000289917	0.00513031
3616.79	-0.000161743	0.00728729
3617.25	-0.697479	-0.0181366
3617.71	-0.000497437	0.00513275
3618.19	-0.000512695	0.00728973
3618.65	-0.697968	-0.0181305
3619.11	0.000906372	0.00512482
3619.59	-0.00020752	0.00729126
3620.05	-0.697754	-0.0181396
3620.51	-0.000253296	0.00513367
3620.99	-0.000341797	0.00728882
3621.45	-0.699188	-0.0181274
3621.91	0.00078125	0.00512756
3622.39	-0.000106812	0.00729492
3622.85	-0.697876	-0.0181488
3623.31	0.000784302	0.00513031
3623.79	0.000387573	0.0072876
3624.25	-0.697815	-0.0181488
3624.71	0.000921631	0.0051297
3625.19	0.000378418	0.0072876
3625.65	-0.698425	-0.0181396
3626.11	-0.000460815	0.00514008
3626.59	0.000146484	0.00729523
3627.05	-0.699188	-0.0181396
3627.51	-0.000479126	0.00513916
3627.99	-0.000402832	0.00729218
3628.45	-0.698181	-0.0181427
3628.91	0.000881958	0.00513
3629.39	9.76562e-05	0.00729065
3629.85	-0.697693	-0.0181427
3630.31	0.000930786	0.00513123
3630.79	-0.000756836	0.00729492
3631.25	-0.698425	-0.0181366
3631.71	-0.000579834	0.00514374
3632.19	-0.000131226	0.00729828
3632.65	-0.699127	-0.0181396
3633.11	-0.000338745	0.00514404
3633.59	-0.000839233	0.00729919
3634.05	-0.698883	-0.0181427
3634.51	0.000897217	0.00513397
3634.99	-0.000720215	0.00730042
3635.45	-0.69754	-0.0181549
3635.91	7.32422e-05	0.00514709
3636.39	-0.000753784	0.00730225
3636.85	-0.697601	-0.0181641
3637.31	-0.000106812	0.0051416
3637.79	-0.000646973	0.00730621
3638.25	-0.697571	-0.018158
3638.71	8.8501e-05	0.00514679
3639.19	0.00055542	0.00729553
3639.65	-0.69754	-0.0181641
3640.11	-0.000289917	0.00514282
3640.59	0.000823975	0.00729828
3641.05	-0.699066	-0.018158
3641.51	9.76562e-05	0.0051474
3641.99	0.000830078	0.00729889
3642.45	-0.69751	-0.018161
3642.91	0.000863647	0.00513885
3643.39	0.000341797	0.00730347
3643.85	-0.698151	-0.0181641
3644.31	-3.35693e-05	0.00514618
3644.79	-0.000604248	0.00730957
3645.25	-0.69751	-0.0181732
3645.71	-0.00055542	0.00515045
3646.19	-0.000628662	0.00731049
3646.65	-0.69754	-0.0181732
3647.11	0.000350952	0.00514496
3647.59	-0.000634766	0.00731171
3648.05	-0.699249	-0.0181671
3648.51	0.000244141	0.00514801
3648.99	0.00055542	0.00730835
3649.45	-0.698944	-0.0181732
3649.91	5.49316e-05	0.00515106
3650.39	-0.000314331	0.00731598
3650.85	-0.698486	-0.0181854
3651.31	0.000317383	0.0051474
3651.79	0.000183105	0.00730896
3652.25	-0.697632	-0.0181976
3652.71	1.83105e-05	0.00515137
3653.19	0.000793457	0.00731049
3653.65	-0.697815	-0.0181976
3654.11	-0.000430298	0.00515808
3654.59	-9.46045e-05	0.00731995
3655.05	-0.697784	-0.0181854
3655.51	0.000814819	0.00514862
3655.99	-0.000598145	0.00732117
3656.45	-0.699219	-0.0181885
3656.91	0.000662231	0.00514984
3657.39	0.000491333	0.00731079
3657.85	-0.699127	-0.0181885
3658.31	-0.000183105	0.00516022
3658.79	0.000805664	0.00731506
3659.25	-0.697876	-0.0182068
3659.71	-0.000619507	0.00516052
3660.19	0.000338745	0.00732513
3660.65	-0.69751	-0.0182098
3661.11	0.000836182	0.00515411
3661.59	0.000640869	0.00731567
3662.05	-0.697571	-0.018222
3662.51	0.0009765625	0.00515533
3662.99	0.000866699	0.0073288
3663.45	-0.69873	-0.0182159
3663.91	-0.000622559	0.00516602
3664.39	-0.000494385	0.00733551
3664.85	-0.698059	-0.0182281
3665.31	-0.00012207	0.00516632
3665.79	-0.000479126	0.00733826
3666.25	-0.697845	-0.0182404
3666.71	-0.000146484	0.00516144
3667.19	-0.000238037	0.00733124
3667.65	-0.698181	-0.0182251
3668.11	-0.000738525	0.00516571
3668.59	0.000802612	0.00732727
3669.05	-0.698151	-0.0182281
3669.51	0.000906372	0.00515747
3669.99	0.000180054	0.00733368
3670.45	-0.698059	-0.0182465
3670.91	0.000991821	0.0051593
3671.39	0.000216675	0.00733398
3671.85	-0.697968	-0.0182465
3672.31	-0.000561523	0.00516785
3672.79	-0.000247192	0.00733276
3673.25	-0.697906	-0.0182465
3673.71	0.000680542	0.00516479
3674.19	0.00032959	0.00733124
3674.65	-0.69754	-0.0182434
3675.11	0.000900269	0.0051593
3675.59	0.000390625	0.00733368
3676.05	-0.698395	-0.0182526
3676.51	0.000112915	0.00516205
3676.99	0.00045166	0.00733185
3677.45	-0.697479	-0.0182526
3677.91	0.000799561	0.00516174
3678.39	-0.000256348	0.00734314
3678.85	-0.699066	-0.0182495
3679.31	0.00010376	0.00516418
3679.79	0.000366211	0.00733887
3680.25	-0.699219	-0.0182587
3680.71	-0.000317383	0.00517334
3681.19	0.00050354	0.00733978
3681.65	-0.698517	-0.0182556
3682.11	-0.000561523	0.00517548
3682.59	-0.000595093	0.00734711
3683.05	-0.698029	-0.0182648
3683.51	-0.000506592	0.00517639
3683.99	-0.000613403	0.00734894
3684.45	-0.698273	-0.01828
3684.91	0.000680542	0.00516724
3685.39	0.000741577	0.00733978
3685.85	-0.698456	-0.0182678
3686.31	0.000366211	0.00517487
3686.79	0.000836182	0.00734161
3687.25	-0.698547	-0.0182861
3687.71	0.000588989	0.00517365
3688.19	-3.96729e-05	0.00735168
3688.65	-0.697418	-0.0182831
3689.11	0.000427246	0.0051712
3689.59	-0.000195313	0.0073526
3690.05	-0.697662	-0.0182953
3690.51	-0.000613403	0.00518005
3690.99	0.000564575	0.0073468
3691.45	-0.697479	-0.0182861
3691.91	-0.000326538	0.00517731
3692.39	0.000201416	0.00735107
3692.85	-0.697723	-0.0182983
3693.31	3.66211e-05	0.00517731
3693.79	-0.000558472	0.00735626
3694.25	-0.697754	-0.0183014
3694.71	-0.000158691	0.0051828
3695.19	-0.000790405	0.00735565
3695.65	-0.698029	-0.0183044
3696.11	-9.76562e-05	0.00518005
3696.59	-0.000527954	0.00735504
3697.05	-0.699127	-0.0182983
3697.51	0.00078125	0.00517609
3697.99	-0.000689697	0.00735291
3698.45	-0.697937	-0.0183105
3698.91	-0.000115967	0.00518097
3699.39	-0.000317383	0.00735809
3699.85	-0.699158	-0.0183075
3700.31	0.000891113	0.00517914
3700.79	-0.000588989	0.00736206
3701.25	-0.698883	-0.0183044
3701.71	0.000238037	0.00518463
3702.19	4.57764e-05	0.00735626
3702.65	-0.699127	-0.0183075
3703.11	0.000912476	0.00517853
3703.59	-8.8501e-05	0.00735199
3704.05	-0.69751	-0.0183167
3704.51	-6.40869e-05	0.00518372
3704.99	-0.000650024	0.00736176
3705.45	-0.698944	-0.0183044
3705.91	0.000778198	0.00518677
3706.39	0.000531006	0.00735016
3706.85	-0.699097	-0.0183075
3707.31	0.000234985	0.00518768
3707.79	0.000131226	0.00735443
3708.25	-0.698914	-0.0183044
3708.71	0.000305176	0.00518097
3709.19	-0.00067749	0.0073642
3709.65	-0.69873	-0.0183136
3710.11	0.000854492	0.0051825
3710.59	-0.000473022	0.00736298
3711.05	-0.698669	-0.0183228
3711.51	-0.000701904	0.00519379
3711.99	0.000805664	0.00734985
3712.45	-0.698273	-0.0183197
3712.91	0.000167847	0.00518494
3713.39	0.000662231	0.00734955
3713.85	-0.697662	-0.0183197
3714.31	0.000564575	0.00518188
3714.79	0.000769043	0.00735107
3715.25	-0.698364	-0.0183319
3715.71	-0.000592041	0.00519409
3716.19	-0.000692749	0.00736176
3716.61	6.40869e-05	0.00386536