File: Edgar/20240607/20240607/electrodeposition_pulsed_potential_20240607_B/pulses_1000_to_2000.txt
Time (s)	WE(1).Potential (V)	WE(1).Current (A)
890.148	-0.697632	-0.019696
890.608	0.000628662	0.00270691
891.088	-0.000744629	0.00892334
891.548	-0.698029	-0.0188599
892.008	0.000140381	0.00303162
892.488	0.000531006	0.00903015
892.948	-0.697754	-0.0188232
893.408	-0.00039978	0.00308746
893.888	-0.000808716	0.00907593
894.348	-0.697449	-0.0187988
894.808	0.000811768	0.00311188
895.288	-0.000430298	0.00910034
895.748	-0.69754	-0.0187927
896.208	-0.000326538	0.0031369
896.688	0.000662231	0.00909729
897.148	-0.698975	-0.0187683
897.608	0.000671387	0.00314392
898.088	0.000421143	0.00911865
898.548	-0.698639	-0.0187805
899.008	-0.000662231	0.00316498
899.488	3.35693e-05	0.00912476
899.948	-0.697845	-0.0187744
900.408	-0.000540161	0.00317657
900.888	-0.000466919	0.00911255
901.348	-0.698944	-0.0187653
901.808	0.000872803	0.00317596
902.288	-0.000112915	0.00911255
902.748	-0.698425	-0.0187714
903.208	0.000100708	0.00319244
903.688	0.00067749	0.0091156
904.148	-0.698425	-0.0187744
904.608	-9.15527e-06	0.00319672
905.088	-0.000662231	0.00913086
905.548	-0.697876	-0.0187683
906.008	0.000100708	0.003203125
906.488	0.000717163	0.00912476
906.948	-0.698822	-0.0187622
907.408	0.000177002	0.00321655
907.888	-0.000271606	0.00911865
908.348	-0.69754	-0.0187622
908.808	0.000970459	0.00321411
909.288	-0.000787354	0.00912476
909.748	-0.697662	-0.0187622
910.208	0.000891113	0.00321838
910.688	-0.000701904	0.0091217
911.148	-0.699066	-0.0187531
911.608	-0.000561523	0.00323364
912.088	0.000393677	0.0091156
912.548	-0.698669	-0.0187622
913.008	8.23975e-05	0.00323303
913.488	-0.00015564	0.00911865
913.948	-0.697968	-0.0187531
914.408	-0.000564575	0.00324524
914.888	0.00015564	0.00912476
915.348	-0.698883	-0.0187592
915.808	-9.46045e-05	0.00324249
916.288	0.000744629	0.0091156
916.748	-0.698792	-0.0187561
917.208	8.8501e-05	0.00324402
917.688	-0.000280762	0.0091095
918.148	-0.698761	-0.0187469
918.608	0.000405884	0.00325409
919.088	0.000509644	0.00910645
919.548	-0.697968	-0.0187469
920.008	-0.000518799	0.00326355
920.488	0.000622559	0.00911255
920.948	-0.697418	-0.01875
921.408	0.000897217	0.00325958
921.888	9.15527e-05	0.00910339
922.348	-0.697601	-0.0187561
922.808	-0.000326538	0.00327271
923.288	2.44141e-05	0.0091156
923.748	-0.698669	-0.01875
924.208	0.000939941	0.0032666
924.688	-0.000653076	0.0091156
925.148	-0.697937	-0.0187653
925.608	-0.000582886	0.00328217
926.088	0.00065918	0.00910645
926.548	-0.698822	-0.0187439
927.008	-0.000558472	0.0032843
927.488	0.000640869	0.0091095
927.948	-0.698761	-0.0187531
928.408	-3.66211e-05	0.00328552
928.888	0.000213623	0.0091156
929.348	-0.699005	-0.0187592
929.808	0.000900269	0.00328461
930.288	-0.000323486	0.0091156
930.748	-0.697388	-0.0187622
931.208	0.000881958	0.00328888
931.688	0.000259399	0.00910645
932.148	-0.697632	-0.0187561
932.608	5.18799e-05	0.00329651
933.088	0.00038147	0.00909119
933.548	-0.69754	-0.0187592
934.008	-0.000598145	0.00330719
934.488	-0.000488281	0.00909424
934.948	-0.698273	-0.0187439
935.408	0.000698853	0.00329865
935.888	-0.000878906	0.00910034
936.348	-0.697968	-0.0187531
936.808	0.000360107	0.00331055
937.288	-0.000839233	0.00910034
937.748	-0.69754	-0.0187561
938.208	0.000775146	0.00330933
938.688	-0.000375366	0.00910645
939.148	-0.698883	-0.0187531
939.608	-0.000509644	0.00332123
940.088	0.000549316	0.00908813
940.548	-0.697601	-0.0187622
941.008	-0.000531006	0.00332642
941.488	0.000234985	0.00907898
941.948	-0.697815	-0.0187683
942.408	-0.000241089	0.00332733
942.888	0.000460815	0.00908813
943.348	-0.697876	-0.0187622
943.808	3.05176e-06	0.00333496
944.288	0.000500488	0.00909119
944.748	-0.698975	-0.0187561
945.208	0.00062561	0.00332764
945.688	-0.000430298	0.00908508
946.148	-0.698822	-0.0187561
946.608	-0.00050354	0.00333954
947.088	9.76562e-05	0.00907593
947.548	-0.69812	-0.01875
948.008	-0.000213623	0.00333984
948.488	0.000674438	0.00907898
948.948	-0.698792	-0.0187622
949.408	-0.000546265	0.00334808
949.888	0.000445557	0.00908203
950.348	-0.697601	-0.0187592
950.808	0.000634766	0.00334503
951.288	-0.000289917	0.00906982
951.748	-0.698517	-0.0187592
952.208	0.00100098	0.00334595
952.688	-0.00062561	0.00907593
953.148	-0.699005	-0.0187531
953.608	0.000491333	0.00335693
954.088	-0.000662231	0.00906677
954.548	-0.698181	-0.0187531
955.008	-0.000372314	0.00336273
955.488	-0.000567627	0.00906982
955.948	-0.698883	-0.0187561
956.408	-0.000549316	0.00336609
956.888	-0.000109863	0.00906372
957.348	-0.699066	-0.0187561
957.808	0.000756836	0.00335846
958.288	-0.000827026	0.00906982
958.748	-0.697815	-0.0187531
959.208	-0.000460815	0.00337097
959.688	-0.000753784	0.00906982
960.148	-0.697479	-0.0187592
960.608	-0.000112915	0.00337646
961.088	8.23975e-05	0.00907288
961.548	-0.697479	-0.0187592
962.008	-0.000216675	0.00337189
962.488	1.52588e-05	0.00905151
962.948	-0.698059	-0.0187622
963.408	0.000341797	0.00338013
963.888	-6.10352e-06	0.00906677
964.348	-0.697632	-0.0187622
964.808	0.0006073	0.00338104
965.288	-0.000543213	0.00906067
965.748	-0.69751	-0.0187561
966.208	-0.000521851	0.00338989
966.688	-0.000793457	0.00905457
967.148	-0.697449	-0.0187531
967.608	0.000817871	0.00338593
968.088	0.000564575	0.00904846
968.548	-0.698944	-0.01875
969.008	-6.71387e-05	0.00339264
969.488	0.000128174	0.00905762
969.948	-0.698456	-0.0187592
970.408	0.00085144	0.00339172
970.888	-0.000891113	0.00904846
971.348	-0.69751	-0.0187653
971.808	0.000970459	0.00339447
972.288	-0.000646973	0.00905457
972.748	-0.698975	-0.0187531
973.208	0.000772095	0.00339905
973.688	-0.000839233	0.00905151
974.148	-0.698151	-0.0187622
974.608	0.000872803	0.00340027
975.088	1.52588e-05	0.00903625
975.548	-0.698273	-0.0187439
976.008	0.000714111	0.00340515
976.488	0.000537109	0.00904236
976.948	-0.697815	-0.0187683
977.408	-0.000323486	0.00341522
977.888	-0.000512695	0.00904541
978.348	-0.69751	-0.0187561
978.808	0.000820923	0.00340759
979.288	0.000286865	0.00903015
979.748	-0.699005	-0.0187531
980.208	0.000164795	0.00341278
980.688	-0.000952148	0.00903625
981.148	-0.697449	-0.0187592
981.608	-0.000524902	0.00342163
982.088	-0.000784302	0.0090332
982.548	-0.699036	-0.01875
983.008	0.000894165	0.00341827
983.488	0.000622559	0.00903015
983.948	-0.697479	-0.0187561
984.408	3.05176e-06	0.0034256
984.888	-0.000631714	0.0090271
985.348	-0.697479	-0.0187531
985.808	-0.000128174	0.00343262
986.288	2.13623e-05	0.0090332
986.748	-0.697906	-0.0187622
987.208	0.000692749	0.00343048
987.688	9.15527e-05	0.00901489
988.148	-0.698944	-0.0187531
988.608	0.000875854	0.00343445
989.088	-0.000137329	0.00901489
989.548	-0.697571	-0.0187622
990.008	0.000848389	0.00343292
990.488	0.000579834	0.00901184
990.948	-0.697845	-0.0187622
991.408	0.000570679	0.00344116
991.888	-0.000830078	0.00901489
992.348	-0.697662	-0.0187622
992.808	-0.00043335	0.00345093
993.288	-0.000415039	0.009021
993.748	-0.698273	-0.0187683
994.208	0.000854492	0.00344543
994.688	0.000534058	0.00900574
995.148	-0.697632	-0.0187592
995.608	-0.000506592	0.0034549
996.088	-0.000457764	0.00900879
996.548	-0.69809	-0.01875
997.008	0.00055542	0.00345062
997.488	-2.74658e-05	0.00900269
997.948	-0.698639	-0.0187592
998.408	-0.000527954	0.00346313
998.888	-0.000866699	0.00900574
999.348	-0.697754	-0.0187683
999.808	0.000152588	0.00346313
1000.29	-0.000427246	0.00901489
1000.75	-0.69751	-0.0187592
1001.21	-0.000469971	0.00346863
1001.69	1.52588e-05	0.00901184
1002.15	-0.697449	-0.0187592
1002.61	0.000692749	0.00346252
1003.09	-0.000665283	0.00899658
1003.55	-0.697906	-0.0187531
1004.01	0.000814819	0.00346558
1004.49	-0.000692749	0.00899658
1004.95	-0.697906	-0.0187683
1005.41	0.000204468	0.00347015
1005.89	-0.000683594	0.00900269
1006.35	-0.697815	-0.0187653
1006.81	-0.000488281	0.00347931
1007.29	-0.000753784	0.00899048
1007.75	-0.697845	-0.0187744
1008.21	-0.000332642	0.00347687
1008.69	-0.000314331	0.00899963
1009.15	-0.698273	-0.0187592
1009.61	-0.000210571	0.00348572
1010.09	-0.000656128	0.00898743
1010.55	-0.698578	-0.01875
1011.01	0.000765991	0.00348083
1011.49	9.15527e-06	0.00899048
1011.95	-0.698853	-0.0187561
1012.41	-0.000375366	0.00348938
1012.89	0.000241089	0.008984375
1013.35	-0.698486	-0.01875
1013.81	3.66211e-05	0.00349243
1014.29	0.000512695	0.008984375
1014.75	-0.697723	-0.0187561
1015.21	0.000231934	0.00349426
1015.69	-0.000262451	0.008984375
1016.15	-0.697754	-0.0187561
1016.61	0.0006073	0.0034906
1017.09	-0.000479126	0.00898132
1017.55	-0.69812	-0.0187653
1018.01	0.000793457	0.00349365
1018.49	0.000201416	0.00897827
1018.95	-0.698853	-0.0187561
1019.41	0.000762939	0.00349823
1019.89	-0.000195313	0.00897522
1020.35	-0.698975	-0.0187592
1020.81	-0.000418091	0.00350891
1021.29	-0.000646973	0.00897522
1021.75	-0.697601	-0.0187622
1022.21	0.00045166	0.00350677
1022.69	0.000540161	0.00896606
1023.15	-0.698853	-0.0187592
1023.61	0.000775146	0.00350555
1024.09	0.000698853	0.00896606
1024.55	-0.698914	-0.0187531
1025.01	-0.000634766	0.00351868
1025.49	0.000653076	0.00896606
1025.95	-0.697662	-0.0187653
1026.41	-0.000561523	0.00352112
1026.89	0.000616455	0.00896301
1027.35	-0.698883	-0.0187439
1027.81	0.000579834	0.0035141
1028.29	0.000231934	0.00895386
1028.75	-0.699036	-0.0187531
1029.21	0.000424194	0.00351776
1029.69	-0.000234985	0.00895081
1030.15	-0.698669	-0.0187622
1030.61	-0.000546265	0.00352936
1031.09	-8.54492e-05	0.00896301
1031.55	-0.697815	-0.0187653
1032.01	0.000942993	0.00352234
1032.49	0.000311279	0.0089386
1032.95	-0.698883	-0.0187561
1033.41	0.000808716	0.00353027
1033.89	0.0006073	0.00894165
1034.35	-0.699036	-0.0187531
1034.81	0.000878906	0.00352997
1035.29	0.000494385	0.0089447
1035.75	-0.69751	-0.0187622
1036.21	0.000228882	0.0035376
1036.69	-0.000357056	0.00895996
1037.15	-0.69751	-0.0187592
1037.61	-0.000558472	0.00354187
1038.09	-0.000619507	0.0089386
1038.55	-0.698975	-0.0187469
1039.01	0.000869751	0.00353394
1039.49	0.000656128	0.0089386
1039.95	-0.699036	-0.0187469
1040.41	-0.000570679	0.00354767
1040.89	-6.71387e-05	0.00894775
1041.35	-0.69809	-0.0187531
1041.81	0.00104065	0.00354004
1042.29	-0.000369263	0.00894775
1042.75	-0.698853	-0.0187439
1043.21	-0.000439453	0.00355011
1043.69	0.000473022	0.0089386
1044.15	-0.698486	-0.0187561
1044.61	-0.000354004	0.0035556
1045.09	0.000506592	0.00892639
1045.55	-0.698914	-0.0187439
1046.01	0.00072937	0.00355042
1046.49	0.000289917	0.00893555
1046.95	-0.697479	-0.0187561
1047.41	0.000735474	0.00355347
1047.89	-0.000839233	0.00892944
1048.35	-0.698914	-0.0187469
1048.81	-6.10352e-05	0.00356354
1049.29	0.000616455	0.00892334
1049.75	-0.697815	-0.0187531
1050.21	-0.000415039	0.00356201
1050.69	-0.000927734	0.00892029
1051.15	-0.69809	-0.0187561
1051.61	0.000454712	0.00356659
1052.09	0.000192261	0.00891724
1052.55	-0.698853	-0.0187531
1053.01	0.000622559	0.00356567
1053.49	0.000415039	0.00892029
1053.95	-0.697754	-0.0187469
1054.41	-0.000418091	0.00357269
1054.89	-0.000622559	0.00892029
1055.35	-0.698578	-0.0187531
1055.81	0.00065918	0.00356934
1056.29	0.000448608	0.00891724
1056.75	-0.698822	-0.0187531
1057.21	0.00038147	0.00357178
1057.69	-0.000552368	0.00891724
1058.15	-0.698669	-0.0187469
1058.61	0.000393677	0.00357513
1059.09	-0.000457764	0.00891418
1059.55	-0.697723	-0.0187469
1060.01	0.000662231	0.00358093
1060.49	-0.000106812	0.00890198
1060.95	-0.697784	-0.0187469
1061.41	0.000640869	0.00357941
1061.89	-0.000598145	0.00892029
1062.35	-0.697723	-0.0187592
1062.81	2.74658e-05	0.00359039
1063.29	0.000387573	0.00891418
1063.75	-0.697723	-0.0187561
1064.21	-0.000335693	0.00359283
1064.69	-0.000796509	0.00891724
1065.15	-0.699005	-0.0187439
1065.61	-0.000250244	0.00359497
1066.09	0.000482178	0.00890503
1066.55	-0.698944	-0.0187469
1067.01	0.000482178	0.00359619
1067.49	-2.74658e-05	0.00890808
1067.95	-0.698822	-0.0187439
1068.41	-0.000512695	0.00360168
1068.89	-0.000793457	0.00889282
1069.35	-0.698975	-0.0187439
1069.81	0.000909424	0.00359711
1070.29	0.000601196	0.00888977
1070.75	-0.698792	-0.0187469
1071.21	0.000823975	0.00359802
1071.69	0.000524902	0.00890198
1072.15	-0.698975	-0.01875
1072.61	-0.000402832	0.00361115
1073.09	-0.000689697	0.00890198
1073.55	-0.697845	-0.0187408
1074.01	0.000149536	0.00360718
1074.49	-0.000863647	0.00889587
1074.95	-0.697601	-0.0187592
1075.41	0.000662231	0.00360931
1075.89	0.000552368	0.00889282
1076.35	-0.698364	-0.0187469
1076.81	0.000210571	0.00361877
1077.29	-0.000802612	0.00889587
1077.75	-0.698425	-0.0187408
1078.21	0.000219727	0.00361206
1078.69	-0.000628662	0.00890198
1079.15	-0.698975	-0.0187378
1079.61	0.000350952	0.00361633
1080.09	0.000186157	0.00889587
1080.55	-0.697693	-0.0187469
1081.01	0.000558472	0.00362183
1081.49	-0.000817871	0.00888367
1081.95	-0.699005	-0.0187378
1082.41	-0.000454712	0.00363068
1082.89	-0.000442505	0.00889587
1083.35	-0.698456	-0.0187561
1083.81	0.000894165	0.00361938
1084.29	0.000418091	0.00888062
1084.75	-0.697784	-0.0187469
1085.21	0.000189209	0.00362976
1085.69	-0.000805664	0.00887756
1086.15	-0.698975	-0.01875
1086.61	-0.000350952	0.00363678
1087.09	-0.000598145	0.00887451
1087.55	-0.698578	-0.0187561
1088.01	-0.000228882	0.00363373
1088.49	-0.000494385	0.00887451
1088.95	-0.697449	-0.0187561
1089.41	0.000466919	0.00363464
1089.89	0.00055542	0.00887146
1090.35	-0.698639	-0.01875
1090.81	-0.000546265	0.00364349
1091.29	0.0006073	0.00886536
1091.75	-0.698029	-0.0187469
1092.21	0.000592041	0.00363556
1092.69	-0.000701904	0.00888062
1093.15	-0.698578	-0.01875
1093.61	0.000100708	0.00364594
1094.09	-0.000949097	0.00887146
1094.55	-0.698944	-0.0187439
1095.01	0.000939941	0.00364044
1095.49	0.000180054	0.0088623
1095.95	-0.697906	-0.0187469
1096.41	-0.000320435	0.00365479
1096.89	-0.000482178	0.00886536
1097.35	-0.697693	-0.0187469
1097.81	-0.000466919	0.00365631
1098.29	-0.000238037	0.00885925
1098.75	-0.699127	-0.0187531
1099.21	0.000323486	0.00365112
1099.69	-0.000817871	0.0088623
1100.15	-0.697998	-0.0187408
1100.61	0.000744629	0.00365417
1101.09	0.000360107	0.00885315
1101.55	-0.698608	-0.0187469
1102.01	0.000231934	0.00365631
1102.49	0.000622559	0.00886841
1102.95	-0.697479	-0.0187561
1103.41	-0.000613403	0.00366638
1103.89	-0.000494385	0.00885315
1104.35	-0.698486	-0.0187531
1104.81	-0.000469971	0.00366791
1105.29	0.000454712	0.0088562
1105.75	-0.698853	-0.01875
1106.21	0.000552368	0.00366486
1106.69	-0.000482178	0.00886536
1107.15	-0.698059	-0.0187408
1107.61	0.000805664	0.00366455
1108.09	-0.00067749	0.0088623
1108.55	-0.699036	-0.0187439
1109.01	0.000784302	0.00366455
1109.49	0.000442505	0.0088562
1109.95	-0.697754	-0.01875
1110.41	0.000628662	0.00366699
1110.89	0.000756836	0.00885315
1111.35	-0.697479	-0.01875
1111.81	-0.000534058	0.00368042
1112.29	-9.46045e-05	0.0088562
1112.75	-0.697571	-0.0187531
1113.21	4.88281e-05	0.00367432
1113.69	-0.000845337	0.00884399
1114.15	-0.697845	-0.0187439
1114.61	0.000302124	0.00367645
1115.09	-0.000119019	0.00884094
1115.55	-0.697876	-0.0187531
1116.01	5.79834e-05	0.00368042
1116.49	-0.000231934	0.00883789
1116.95	-0.69754	-0.0187622
1117.41	-0.000131226	0.00368469
1117.89	0.000259399	0.00883179
1118.35	-0.6987	-0.0187592
1118.81	-0.000115967	0.0036908
1119.29	0.000421143	0.00884094
1119.75	-0.698914	-0.0187469
1120.21	0.000634766	0.00368378
1120.69	0.000717163	0.00884399
1121.15	-0.698212	-0.0187531
1121.61	0.000961304	0.00368744
1122.09	0.00062561	0.00883789
1122.55	-0.697571	-0.0187531
1123.01	-9.46045e-05	0.00369385
1123.49	3.05176e-05	0.00882874
1123.95	-0.697449	-0.0187592
1124.41	-0.00055542	0.00370056
1124.89	-0.000793457	0.00883789
1125.35	-0.697601	-0.0187683
1125.81	0.000128174	0.00370026
1126.29	-0.000839233	0.00884094
1126.75	-0.698151	-0.01875
1127.21	0.000756836	0.00369507
1127.69	-7.32422e-05	0.00884399
1128.15	-0.698395	-0.0187592
1128.61	-0.000579834	0.00370911
1129.09	0.000741577	0.00883789
1129.55	-0.698883	-0.01875
1130.01	-3.35693e-05	0.00369965
1130.49	-0.000149536	0.00881958
1130.95	-0.698883	-0.01875
1131.41	0.000909424	0.00370087
1131.89	1.83105e-05	0.00883484
1132.35	-0.698822	-0.0187439
1132.81	0.000863647	0.00370361
1133.29	0.000524902	0.00882568
1133.75	-0.699036	-0.0187469
1134.21	0.000231934	0.00371246
1134.69	-0.000231934	0.00883484
1135.15	-0.697418	-0.0187653
1135.61	0.000784302	0.0037085
1136.09	0.000253296	0.00881653
1136.55	-0.698944	-0.0187469
1137.01	0.000387573	0.00371674
1137.49	-0.000567627	0.00881348
1137.95	-0.69751	-0.0187561
1138.41	0.000445557	0.00372253
1138.89	8.8501e-05	0.00880737
1139.35	-0.699005	-0.01875
1139.81	0.000402832	0.00371857
1140.29	-0.000827026	0.00881958
1140.75	-0.698517	-0.01875
1141.21	0.00057373	0.00372009
1141.69	0.000161743	0.00881653
1142.15	-0.698669	-0.0187622
1142.61	-0.000244141	0.00372833
1143.09	-3.96729e-05	0.00880737
1143.55	-0.698547	-0.0187378
1144.01	-0.000286865	0.00372925
1144.49	-0.000814819	0.00881348
1144.95	-0.697815	-0.0187531
1145.41	-0.000592041	0.00373505
1145.89	-0.000430298	0.00881958
1146.35	-0.697968	-0.0187439
1146.81	-1.2207e-05	0.00372772
1147.29	0.000653076	0.00879822
1147.75	-0.698364	-0.0187408
1148.21	0.000369263	0.00373047
1148.69	0.000369263	0.00880737
1149.15	-0.698242	-0.0187439
1149.61	0.000283813	0.0037323
1150.09	-0.000320435	0.00881042
1150.55	-0.698181	-0.0187408
1151.01	3.35693e-05	0.00374084
1151.49	-0.000872803	0.00880432
1151.95	-0.698669	-0.0187378
1152.41	-0.00010376	0.00374023
1152.89	0.000180054	0.00879517
1153.35	-0.698517	-0.0187531
1153.81	0.000442505	0.0037384
1154.29	-0.000216675	0.00879211
1154.75	-0.697479	-0.01875
1155.21	0.000631714	0.0037384
1155.69	-4.88281e-05	0.00878601
1156.15	-0.698608	-0.0187439
1156.61	-3.05176e-06	0.00375061
1157.09	0.000430298	0.00879822
1157.55	-0.697754	-0.0187531
1158.01	-0.000582886	0.00375366
1158.49	-0.000784302	0.00879211
1158.95	-0.698761	-0.0187378
1159.41	0.000418091	0.00374725
1159.89	0.000253296	0.00879211
1160.35	-0.698395	-0.0187347
1160.81	-0.00012207	0.00375763
1161.29	0.000372314	0.00878296
1161.75	-0.698242	-0.01875
1162.21	0.000140381	0.00375427
1162.69	0.000518799	0.00877991
1163.15	-0.697998	-0.0187347
1163.61	0.000662231	0.00376007
1164.09	-0.000845337	0.00879517
1164.55	-0.698608	-0.0187347
1165.01	0.000775146	0.00375824
1165.49	0.000411987	0.00877686
1165.95	-0.697571	-0.0187469
1166.41	-0.000524902	0.00376434
1166.89	-0.000476074	0.00878601
1167.35	-0.699127	-0.0187439
1167.81	0.000485229	0.00375916
1168.29	-7.62939e-05	0.00878601
1168.75	-0.697479	-0.0187439
1169.21	-0.00043335	0.00377075
1169.69	-0.00067749	0.00877686
1170.15	-0.698669	-0.0187347
1170.61	0.000689697	0.00376373
1171.09	-0.000924683	0.00877686
1171.55	-0.698975	-0.0187286
1172.01	-0.000390625	0.00377716
1172.49	0.000662231	0.00877075
1172.95	-0.698853	-0.0187439
1173.41	0.000296021	0.00376801
1173.89	0.000268555	0.0087738
1174.35	-0.698853	-0.0187378
1174.81	0.000787354	0.00377197
1175.29	-0.00015564	0.00875854
1175.75	-0.697571	-0.0187469
1176.21	-0.000442505	0.0037793
1176.69	-0.000802612	0.00877686
1177.15	-0.697449	-0.0187439
1177.61	0.000848389	0.00377441
1178.09	-0.000332642	0.00877686
1178.55	-0.69754	-0.0187408
1179.01	-0.000488281	0.00378632
1179.49	0.000332642	0.00875854
1179.95	-0.698151	-0.0187286
1180.41	-0.000650024	0.00378845
1180.89	-0.000137329	0.00875854
1181.35	-0.699005	-0.0187378
1181.81	0.00106506	0.00378174
1182.29	0.000616455	0.00875854
1182.75	-0.699066	-0.0187317
1183.21	0.000534058	0.00378235
1183.69	0.000418091	0.00875854
1184.15	-0.698578	-0.0187408
1184.61	0.000674438	0.00378571
1185.09	0.000216675	0.00875854
1185.55	-0.697968	-0.0187286
1186.01	-0.00057373	0.00379517
1186.49	-0.000793457	0.0087616
1186.95	-0.698212	-0.0187408
1187.41	0.000845337	0.00378967
1187.89	-0.00078125	0.00875244
1188.35	-0.698029	-0.0187286
1188.81	-0.000439453	0.00380219
1189.29	-0.000753784	0.00874329
1189.75	-0.698944	-0.0187286
1190.21	0.000982666	0.00379608
1190.69	-0.000427246	0.00874634
1191.15	-0.697601	-0.0187378
1191.61	-0.000131226	0.00380005
1192.09	-0.00071106	0.00875854
1192.55	-0.697693	-0.0187469
1193.01	4.88281e-05	0.00380524
1193.49	0.000579834	0.00874023
1193.95	-0.697632	-0.0187408
1194.41	-0.000466919	0.00380707
1194.89	-0.000683594	0.00874634
1195.35	-0.698761	-0.0187225
1195.81	0.000906372	0.00380188
1196.29	-0.000582886	0.00875244
1196.75	-0.697601	-0.0187317
1197.21	-0.000592041	0.00381165
1197.69	0.000256348	0.00875244
1198.15	-0.697845	-0.0187408
1198.61	0.00100708	0.00380768
1199.09	-0.000189209	0.00873718
1199.55	-0.698822	-0.0187286
1200.01	0.00090332	0.00380768
1200.49	-0.000613403	0.00875244
1200.95	-0.698486	-0.0187225
1201.41	0.000872803	0.00380859
1201.89	-0.000695801	0.00874329
1202.35	-0.698059	-0.0187225
1202.81	-0.000183105	0.00382019
1203.29	-0.000811768	0.00873718
1203.75	-0.698059	-0.0187225
1204.21	-0.000524902	0.00382141
1204.69	-0.000820923	0.00873413
1205.15	-0.699005	-0.0187225
1205.61	0.000848389	0.00381409
1206.09	-2.74658e-05	0.00874023
1206.55	-0.697845	-0.0187378
1207.01	-8.54492e-05	0.0038269
1207.49	0.000668335	0.00873413
1207.95	-0.698547	-0.0187225
1208.41	0.000549316	0.00382355
1208.89	0.000637817	0.00872803
1209.35	-0.6987	-0.0187317
1209.81	-0.000439453	0.00383179
1210.29	-0.000378418	0.00873413
1210.75	-0.698425	-0.0187256
1211.21	-0.000369263	0.00383301
1211.69	-0.000701904	0.00872498
1212.15	-0.697632	-0.0187317
1212.61	-0.000558472	0.00383575
1213.09	0.000592041	0.00872498
1213.55	-0.697815	-0.0187347
1214.01	0.000790405	0.00382629
1214.49	-0.000439453	0.00873413
1214.95	-0.698181	-0.0187256
1215.41	-0.000488281	0.00384064
1215.89	0.000598145	0.00871582
1216.35	-0.698853	-0.0187164
1216.81	0.0009552	0.00383087
1217.29	-0.000500488	0.00871582
1217.75	-0.698425	-0.0187256
1218.21	-0.000189209	0.00384216
1218.69	-0.000408936	0.00871277
1219.15	-0.698547	-0.0187164
1219.61	-0.000515747	0.00384399
1220.09	-0.000656128	0.00871582
1220.55	-0.699005	-0.0187164
1221.01	-0.000415039	0.00384338
1221.49	-0.000637817	0.00871277
1221.95	-0.698273	-0.0187164
1222.41	-0.00022583	0.0038443
1222.89	7.93457e-05	0.00871887
1223.35	-0.697571	-0.0187256
1223.81	0.000866699	0.00383911
1224.29	0.000738525	0.00870972
1224.75	-0.698975	-0.0187195
1225.21	-9.15527e-05	0.00384521
1225.69	0.000372314	0.00870361
1226.15	-0.698425	-0.0187164
1226.61	0.000521851	0.0038446
1227.09	-0.000216675	0.00871277
1227.55	-0.698059	-0.0187164
1228.01	0.000372314	0.00384766
1228.49	-0.000756836	0.00870972
1228.95	-0.698944	-0.0187225
1229.41	-0.00045166	0.00385498
1229.89	-0.000750732	0.00870667
1230.35	-0.697571	-0.0187256
1230.81	-0.000427246	0.00386047
1231.29	0.000140381	0.00870056
1231.75	-0.698425	-0.0187134
1232.21	0.00100098	0.00385559
1232.69	0.000692749	0.00870361
1233.15	-0.697601	-0.0187317
1233.61	0.000811768	0.00385864
1234.09	0.000241089	0.00870361
1234.55	-0.698944	-0.0187195
1235.01	9.76562e-05	0.00386078
1235.49	9.15527e-05	0.00869141
1235.95	-0.699127	-0.0187195
1236.41	-0.000543213	0.00386871
1236.89	-0.000335693	0.00870361
1237.35	-0.699036	-0.0187134
1237.81	0.00020752	0.00386688
1238.29	5.79834e-05	0.00869141
1238.75	-0.697449	-0.0187317
1239.21	0.00093689	0.00386261
1239.69	0.000683594	0.00870056
1240.15	-0.699036	-0.0187164
1240.61	0.000479126	0.00386322
1241.09	-0.000115967	0.0086853
1241.55	-0.697845	-0.0187286
1242.01	-0.000143433	0.00387756
1242.49	-0.000793457	0.00869751
1242.95	-0.698792	-0.0187164
1243.41	0.000912476	0.00386932
1243.89	-0.000115967	0.00868225
1244.35	-0.698151	-0.0187103
1244.81	-0.000296021	0.00388031
1245.29	0.000469971	0.00869141
1245.75	-0.698425	-0.0187286
1246.21	-0.000357056	0.00387909
1246.69	-0.000827026	0.00869446
1247.15	-0.698792	-0.0187225
1247.61	-5.18799e-05	0.00388184
1248.09	0.000610352	0.00868225
1248.55	-0.697754	-0.0187225
1249.01	0.000836182	0.00387939
1249.49	2.74658e-05	0.00867615
1249.95	-0.698364	-0.0187225
1250.41	-0.000588989	0.00388977
1250.89	-0.000537109	0.00869446
1251.35	-0.69873	-0.0187012
1251.81	-0.00050354	0.00388977
1252.29	-0.000430298	0.00869141
1252.75	-0.698303	-0.0187195
1253.21	-5.79834e-05	0.00388947
1253.69	-0.000827026	0.00868225
1254.15	-0.697906	-0.0187225
1254.61	0.000811768	0.0038858
1255.09	-0.000823975	0.0086792
1255.55	-0.698334	-0.0187195
1256.01	0.000839233	0.0038855
1256.49	-0.00055542	0.0086731
1256.95	-0.698212	-0.0187195
1257.41	0.000640869	0.0038858
1257.89	-0.000668335	0.00866699
1258.35	-0.697876	-0.0187195
1258.81	-0.00067749	0.0038974
1259.29	-0.000323486	0.00866699
1259.75	-0.697571	-0.0187134
1260.21	0.00039978	0.00389557
1260.69	0.00055542	0.00867615
1261.15	-0.698669	-0.0186951
1261.61	-0.000314331	0.00390259
1262.09	0.000497437	0.00867004
1262.55	-0.69754	-0.0187195
1263.01	-0.00057373	0.00390472
1263.49	0.000549316	0.00866394
1263.95	-0.698578	-0.0187134
1264.41	-0.000256348	0.00390533
1264.89	-0.000509644	0.0086792
1265.35	-0.698334	-0.0187164
1265.81	-0.000384521	0.00390533
1266.29	0.000128174	0.00865784
1266.75	-0.697845	-0.0187164
1267.21	0.00103455	0.00390106
1267.69	-0.000231934	0.00865479
1268.15	-0.697723	-0.0187042
1268.61	0.00027771	0.0039032
1269.09	0.000210571	0.00865479
1269.55	-0.698456	-0.0186981
1270.01	0.000698853	0.00390686
1270.49	-0.000613403	0.00866699
1270.95	-0.699097	-0.0187073
1271.41	0.000561523	0.00391022
1271.89	-0.00020752	0.00866699
1272.35	-0.697693	-0.0187134
1272.81	0.000201416	0.00391052
1273.29	0.000378418	0.00866089
1273.75	-0.699036	-0.0186951
1274.21	0.000680542	0.00390869
1274.69	-0.000717163	0.00865173
1275.15	-0.69751	-0.0187134
1275.61	0.00101318	0.00391205
1276.09	-0.000769043	0.00866394
1276.55	-0.698059	-0.0187012
1277.01	-0.000534058	0.00392365
1277.49	-7.32422e-05	0.00865173
1277.95	-0.698395	-0.0187012
1278.41	-0.00057373	0.00392334
1278.89	-0.000793457	0.00865784
1279.35	-0.697449	-0.0187073
1279.81	-0.000515747	0.003927
1280.29	-0.000238037	0.00866089
1280.75	-0.698853	-0.0187042
1281.21	-0.000576782	0.00392792
1281.69	0.000650024	0.00865479
1282.15	-0.698639	-0.018692
1282.61	-0.000332642	0.00393036
1283.09	0.000762939	0.00864868
1283.55	-0.69751	-0.0187103
1284.01	-3.96729e-05	0.00393372
1284.49	7.01904e-05	0.00865479
1284.95	-0.697479	-0.0187073
1285.41	-0.000543213	0.00393494
1285.89	2.44141e-05	0.00863953
1286.35	-0.697449	-0.0187073
1286.81	0.000314331	0.00393188
1287.29	-0.000592041	0.00863953
1287.75	-0.698059	-0.018692
1288.21	0.000256348	0.00392975
1288.69	-0.00071106	0.00864258
1289.15	-0.698944	-0.0186951
1289.61	-0.000372314	0.00393707
1290.09	-0.000747681	0.00864258
1290.55	-0.697754	-0.0187012
1291.01	0.000131226	0.00393982
1291.49	0.000222778	0.00864868
1291.95	-0.699036	-0.0186981
1292.41	-0.000454712	0.00394501
1292.89	-0.000854492	0.00864258
1293.35	-0.698975	-0.0186951
1293.81	-0.000521851	0.00394531
1294.29	-0.000543213	0.00864868
1294.75	-0.697571	-0.0187073
1295.21	0.000683594	0.0039386
1295.69	0.000646973	0.00863647
1296.15	-0.697601	-0.0187103
1296.61	0.000839233	0.00393616
1297.09	-0.000701904	0.00863342
1297.55	-0.697937	-0.0186951
1298.01	-0.000137329	0.00394379
1298.49	-0.000827026	0.00863342
1298.95	-0.697601	-0.0187042
1299.41	0.000439453	0.00394135
1299.89	-0.000854492	0.00863037
1300.35	-0.698608	-0.018692
1300.81	0.000991821	0.00394348
1301.29	9.15527e-05	0.00861816
1301.75	-0.697571	-0.0187042
1302.21	-0.000247192	0.00395325
1302.69	-0.00071106	0.00862732
1303.15	-0.697571	-0.0186981
1303.61	0.000448608	0.00395203
1304.09	-0.000497437	0.00863647
1304.55	-0.698151	-0.0186859
1305.01	0.000177002	0.00395386
1305.49	-0.000665283	0.00862427
1305.95	-0.697754	-0.0186981
1306.41	0.000234985	0.00395233
1306.89	-0.000616455	0.00861816
1307.35	-0.698273	-0.018689
1307.81	-0.000320435	0.00395905
1308.29	-0.000631714	0.00862732
1308.75	-0.698639	-0.0186951
1309.21	-0.000411987	0.00395813
1309.69	0.000592041	0.00861816
1310.15	-0.698151	-0.018689
1310.61	0.000436401	0.00395508
1311.09	0.000183105	0.00862427
1311.55	-0.6987	-0.018689
1312.01	0.000808716	0.00395691
1312.49	-0.00039978	0.00861511
1312.95	-0.697906	-0.0186859
1313.41	-0.000213623	0.00396729
1313.89	-0.000665283	0.00862122
1314.35	-0.698608	-0.0186798
1314.81	0.000674438	0.00395966
1315.29	0.000192261	0.00861816
1315.75	-0.698059	-0.018692
1316.21	-0.000326538	0.00396729
1316.69	-1.83105e-05	0.00862427
1317.15	-0.69873	-0.0186798
1317.61	0.000106812	0.00396179
1318.09	-0.000152588	0.00862122
1318.55	-0.697845	-0.018692
1319.01	8.8501e-05	0.00397064
1319.49	0.000186157	0.00859375
1319.95	-0.69873	-0.0186859
1320.41	0.000485229	0.00397064
1320.89	-0.000830078	0.00860901
1321.35	-0.698059	-0.0186798
1321.81	-0.000360107	0.00397461
1322.29	-0.000238037	0.0085968
1322.75	-0.697662	-0.0186859
1323.21	0.000933838	0.00397003
1323.69	0.00032959	0.00860596
1324.15	-0.699005	-0.0186768
1324.61	-0.000527954	0.00398102
1325.09	-0.000985718	0.0085968
1325.55	-0.699005	-0.0186798
1326.01	3.05176e-06	0.00397339
1326.49	0.000427246	0.0085907
1326.95	-0.699005	-0.0186768
1327.41	-7.62939e-05	0.0039798
1327.89	-0.000256348	0.0085968
1328.35	-0.698242	-0.0186798
1328.81	-0.000598145	0.00398712
1329.29	-0.000582886	0.00860901
1329.75	-0.699097	-0.0186829
1330.21	0.000149536	0.00398468
1330.69	0.000378418	0.00859375
1331.15	-0.697662	-0.018692
1331.61	0.00043335	0.0039801
1332.09	3.66211e-05	0.00860291
1332.55	-0.6987	-0.0186768
1333.01	0.000640869	0.0039856
1333.49	-0.000942993	0.00859985
1333.95	-0.69754	-0.0186829
1334.41	0.00017395	0.00398254
1334.89	0.000308228	0.00860291
1335.35	-0.698547	-0.0186859
1335.81	0.000860596	0.00398621
1336.29	0.000457764	0.00858765
1336.75	-0.697906	-0.0186676
1337.21	-0.000561523	0.00399628
1337.69	-0.000213623	0.0085968
1338.15	-0.697968	-0.018689
1338.61	-0.000448608	0.00399811
1339.09	0.000500488	0.0085907
1339.55	-0.699005	-0.0186768
1340.01	-0.000299072	0.00399597
1340.49	-7.93457e-05	0.0085968
1340.95	-0.698486	-0.0186829
1341.41	-0.000585937	0.00400177
1341.89	0.000186157	0.00858765
1342.35	-0.697968	-0.0186737
1342.81	0.000634766	0.00399261
1343.29	-0.000796509	0.00859375
1343.75	-0.698944	-0.0186707
1344.21	0.000628662	0.00399445
1344.69	0.00020752	0.00857849
1345.15	-0.697327	-0.0186798
1345.61	0.000543213	0.00399933
1346.09	0.000582886	0.00857849
1346.55	-0.698181	-0.0186859
1347.01	-0.000198364	0.00400116
1347.49	-0.000546265	0.00857849
1347.95	-0.698395	-0.0186646
1348.41	-0.000131226	0.00400574
1348.89	0.000323486	0.00857544
1349.35	-0.69754	-0.0186829
1349.81	-0.000576782	0.00400574
1350.29	-0.000418091	0.00857239
1350.75	-0.698975	-0.0186676
1351.21	0.000946045	0.00400208
1351.69	7.01904e-05	0.00858765
1352.15	-0.697723	-0.0186768
1352.61	-0.000558472	0.00401337
1353.09	-0.000170898	0.00857239
1353.55	-0.697418	-0.0186798
1354.01	0.000918579	0.0040033
1354.49	0.000323486	0.00858154
1354.95	-0.698975	-0.0186798
1355.41	-0.000576782	0.00401611
1355.89	-0.000817871	0.00857849
1356.35	-0.69809	-0.0186707
1356.81	-0.000521851	0.00401825
1357.29	0.000387573	0.00856628
1357.75	-0.69754	-0.0186798
1358.21	0.000164795	0.00401886
1358.69	-0.000726318	0.00856934
1359.15	-0.698181	-0.0186768
1359.61	-0.000274658	0.0040213
1360.09	0.000527954	0.00857544
1360.55	-0.698853	-0.0186707
1361.01	0.000723267	0.00401154
1361.49	-0.000540161	0.00856628
1361.95	-0.698914	-0.0186646
1362.41	-0.000305176	0.00402374
1362.89	-0.000363159	0.00858154
1363.35	-0.698364	-0.0186676
1363.81	0.000878906	0.00401489
1364.29	0.000622559	0.00856628
1364.75	-0.697571	-0.0186768
1365.21	-7.93457e-05	0.00402069
1365.69	-0.000704956	0.00857239
1366.15	-0.69873	-0.0186584
1366.61	0.00105591	0.00401855
1367.09	0.000482178	0.00856934
1367.55	-0.697754	-0.0186737
1368.01	-0.000405884	0.00403198
1368.49	-0.000857544	0.00856323
1368.95	-0.6987	-0.0186737
1369.41	0.00062561	0.00402466
1369.89	0.00043335	0.00856323
1370.35	-0.697906	-0.0186615
1370.81	-0.000296021	0.00402954
1371.29	-0.000485229	0.00855713
1371.75	-0.698181	-0.0186584
1372.21	0.00071106	0.00402374
1372.69	1.83105e-05	0.00856934
1373.15	-0.697845	-0.0186737
1373.61	-0.000656128	0.00403473
1374.09	0.000686646	0.00856018
1374.55	-0.699036	-0.0186584
1375.01	-0.000564575	0.004039
1375.49	-0.00071106	0.00856323
1375.95	-0.697479	-0.0186646
1376.41	-0.000479126	0.00404022
1376.89	6.40869e-05	0.00854492
1377.35	-0.699066	-0.0186584
1377.81	0.000942993	0.00403137
1378.29	-0.000393677	0.00856323
1378.75	-0.699066	-0.0186646
1379.21	0.000384521	0.00403534
1379.69	2.74658e-05	0.00854797
1380.15	-0.697723	-0.0186554
1380.61	-0.000344849	0.0040451
1381.09	0.000561523	0.00855103
1381.55	-0.698975	-0.0186584
1382.01	0.000961304	0.00403534
1382.49	-0.00043335	0.00856323
1382.95	-0.698181	-0.0186584
1383.41	-9.46045e-05	0.0040387
1383.89	-0.000808716	0.00855103
1384.35	-0.697754	-0.0186646
1384.81	-0.000509644	0.00404938
1385.29	0.000616455	0.00855103
1385.75	-0.699005	-0.0186554
1386.21	0.000738525	0.00403992
1386.69	-0.000161743	0.00853882
1387.15	-0.699036	-0.0186493
1387.61	0.000296021	0.00404694
1388.09	-0.000262451	0.00856018
1388.55	-0.69751	-0.0186646
1389.01	-0.000213623	0.00404846
1389.49	0.000564575	0.00853882
1389.95	-0.698853	-0.0186432
1390.41	0.000738525	0.00404266
1390.89	-9.15527e-05	0.00855103
1391.35	-0.697937	-0.0186676
1391.81	7.62939e-05	0.00404602
1392.29	-0.000680542	0.00853882
1392.75	-0.698914	-0.0186554
1393.21	-0.000354004	0.00405365
1393.69	0.000198364	0.00853577
1394.15	-0.697876	-0.0186646
1394.61	-0.000204468	0.00405945
1395.09	-0.000482178	0.00853577
1395.55	-0.697632	-0.0186462
1396.01	-0.000332642	0.00406036
1396.49	0.000595093	0.00852966
1396.95	-0.697632	-0.0186584
1397.41	0.000137329	0.00405945
1397.89	-0.000167847	0.00854797
1398.35	-0.698914	-0.0186432
1398.81	0.000964355	0.00405365
1399.29	0.000723267	0.00853882
1399.75	-0.698578	-0.0186554
1400.21	-0.000463867	0.00406189
1400.69	-0.000506592	0.00854187
1401.15	-0.698944	-0.0186523
1401.61	-0.000387573	0.00406677
1402.09	0.000598145	0.00853271
1402.55	-0.698853	-0.0186707
1403.01	0.000866699	0.00405701
1403.49	-0.000280762	0.00855103
1403.95	-0.697815	-0.0186676
1404.41	1.52588e-05	0.00406158
1404.89	0.000109863	0.00854187
1405.35	-0.697815	-0.0186768
1405.81	-0.000509644	0.00406891
1406.29	-7.93457e-05	0.00852966
1406.75	-0.697571	-0.0186737
1407.21	-0.000601196	0.00407074
1407.69	8.23975e-05	0.00852356
1408.15	-0.698975	-0.0186584
1408.61	-0.000234985	0.00406647
1409.09	0.000311279	0.00852661
1409.55	-0.698273	-0.0186707
1410.01	0.000823975	0.00406219
1410.49	0.000561523	0.00852661
1410.95	-0.698181	-0.0186737
1411.41	0.000485229	0.00406464
1411.89	-0.000299072	0.00852661
1412.35	-0.697571	-0.0186646
1412.81	0.000231934	0.00407196
1413.29	0.000601196	0.00852966
1413.75	-0.697876	-0.0186584
1414.21	-9.46045e-05	0.00407623
1414.69	-0.000292969	0.00853882
1415.15	-0.69754	-0.0186646
1415.61	-0.00067749	0.00407837
1416.09	-0.000836182	0.00852661
1416.55	-0.697998	-0.0186646
1417.01	2.74658e-05	0.00407379
1417.49	0.000531006	0.00852051
1417.95	-0.697998	-0.0186737
1418.41	-0.000283813	0.00407837
1418.89	0.000540161	0.00852356
1419.35	-0.698486	-0.0186493
1419.81	-0.000186157	0.00407776
1420.29	-0.000366211	0.00852966
1420.75	-0.698975	-0.0186584
1421.21	0.000201416	0.00407501
1421.69	-0.00065918	0.0085144
1422.15	-0.697998	-0.0186646
1422.61	0.000402832	0.00407959
1423.09	0.000741577	0.00852051
1423.55	-0.697571	-0.0186707
1424.01	0.000421143	0.00407379
1424.49	0.00062561	0.00851135
1424.95	-0.698975	-0.0186523
1425.41	-0.000561523	0.00408661
1425.89	0.000463867	0.00852051
1426.35	-0.697845	-0.0186584
1426.81	0.000540161	0.00407776
1427.29	-0.000750732	0.00851746
1427.75	-0.699127	-0.0186584
1428.21	0.00022583	0.00408691
1428.69	0.000283813	0.0085144
1429.15	-0.698944	-0.0186462
1429.61	0.000238037	0.00408264
1430.09	0.00057373	0.00850525
1430.55	-0.697693	-0.0186615
1431.01	0.000967407	0.00408356
1431.49	0.000756836	0.0085144
1431.95	-0.69873	-0.0186584
1432.41	0.000421143	0.00408295
1432.89	-0.000357056	0.0085022
1433.35	-0.697754	-0.0186523
1433.81	-0.000192261	0.00409424
1434.29	-0.000567627	0.00851746
1434.75	-0.69873	-0.0186432
1435.21	0.000561523	0.00409149
1435.69	0.000598145	0.00850525
1436.15	-0.698853	-0.0186493
1436.61	0.000567627	0.00408875
1437.09	-7.32422e-05	0.0085022
1437.55	-0.697754	-0.0186523
1438.01	0.000164795	0.0040921
1438.49	-0.000354004	0.0085083
1438.95	-0.697845	-0.0186493
1439.41	0.000222778	0.00410034
1439.89	-0.000839233	0.00850525
1440.35	-0.697815	-0.0186584
1440.81	4.57764e-05	0.00409576
1441.29	0.000506592	0.00849609
1441.75	-0.698853	-0.0186462
1442.21	-0.000579834	0.00410187
1442.69	-0.000817871	0.0085022
1443.15	-0.699158	-0.0186493
1443.61	6.10352e-05	0.00410126
1444.09	0.000354004	0.0085083
1444.55	-0.698975	-0.0186401
1445.01	0.000634766	0.00409698
1445.49	4.88281e-05	0.00848999
1445.95	-0.69751	-0.0186523
1446.41	0.000933838	0.0040979
1446.89	0.000601196	0.0085083
1447.35	-0.698914	-0.0186401
1447.81	0.0009552	0.00409912
1448.29	-0.000326538	0.00848999
1448.75	-0.697693	-0.0186493
1449.21	0.000692749	0.00410309
1449.69	-0.000457764	0.0085022
1450.15	-0.6987	-0.0186523
1450.61	0.00043335	0.00410248
1451.09	-0.000402832	0.00849304
1451.55	-0.699158	-0.0186462
1452.01	-5.79834e-05	0.00411255
1452.49	0.000262451	0.00849915
1452.95	-0.698456	-0.0186371
1453.41	-0.000476074	0.00411346
1453.89	-0.00085144	0.00849915
1454.35	-0.698975	-0.0186432
1454.81	-0.00022583	0.00411713
1455.29	0.000527954	0.00849915
1455.75	-0.698822	-0.0186462
1456.21	-0.000457764	0.00411346
1456.69	-0.000848389	0.00849304
1457.15	-0.697662	-0.0186523
1457.61	0.000387573	0.00411072
1458.09	-0.000125122	0.00847778
1458.55	-0.698792	-0.0186279
1459.01	0.000784302	0.00411224
1459.49	-7.62939e-05	0.00847778
1459.95	-0.697479	-0.0186432
1460.41	-0.000524902	0.00412048
1460.89	-0.000421143	0.00849304
1461.35	-0.699005	-0.0186401
1461.81	3.96729e-05	0.00412048
1462.29	-3.96729e-05	0.00849304
1462.75	-0.697815	-0.0186371
1463.21	-0.000192261	0.00412567
1463.69	0.000637817	0.00848083
1464.15	-0.698914	-0.0186371
1464.61	-0.000112915	0.00412079
1465.09	-0.000534058	0.00847473
1465.55	-0.698151	-0.018634
1466.01	-0.000457764	0.00412811
1466.49	-0.000497437	0.00848694
1466.95	-0.698883	-0.018631
1467.41	-0.000579834	0.00412842
1467.89	0.00010376	0.00849609
1468.35	-0.699036	-0.018631
1468.81	-0.000357056	0.0041275
1469.29	-1.83105e-05	0.00848999
1469.75	-0.698578	-0.0186401
1470.21	-0.000653076	0.00413177
1470.69	0.000247192	0.00847168
1471.15	-0.697968	-0.018634
1471.61	0.000839233	0.00412354
1472.09	-0.000512695	0.00847473
1472.55	-0.698059	-0.0186462
1473.01	0.000375366	0.00413086
1473.49	0.000613403	0.00848083
1473.95	-0.698151	-0.0186432
1474.41	-0.000518799	0.00413605
1474.89	-0.000787354	0.00847778
1475.35	-0.698334	-0.0186279
1475.81	0.000753784	0.00413055
1476.29	0.000653076	0.00847473
1476.75	-0.698975	-0.0186279
1477.21	-0.000302124	0.00413635
1477.69	-0.000161743	0.00848694
1478.15	-0.697815	-0.0186279
1478.61	0.0009765625	0.00413025
1479.09	0.000704956	0.00847168
1479.55	-0.698914	-0.0186279
1480.01	0.000869751	0.00413086
1480.49	-0.000656128	0.00847778
1480.95	-0.697571	-0.0186371
1481.41	-0.000424194	0.00414337
1481.89	0.000656128	0.00847473
1482.35	-0.698395	-0.0186401
1482.81	-8.23975e-05	0.00414246
1483.29	0.000604248	0.00846252
1483.75	-0.698395	-0.018634
1484.21	0.000317383	0.00413757
1484.69	-0.000836182	0.00847473
1485.15	-0.69812	-0.0186432
1485.61	0.000396729	0.00414215
1486.09	0.000268555	0.00846863
1486.55	-0.697723	-0.0186371
1487.01	0.000738525	0.00413757
1487.49	-0.000744629	0.00846863
1487.95	-0.698303	-0.0186401
1488.41	0.000570679	0.00414429
1488.89	-0.00072937	0.00846863
1489.35	-0.698303	-0.018634
1489.81	-0.000192261	0.00414703
1490.29	0.000320435	0.00847168
1490.75	-0.6987	-0.0186462
1491.21	0.000787354	0.00414307
1491.69	-0.000170898	0.00846558
1492.15	-0.698181	-0.018634
1492.61	-0.00038147	0.0041507
1493.09	-0.000344849	0.00847778
1493.55	-0.6987	-0.0186279
1494.01	0.000857544	0.00414459
1494.49	-0.000823975	0.00846252
1494.95	-0.698456	-0.0186401
1495.41	-0.000601196	0.00415283
1495.89	0.000314331	0.00846558
1496.35	-0.698456	-0.0186371
1496.81	-0.000244141	0.00415375
1497.29	0.000247192	0.00846558
1497.75	-0.698059	-0.0186279
1498.21	0.00071106	0.00415222
1498.69	-0.000274658	0.00846252
1499.15	-0.699127	-0.018631
1499.61	0.000756836	0.00415222
1500.09	0.000515747	0.00845337
1500.55	-0.698364	-0.0186249
1501.01	0.000714111	0.00415009
1501.49	0.000637817	0.00845642
1501.95	-0.698761	-0.0186249
1502.41	0.000982666	0.00415375
1502.89	0.000616455	0.00845337
1503.35	-0.697571	-0.0186371
1503.81	-0.000576782	0.00416351
1504.29	-0.000534058	0.00845337
1504.75	-0.697937	-0.0186249
1505.21	-0.000341797	0.00416534
1505.69	-0.00078125	0.00845947
1506.15	-0.699036	-0.0186249
1506.61	-0.000421143	0.00416382
1507.09	-0.000845337	0.00845642
1507.55	-0.697571	-0.0186249
1508.01	-0.000177002	0.00416443
1508.49	-0.000442505	0.00844727
1508.95	-0.697601	-0.0186371
1509.41	-0.000390625	0.00416718
1509.89	0.000167847	0.00845642
1510.35	-0.697876	-0.0186249
1510.81	0.00083313	0.00415985
1511.29	0.000662231	0.00845337
1511.75	-0.698792	-0.0186188
1512.21	-0.000195313	0.00416595
1512.69	0.000543213	0.00844727
1513.15	-0.699005	-0.0186157
1513.61	-0.000485229	0.00417114
1514.09	0.000491333	0.00844727
1514.55	-0.697449	-0.018631
1515.01	-0.000424194	0.0041745
1515.49	-0.000598145	0.00845642
1515.95	-0.697723	-0.018631
1516.41	-0.000515747	0.00417664
1516.89	-0.00062561	0.00844116
1517.35	-0.697876	-0.0186218
1517.81	0.000695801	0.00416534
1518.29	-1.83105e-05	0.00843811
1518.75	-0.698425	-0.0186127
1519.21	0.000149536	0.00417664
1519.69	0.000177002	0.00843811
1520.15	-0.698883	-0.0186218
1520.61	0.000894165	0.0041684
1521.09	-5.18799e-05	0.00845337
1521.55	-0.69754	-0.0186249
1522.01	-0.000567627	0.0041803
1522.49	-0.000372314	0.00845337
1522.95	-0.698944	-0.0186096
1523.41	0.000848389	0.00417145
1523.89	0.000408936	0.00843811
1524.35	-0.699036	-0.0186157
1524.81	0.000787354	0.00417328
1525.29	-7.01904e-05	0.00843506
1525.75	-0.697845	-0.0186249
1526.21	0.000970459	0.00417755
1526.69	2.74658e-05	0.00845337
1527.15	-0.698273	-0.018634
1527.61	3.96729e-05	0.00418091
1528.09	-0.000384521	0.00845337
1528.55	-0.698761	-0.0186249
1529.01	0.000485229	0.00418427
1529.49	0.000289917	0.00843811
1529.95	-0.699036	-0.0186218
1530.41	-0.000106812	0.00418518
1530.89	1.2207e-05	0.00843506
1531.35	-0.698792	-0.0186249
1531.81	0.000125122	0.00418823
1532.29	-0.000698853	0.00844421
1532.75	-0.698547	-0.0186188
1533.21	0.000802612	0.00418365
1533.69	-0.000726318	0.00844116
1534.15	-0.698364	-0.0186279
1534.61	-6.10352e-05	0.00418579
1535.09	-0.000195313	0.00844116
1535.55	-0.697571	-0.0186279
1536.01	0.000292969	0.00419189
1536.49	-0.000668335	0.00843811
1536.95	-0.698456	-0.0186127
1537.41	-0.000170898	0.00419037
1537.89	8.54492e-05	0.00844116
1538.35	-0.69754	-0.0186127
1538.81	0.000271606	0.00419342
1539.29	-0.000631714	0.00843811
1539.75	-0.69751	-0.0186249
1540.21	-0.000476074	0.0041983
1540.69	-0.000802612	0.00842896
1541.15	-0.698486	-0.0186066
1541.61	0.000897217	0.00418945
1542.09	9.46045e-05	0.00843811
1542.55	-0.698669	-0.0186157
1543.01	0.000302124	0.00419281
1543.49	0.000479126	0.00842896
1543.95	-0.698364	-0.0186218
1544.41	0.000793457	0.00419281
1544.89	0.000540161	0.00842896
1545.35	-0.69809	-0.0186096
1545.81	0.000268555	0.0041983
1546.29	0.000601196	0.00842285
1546.75	-0.698761	-0.0186005
1547.21	-0.000430298	0.00420349
1547.69	0.000497437	0.0084198
1548.15	-0.698914	-0.0186035
1548.61	-0.000128174	0.00420532
1549.09	-0.00065918	0.00842896
1549.55	-0.698334	-0.0186157
1550.01	-0.00038147	0.00420166
1550.49	-0.000332642	0.0084198
1550.95	-0.697815	-0.0186127
1551.41	2.13623e-05	0.00420471
1551.89	-7.32422e-05	0.0084137
1552.35	-0.698853	-0.0186096
1552.81	0.000167847	0.00420471
1553.29	0.000494385	0.0084137
1553.75	-0.698059	-0.0186188
1554.21	0.000552368	0.00420258
1554.69	0.000512695	0.0084137
1555.15	-0.698761	-0.0186066
1555.61	0.000216675	0.00420319
1556.09	5.79834e-05	0.0084259
1556.55	-0.697601	-0.0186127
1557.01	-6.10352e-06	0.00421112
1557.49	0.000335693	0.00841675
1557.95	-0.69873	-0.0186005
1558.41	-0.000405884	0.00421295
1558.89	-0.000756836	0.00841675
1559.35	-0.69809	-0.0186096
1559.81	0.000531006	0.0042038
1560.29	-0.000408936	0.00840759
1560.75	-0.697937	-0.0186157
1561.21	-0.000390625	0.00421509
1561.69	0.000613403	0.00840759
1562.15	-0.697632	-0.0186035
1562.61	0.000906372	0.00420563
1563.09	-0.000360107	0.0084137
1563.55	-0.699005	-0.0185974
1564.01	-0.000521851	0.00421936
1564.49	-0.000402832	0.00839539
1564.95	-0.698486	-0.0186066
1565.41	0.000964355	0.00420746
1565.89	-0.000222778	0.0084137
1566.35	-0.697754	-0.0186066
1566.81	0.000140381	0.00421173
1567.29	0.000125122	0.00839539
1567.75	-0.699036	-0.0185944
1568.21	0.000323486	0.00421539
1568.69	-0.000756836	0.00840454
1569.15	-0.69754	-0.0186005
1569.61	-0.000497437	0.00421814
1570.09	7.62939e-05	0.00838928
1570.55	-0.699036	-0.0185913
1571.01	0.000698853	0.00421387
1571.49	-0.000213623	0.00841064
1571.95	-0.69812	-0.0186035
1572.41	0.000378418	0.00421112
1572.89	0.00072937	0.00839844
1573.35	-0.6987	-0.0185913
1573.81	-8.8501e-05	0.00421783
1574.29	0.000302124	0.00838928
1574.75	-0.698975	-0.0185822
1575.21	-0.000262451	0.00422028
1575.69	6.10352e-05	0.00838623
1576.15	-0.698029	-0.0186035
1576.61	0.000524902	0.00421844
1577.09	-0.000424194	0.00840149
1577.55	-0.697815	-0.0185974
1578.01	-0.000585937	0.00422485
1578.49	-0.000811768	0.00839233
1578.95	-0.698395	-0.0185974
1579.41	0.000592041	0.00422211
1579.89	6.71387e-05	0.00839844
1580.35	-0.698303	-0.0185974
1580.81	-3.05176e-05	0.00422791
1581.29	0.0006073	0.00838623
1581.75	-0.698975	-0.0185852
1582.21	-0.00050354	0.00422821
1582.69	-0.000460815	0.00838623
1583.15	-0.69754	-0.0185822
1583.61	-0.000567627	0.00422974
1584.09	-0.000811768	0.00838928
1584.55	-0.697418	-0.0185883
1585.01	-0.000344849	0.00422913
1585.49	-0.000640869	0.00839539
1585.95	-0.697784	-0.0185913
1586.41	0.000921631	0.00422272
1586.89	-0.000445557	0.00839539
1587.35	-0.697571	-0.0185944
1587.81	-0.000424194	0.00423401
1588.29	-0.000933838	0.00838318
1588.75	-0.698486	-0.0185822
1589.21	2.13623e-05	0.0042276
1589.69	-0.000613403	0.00839844
1590.11	0.000958252	0.00212189