File: Edgar/20240607/20240607/electrodeposition_pulsed_potential_20240607_B/pulses_2000_to_3000.txt
Time (s)	WE(1).Potential (V)	WE(1).Current (A)
1599.1	-0.697723	-0.020697
1599.56	0.000921631	0.00342926
1600.04	-0.000308228	0.00804443
1600.5	-0.698303	-0.0187653
1600.96	6.71387e-05	0.00408661
1601.44	-0.000631714	0.0082489
1601.9	-0.69751	-0.0186707
1602.36	0.000878906	0.00414703
1602.84	-0.000125122	0.00827637
1603.3	-0.697449	-0.0186401
1603.76	0.000894165	0.00417084
1604.24	-0.000213623	0.00830383
1604.7	-0.698242	-0.018634
1605.16	-0.000335693	0.00419525
1605.64	0.000512695	0.00831909
1606.1	-0.698944	-0.0186157
1606.56	0.000823975	0.00419983
1607.04	-0.000424194	0.0083313
1607.5	-0.698853	-0.0186157
1607.96	-0.000585937	0.00421387
1608.44	0.000643921	0.00832825
1608.9	-0.698608	-0.0186096
1609.36	7.01904e-05	0.00421326
1609.84	-0.00027771	0.0083374
1610.3	-0.697662	-0.0186127
1610.76	0.000894165	0.00421295
1611.24	-0.000646973	0.00834351
1611.7	-0.697845	-0.0186096
1612.16	0.000888062	0.00421722
1612.64	-0.000747681	0.00834961
1613.1	-0.698975	-0.0185944
1613.56	-0.000192261	0.00423065
1614.04	0.000485229	0.00835571
1614.5	-0.698547	-0.0185944
1614.96	-0.000448608	0.00423035
1615.44	-0.00090332	0.00834045
1615.9	-0.697937	-0.0185913
1616.36	-0.000579834	0.00423676
1616.84	-0.000769043	0.00834045
1617.3	-0.69873	-0.0185883
1617.76	0.000189209	0.00423248
1618.24	0.00017395	0.00835266
1618.7	-0.699005	-0.0185791
1619.16	-0.000274658	0.00424194
1619.64	0.00022583	0.00834961
1620.1	-0.698425	-0.0185913
1620.56	0.000930786	0.00423767
1621.04	0.000427246	0.00834961
1621.5	-0.699005	-0.0185791
1621.96	0.000823975	0.00424011
1622.44	-0.000762939	0.00834656
1622.9	-0.698578	-0.0185791
1623.36	-0.000115967	0.00424225
1623.84	-0.000177002	0.00835876
1624.3	-0.697784	-0.0185822
1624.76	9.46045e-05	0.00424927
1625.24	-0.000479126	0.00835571
1625.7	-0.697662	-0.0185852
1626.16	-0.000125122	0.00425354
1626.64	-0.000531006	0.00836182
1627.1	-0.698669	-0.0185699
1627.56	-0.000424194	0.00425476
1628.04	-0.000708008	0.00835876
1628.5	-0.69751	-0.0185852
1628.96	0.000894165	0.00424744
1629.44	-0.000216675	0.00834045
1629.9	-0.69873	-0.0185699
1630.36	0.000265503	0.00424957
1630.84	-0.0006073	0.00835266
1631.3	-0.69751	-0.018576
1631.76	-0.000543213	0.00426056
1632.24	0.000354004	0.00834961
1632.7	-0.698486	-0.0185638
1633.16	0.000317383	0.00425476
1633.64	-0.000448608	0.00834656
1634.1	-0.697815	-0.0185669
1634.56	0.00015564	0.00426086
1635.04	0.000158691	0.00835266
1635.5	-0.697968	-0.018576
1635.96	-0.00038147	0.00426392
1636.44	-0.000680542	0.00834351
1636.9	-0.697815	-0.0185791
1637.36	-0.000430298	0.00426605
1637.84	-0.000753784	0.00834656
1638.3	-0.698456	-0.018573
1638.76	0.00020752	0.00426056
1639.24	0.00027771	0.00834351
1639.7	-0.69873	-0.0185699
1640.16	0.000741577	0.00426025
1640.64	0.000515747	0.00834351
1641.1	-0.698395	-0.018576
1641.56	0.000875854	0.00426086
1642.04	0.000619507	0.00834351
1642.5	-0.69754	-0.0185608
1642.96	0.000323486	0.00426788
1643.44	-4.27246e-05	0.00834656
1643.9	-0.698792	-0.0185669
1644.36	0.000100708	0.00427216
1644.84	0.000704956	0.00834961
1645.3	-0.698669	-0.0185608
1645.76	0.000656128	0.00427246
1646.24	0.000360107	0.00834656
1646.7	-0.697662	-0.0185669
1647.16	-0.000274658	0.00427399
1647.64	-0.000674438	0.00834961
1648.1	-0.697723	-0.018573
1648.56	7.93457e-05	0.00427673
1649.04	1.52588e-05	0.00834961
1649.5	-0.698608	-0.0185669
1649.96	-5.49316e-05	0.00427887
1650.44	0.000210571	0.00834351
1650.9	-0.697601	-0.0185608
1651.36	0.000320435	0.00427643
1651.84	-0.000720215	0.0083374
1652.3	-0.697632	-0.0185699
1652.76	0.00022583	0.00427246
1653.24	0.000170898	0.00834961
1653.7	-0.697449	-0.0185608
1654.16	-0.000350952	0.00427612
1654.64	-0.000784302	0.00834351
1655.1	-0.697845	-0.0185699
1655.56	0.000875854	0.00427399
1656.04	0.0006073	0.0083374
1656.5	-0.697418	-0.0185669
1656.96	-0.000582886	0.00428406
1657.44	-0.000769043	0.00834656
1657.9	-0.698975	-0.0185638
1658.36	-3.05176e-06	0.00428406
1658.84	0.000588989	0.00834045
1659.3	-0.698853	-0.0185455
1659.76	0.000424194	0.00428345
1660.24	-0.000265503	0.00832825
1660.7	-0.698883	-0.0185516
1661.16	0.000918579	0.00427887
1661.64	0.000601196	0.00833435
1662.1	-0.699036	-0.0185516
1662.56	0.000140381	0.00428284
1663.04	0.000622559	0.0083374
1663.5	-0.699005	-0.0185516
1663.96	0.000860596	0.00428131
1664.44	0.000244141	0.0083374
1664.9	-0.698792	-0.0185608
1665.36	-0.000500488	0.00429352
1665.84	-0.000772095	0.00833435
1666.3	-0.69751	-0.0185577
1666.76	-0.000411987	0.0042926
1667.24	0.000622559	0.0083252
1667.7	-0.698669	-0.0185486
1668.16	-0.000613403	0.0042923
1668.64	0.000424194	0.00832214
1669.1	-0.698792	-0.0185577
1669.56	0.000759888	0.00428528
1670.04	0.000244141	0.0083313
1670.5	-0.697601	-0.0185608
1670.96	7.93457e-05	0.00429626
1671.44	-0.000784302	0.00833435
1671.9	-0.697571	-0.0185638
1672.36	-0.000558472	0.00429962
1672.84	-0.000759888	0.0083252
1673.3	-0.698273	-0.0185425
1673.76	-0.00050354	0.00429596
1674.24	9.46045e-05	0.00831604
1674.7	-0.69809	-0.0185455
1675.16	6.10352e-06	0.00429382
1675.64	-0.000857544	0.00832825
1676.1	-0.699036	-0.0185486
1676.56	0.000210571	0.00429047
1677.04	0.000637817	0.00832214
1677.5	-0.698853	-0.0185425
1677.96	-0.000314331	0.00429871
1678.44	0.000622559	0.00832214
1678.9	-0.698669	-0.0185577
1679.36	0.000952148	0.00429443
1679.84	3.05176e-06	0.00831604
1680.3	-0.69873	-0.0185394
1680.76	0.000283813	0.0042981
1681.24	-5.18799e-05	0.00831604
1681.7	-0.69754	-0.0185547
1682.16	-0.00055542	0.00430634
1682.64	-0.000692749	0.00832214
1683.1	-0.69754	-0.0185577
1683.56	0.000817871	0.00430145
1684.04	0.00017395	0.00832825
1684.5	-0.699005	-0.0185425
1684.96	-0.000515747	0.00430389
1685.44	-0.000323486	0.0083252
1685.9	-0.698547	-0.0185516
1686.36	-0.000442505	0.00430542
1686.84	-0.000463867	0.0083313
1687.3	-0.697937	-0.0185394
1687.76	-0.000320435	0.00430573
1688.24	0.000512695	0.00831604
1688.7	-0.698059	-0.0185394
1689.16	0.000488281	0.00430573
1689.64	0.000140381	0.00830688
1690.1	-0.698151	-0.0185486
1690.56	-0.000500488	0.00431091
1691.04	-0.000479126	0.00832825
1691.5	-0.69809	-0.0185516
1691.96	0.00103149	0.00430542
1692.44	-0.000445557	0.00832214
1692.9	-0.698334	-0.0185364
1693.36	-0.000564575	0.00431335
1693.84	0.000366211	0.00830688
1694.3	-0.697815	-0.0185577
1694.76	-1.52588e-05	0.00430817
1695.24	0.000683594	0.00830994
1695.7	-0.69809	-0.0185516
1696.16	-0.00032959	0.00431458
1696.64	-0.000485229	0.00830994
1697.1	-0.6987	-0.0185455
1697.56	0.000509644	0.00430603
1698.04	0.000595093	0.00830383
1698.5	-0.697571	-0.0185425
1698.96	0.000927734	0.00430878
1699.44	4.57764e-05	0.00830383
1699.9	-0.698395	-0.0185394
1700.36	0.000921631	0.00430878
1700.84	-0.000756836	0.00830383
1701.3	-0.69873	-0.0185333
1701.76	0.000546265	0.00431427
1702.24	0.000582886	0.00830688
1702.7	-0.697449	-0.0185425
1703.16	-0.000125122	0.00431427
1703.64	0.000195313	0.00830078
1704.1	-0.697876	-0.0185577
1704.56	-7.93457e-05	0.00432098
1705.04	-0.00015564	0.00831909
1705.5	-0.698212	-0.0185364
1705.96	0.000512695	0.00431366
1706.44	-0.000292969	0.00829468
1706.9	-0.698761	-0.0185425
1707.36	-0.000592041	0.00432312
1707.84	-0.000799561	0.00830688
1708.3	-0.697937	-0.0185547
1708.76	-4.27246e-05	0.00432129
1709.24	-0.000805664	0.00830688
1709.7	-0.698425	-0.0185333
1710.16	0.000900269	0.00431427
1710.64	0.000488281	0.00830383
1711.1	-0.697449	-0.0185364
1711.56	-0.00012207	0.00432007
1712.04	0.000231934	0.00829773
1712.5	-0.698883	-0.0185364
1712.96	-0.000576782	0.00432587
1713.44	-0.000604248	0.00829468
1713.9	-0.698883	-0.0185333
1714.36	5.49316e-05	0.00432739
1714.84	-0.000836182	0.00830688
1715.3	-0.697784	-0.0185425
1715.76	0.000378418	0.00432037
1716.24	-0.000692749	0.00830994
1716.7	-0.698425	-0.0185516
1717.16	0.000167847	0.00432343
1717.64	-0.000366211	0.00829163
1718.1	-0.698822	-0.0185364
1718.56	-0.000372314	0.00433167
1719.04	-0.000720215	0.00830994
1719.5	-0.697876	-0.0185486
1719.96	0.000268555	0.00432983
1720.44	0.000579834	0.00829773
1720.9	-0.697479	-0.0185486
1721.36	0.00083313	0.00432831
1721.84	0.000115967	0.00828857
1722.3	-0.698364	-0.0185455
1722.76	-0.000128174	0.00432587
1723.24	0.000350952	0.00829163
1723.7	-0.698669	-0.0185455
1724.16	0.000891113	0.00432648
1724.64	-0.000537109	0.00830688
1725.1	-0.698517	-0.0185455
1725.56	-9.15527e-06	0.00433411
1726.04	-0.000332642	0.00830688
1726.5	-0.697723	-0.0185486
1726.96	-0.000512695	0.00433807
1727.44	0.000567627	0.00829163
1727.9	-0.697845	-0.0185394
1728.36	3.05176e-06	0.00433258
1728.84	5.79834e-05	0.00828247
1729.3	-0.697784	-0.0185333
1729.76	-0.000631714	0.00433868
1730.24	-0.000115967	0.00828247
1730.7	-0.69754	-0.0185425
1731.16	0.000244141	0.00433289
1731.64	0.000366211	0.00830383
1732.1	-0.697968	-0.0185364
1732.56	-0.000326538	0.00433838
1733.04	0.00032959	0.00828552
1733.5	-0.69812	-0.0185425
1733.96	-0.00050354	0.00434357
1734.44	-0.000845337	0.00829468
1734.9	-0.697601	-0.0185394
1735.36	0.000427246	0.00433838
1735.84	0.000622559	0.00828552
1736.3	-0.698944	-0.0185333
1736.76	-0.000543213	0.00434479
1737.24	-0.000320435	0.00829468
1737.7	-0.698151	-0.0185394
1738.16	-0.000491333	0.00434143
1738.64	0.000576782	0.00828247
1739.1	-0.698975	-0.0185272
1739.56	-0.000497437	0.00434479
1740.04	-0.000598145	0.00828247
1740.5	-0.69751	-0.0185333
1740.96	-9.76562e-05	0.00434479
1741.44	0.000540161	0.00828552
1741.9	-0.697449	-0.0185333
1742.36	0.000735474	0.00433838
1742.84	-0.000186157	0.00827637
1743.3	-0.697693	-0.0185333
1743.76	0.000765991	0.00433807
1744.24	-0.000250244	0.00829468
1744.7	-0.697998	-0.0185394
1745.16	0.000769043	0.00433838
1745.64	2.74658e-05	0.00828857
1746.1	-0.698578	-0.0185333
1746.56	0.000823975	0.00434082
1747.04	0.000289917	0.00827637
1747.5	-0.698883	-0.0185303
1747.96	0.000823975	0.00433899
1748.44	0.000643921	0.00828247
1748.9	-0.698883	-0.0185303
1749.36	0.000482178	0.00434204
1749.84	0.000341797	0.00827332
1750.3	-0.698975	-0.0185333
1750.76	0.000469971	0.00434357
1751.24	-0.000430298	0.00827637
1751.7	-0.699005	-0.0185242
1752.16	0.000878906	0.0043454
1752.64	-0.000778198	0.00828247
1753.1	-0.69754	-0.0185333
1753.56	-0.00055542	0.00435699
1754.04	-0.000180054	0.00827942
1754.5	-0.698669	-0.0185303
1754.96	-0.000466919	0.00435455
1755.44	0.000601196	0.00826416
1755.9	-0.699036	-0.0185181
1756.36	-0.000317383	0.0043573
1756.84	-0.0003479	0.00827332
1757.3	-0.698853	-0.0185333
1757.76	0.000369263	0.00435303
1758.24	-0.000817871	0.00827942
1758.7	-0.698761	-0.0185211
1759.16	0.000866699	0.00434906
1759.64	0.000238037	0.00827637
1760.1	-0.698761	-0.0185211
1760.56	-0.000323486	0.00435242
1761.04	-0.000463867	0.00827942
1761.5	-0.698975	-0.0185211
1761.96	-0.000222778	0.00435547
1762.44	0.00055542	0.00826111
1762.9	-0.698425	-0.0185333
1763.36	-0.00045166	0.00435974
1763.84	0.000546265	0.00827026
1764.3	-0.697601	-0.0185303
1764.76	0.000466919	0.00435303
1765.24	0.00032959	0.00827332
1765.7	-0.697723	-0.0185242
1766.16	0.000747681	0.00435272
1766.64	0.000665283	0.00826721
1767.1	-0.697723	-0.0185272
1767.56	0.000357056	0.00435455
1768.04	0.000250244	0.00825195
1768.5	-0.697632	-0.0185272
1768.96	0.000552368	0.00435272
1769.44	-8.8501e-05	0.00827026
1769.9	-0.697876	-0.0185303
1770.36	-0.000546265	0.0043631
1770.84	-0.000195313	0.00825806
1771.3	-0.697815	-0.0185303
1771.76	0.000650024	0.00435516
1772.24	0.000320435	0.00826416
1772.7	-0.69812	-0.018515
1773.16	-0.000491333	0.00436646
1773.64	-0.00083313	0.00826416
1774.1	-0.698517	-0.018512
1774.56	0.000494385	0.00435913
1775.04	-0.000894165	0.00826111
1775.5	-0.698669	-0.0185242
1775.96	0.000973511	0.00436157
1776.44	0.000515747	0.00826416
1776.9	-0.697571	-0.0185211
1777.36	-0.000436401	0.00436646
1777.84	0.000439453	0.00825195
1778.3	-0.697754	-0.0185272
1778.76	-0.000387573	0.00436981
1779.24	0.000430298	0.008255
1779.7	-0.697723	-0.0185303
1780.16	-0.00017395	0.00436523
1780.64	0.000366211	0.00826111
1781.1	-0.698395	-0.0185181
1781.56	-0.000506592	0.00437103
1782.04	0.000494385	0.00825195
1782.5	-0.698486	-0.018515
1782.96	0.000445557	0.0043692
1783.44	-0.000778198	0.00824585
1783.9	-0.698914	-0.018515
1784.36	-0.000354004	0.00437439
1784.84	0.000604248	0.008255
1785.3	-0.698792	-0.0185059
1785.76	0.000653076	0.00436676
1786.24	0.000613403	0.0082489
1786.7	-0.697449	-0.0185211
1787.16	0.000784302	0.00436462
1787.64	0.000610352	0.0082489
1788.1	-0.697601	-0.018512
1788.56	0.000869751	0.00436523
1789.04	0.000616455	0.0082489
1789.5	-0.698853	-0.018515
1789.96	0.000845337	0.00436798
1790.44	0.000454712	0.0082428
1790.9	-0.698364	-0.018512
1791.36	-0.000515747	0.00437225
1791.84	-0.000759888	0.008255
1792.3	-0.697601	-0.0185181
1792.76	-6.10352e-06	0.00437347
1793.24	0.000268555	0.00823669
1793.7	-0.697876	-0.0185089
1794.16	0.000854492	0.00437134
1794.64	-0.00038147	0.008255
1795.1	-0.69873	-0.018515
1795.56	-0.000524902	0.00437897
1796.04	-0.00039978	0.00823975
1796.5	-0.698914	-0.0185059
1796.96	0.000799561	0.00437134
1797.44	0.000588989	0.00824585
1797.9	-0.697601	-0.0185089
1798.36	0.000753784	0.00437195
1798.84	0.000610352	0.0082428
1799.3	-0.698212	-0.018512
1799.76	-0.000497437	0.00438019
1800.24	-0.000274658	0.0082489
1800.7	-0.698669	-0.0185028
1801.16	0.000469971	0.00437744
1801.64	0.000106812	0.00823059
1802.1	-0.6987	-0.0184937
1802.56	0.000549316	0.00437164
1803.04	-0.000674438	0.0082489
1803.5	-0.699036	-0.0184998
1803.96	-0.000558472	0.00438232
1804.44	0.000421143	0.00823669
1804.9	-0.69809	-0.0184967
1805.36	0.00012207	0.00438171
1805.84	-0.000115967	0.0082428
1806.3	-0.697571	-0.0185059
1806.76	0.000762939	0.00437439
1807.24	9.76562e-05	0.00823975
1807.7	-0.698547	-0.0185059
1808.16	-0.000540161	0.00438599
1808.64	-0.000814819	0.00823975
1809.1	-0.698425	-0.0184906
1809.56	0.000796509	0.00437775
1810.04	0.000521851	0.00823669
1810.5	-0.698608	-0.0184906
1810.96	-0.000363159	0.00438812
1811.44	-0.000524902	0.00823364
1811.9	-0.698914	-0.0184906
1812.36	0.000668335	0.00437988
1812.84	-0.000393677	0.00822754
1813.3	-0.697693	-0.0185059
1813.76	0.000900269	0.00438049
1814.24	-0.00020752	0.00823669
1814.7	-0.698975	-0.0184875
1815.16	0.000115967	0.00438812
1815.64	0.00020752	0.00823364
1816.1	-0.698547	-0.0185028
1816.56	-0.000463867	0.00438995
1817.04	0.000604248	0.00822754
1817.5	-0.698456	-0.0184906
1817.96	0.000140381	0.00438843
1818.44	-0.000244141	0.00821838
1818.9	-0.698425	-0.0185028
1819.36	-0.000436401	0.00438965
1819.84	0.000537109	0.00822754
1820.3	-0.698608	-0.0184937
1820.76	0.000704956	0.00438263
1821.24	-0.000369263	0.00821838
1821.7	-0.698029	-0.0184937
1822.16	0.000369263	0.00438965
1822.64	-0.000827026	0.00822449
1823.1	-0.69809	-0.0184906
1823.56	-0.000509644	0.00439362
1824.04	-0.000701904	0.00822144
1824.5	-0.697479	-0.0184937
1824.96	0.000115967	0.00438934
1825.44	0.000518799	0.00822144
1825.9	-0.698944	-0.0184937
1826.36	-0.000476074	0.00439453
1826.84	-0.000830078	0.00822754
1827.3	-0.69754	-0.0184967
1827.76	0.000665283	0.00439026
1828.24	-0.000811768	0.00822754
1828.7	-0.698669	-0.0184937
1829.16	0.000985718	0.00439087
1829.64	0.000598145	0.00822144
1830.1	-0.697937	-0.0185028
1830.56	0.000900269	0.00439026
1831.04	-0.000759888	0.00822449
1831.5	-0.697662	-0.0184875
1831.96	-0.000564575	0.00439941
1832.44	-0.000701904	0.00822449
1832.9	-0.697418	-0.0184845
1833.36	-0.000479126	0.00440063
1833.84	-0.000189209	0.00822754
1834.3	-0.698425	-0.0184906
1834.76	-0.000280762	0.00440094
1835.24	0.000210571	0.00822449
1835.7	-0.697601	-0.0184967
1836.16	3.05176e-06	0.00440155
1836.64	-0.000875854	0.00821228
1837.1	-0.697632	-0.0184967
1837.56	0.000698853	0.00439575
1838.04	-0.00071106	0.00821838
1838.5	-0.697601	-0.0184845
1838.96	-0.000378418	0.00440399
1839.44	-0.000817871	0.00821228
1839.9	-0.697784	-0.0184967
1840.36	0.000360107	0.00439575
1840.84	0.000469971	0.00820618
1841.3	-0.698822	-0.0184845
1841.76	0.00085144	0.00439423
1842.24	-0.000778198	0.00821533
1842.7	-0.697601	-0.0184875
1843.16	0.000323486	0.0044043
1843.64	-0.000900269	0.00821228
1844.1	-0.69751	-0.0184875
1844.56	-0.000561523	0.00440552
1845.04	0.000198364	0.00819702
1845.5	-0.697632	-0.0184845
1845.96	0.000189209	0.00440002
1846.44	0.000628662	0.008203125
1846.9	-0.698486	-0.0184784
1847.36	0.000891113	0.00439941
1847.84	-0.000646973	0.00821838
1848.3	-0.6987	-0.0184723
1848.76	0.000253296	0.00440643
1849.24	-0.000479126	0.00820618
1849.7	-0.698975	-0.0184845
1850.16	-0.000549316	0.00441132
1850.64	-0.000900269	0.00820923
1851.1	-0.698059	-0.0184906
1851.56	0.000906372	0.00440338
1852.04	3.05176e-06	0.00819702
1852.5	-0.698883	-0.0184753
1852.96	-2.13623e-05	0.0044101
1853.44	-0.000582886	0.00821228
1853.9	-0.699036	-0.0184845
1854.36	9.76562e-05	0.00440613
1854.84	0.000476074	0.00819702
1855.3	-0.697571	-0.0184845
1855.76	2.13623e-05	0.0044104
1856.24	-0.000662231	0.008203125
1856.7	-0.698975	-0.0184692
1857.16	0.000857544	0.00440369
1857.64	0.000430298	0.00820923
1858.1	-0.697571	-0.0184814
1858.56	-0.000210571	0.00441589
1859.04	-0.000292969	0.00821838
1859.5	-0.697968	-0.0184845
1859.96	0.000115967	0.00440796
1860.44	0.000170898	0.00819092
1860.9	-0.698975	-0.0184723
1861.36	-0.000445557	0.00441559
1861.84	0.0003479	0.00819397
1862.3	-0.698273	-0.0184723
1862.76	-0.000439453	0.00441833
1863.24	-0.0003479	0.00819092
1863.7	-0.699036	-0.0184753
1864.16	0.00083313	0.00441101
1864.64	0.00012207	0.00820923
1865.1	-0.697876	-0.0184784
1865.56	-0.000476074	0.00441498
1866.04	-0.000161743	0.00819092
1866.5	-0.698853	-0.0184753
1866.96	-0.000115967	0.00441986
1867.44	0.00057373	0.00819702
1867.9	-0.697723	-0.0184875
1868.36	-0.000302124	0.00441925
1868.84	0.000579834	0.00819397
1869.3	-0.697998	-0.0184875
1869.76	7.32422e-05	0.00441681
1870.24	0.000640869	0.00818787
1870.7	-0.698669	-0.0184753
1871.16	-0.000488281	0.00442352
1871.64	0.000601196	0.00819397
1872.1	-0.698883	-0.0184723
1872.56	0.000466919	0.00441376
1873.04	0.000656128	0.00820007
1873.5	-0.698425	-0.0184692
1873.96	0.00055542	0.00441467
1874.44	0.000604248	0.00818787
1874.9	-0.698242	-0.0184814
1875.36	0.00067749	0.00441925
1875.84	0.000549316	0.00819092
1876.3	-0.698853	-0.0184784
1876.76	-0.000436401	0.00442474
1877.24	-0.000488281	0.00818787
1877.7	-0.699036	-0.0184692
1878.16	0.000772095	0.00441772
1878.64	0.000619507	0.00818787
1879.1	-0.69873	-0.0184631
1879.56	0.000408936	0.00441956
1880.04	0.000558472	0.00819092
1880.5	-0.698029	-0.0184662
1880.96	0.000772095	0.00442383
1881.44	0.000314331	0.00819092
1881.9	-0.697723	-0.0184692
1882.36	0.000674438	0.00442322
1882.84	-0.000512695	0.00818787
1883.3	-0.698975	-0.0184662
1883.76	-0.000390625	0.00443146
1884.24	0.000460815	0.00818481
1884.7	-0.697601	-0.0184662
1885.16	-0.000177002	0.00442719
1885.64	-0.000646973	0.00818176
1886.1	-0.697815	-0.0184662
1886.56	0.000424194	0.00442719
1887.04	-0.000500488	0.00817871
1887.5	-0.697662	-0.0184692
1887.96	-0.000582886	0.00443054
1888.44	-0.000695801	0.00818481
1888.9	-0.697601	-0.0184692
1889.36	0.000762939	0.00442596
1889.84	0.000616455	0.00817566
1890.3	-0.697723	-0.0184723
1890.76	-0.000317383	0.00443054
1891.24	-0.000262451	0.00816956
1891.7	-0.698914	-0.0184509
1892.16	0.000463867	0.00442932
1892.64	0.000317383	0.00817871
1893.1	-0.697479	-0.0184631
1893.56	9.15527e-05	0.00443268
1894.04	-2.13623e-05	0.00819397
1894.5	-0.697571	-0.0184814
1894.96	-0.000302124	0.00443451
1895.44	0.000680542	0.00818176
1895.9	-0.697601	-0.0184845
1896.36	0.000848389	0.00442688
1896.84	0.000561523	0.00817871
1897.3	-0.69754	-0.0184906
1897.76	-0.000485229	0.00443512
1898.24	0.000576782	0.00817566
1898.7	-0.69873	-0.0184753
1899.16	0.000854492	0.00442719
1899.64	-0.000747681	0.00817871
1900.1	-0.698914	-0.0184692
1900.56	-0.00010376	0.00443115
1901.04	-0.000128174	0.00818787
1901.5	-0.698425	-0.0184753
1901.96	-0.000344849	0.00443573
1902.44	-0.000222778	0.00818481
1902.9	-0.697723	-0.0184753
1903.36	-0.000585937	0.00443481
1903.84	-0.000524902	0.00817566
1904.3	-0.698669	-0.0184723
1904.76	-0.000509644	0.00443756
1905.24	0.000341797	0.00816956
1905.7	-0.698914	-0.0184845
1906.16	-0.000143433	0.0044342
1906.64	0.000158691	0.00818481
1907.1	-0.69751	-0.0184753
1907.56	0.000784302	0.00443115
1908.04	0.000189209	0.00816956
1908.5	-0.697571	-0.0184753
1908.96	-0.000164795	0.00443634
1909.44	0.000543213	0.00816956
1909.9	-0.698853	-0.0184753
1910.36	-0.000146484	0.0044339
1910.84	0.000143433	0.00817566
1911.3	-0.698059	-0.0184906
1911.76	-0.000143433	0.00444183
1912.24	0.000289917	0.00816956
1912.7	-0.697601	-0.0184937
1913.16	-0.00010376	0.00444061
1913.64	0.00043335	0.00817871
1914.1	-0.698364	-0.0184784
1914.56	-0.000222778	0.00444275
1915.04	0.000579834	0.00817261
1915.5	-0.698425	-0.0184814
1915.96	-0.000405884	0.00444275
1916.44	-9.76562e-05	0.00818481
1916.9	-0.698151	-0.0184967
1917.36	-0.000579834	0.00444458
1917.84	0.000531006	0.00818481
1918.3	-0.698853	-0.0184814
1918.76	0.000888062	0.00443756
1919.24	0.000439453	0.00817566
1919.7	-0.697937	-0.0184967
1920.16	-0.000448608	0.00444794
1920.64	-6.71387e-05	0.0081665
1921.1	-0.698914	-0.0184784
1921.56	-0.000408936	0.00444855
1922.04	0.000149536	0.0081665
1922.5	-0.698944	-0.0184814
1922.96	0.000378418	0.00444122
1923.44	0.000473022	0.00817261
1923.9	-0.698883	-0.0184845
1924.36	-0.000457764	0.00445099
1924.84	-0.000814819	0.00817261
1925.3	-0.698914	-0.0184845
1925.76	0.000665283	0.00444458
1926.24	-0.000775146	0.00817566
1926.7	-0.697937	-0.0184875
1927.16	-0.000387573	0.00444916
1927.64	3.05176e-05	0.0081665
1928.1	-0.698944	-0.0184814
1928.56	0.000680542	0.00444244
1929.04	0.000350952	0.0081604
1929.5	-0.698914	-0.0184814
1929.96	0.000805664	0.00444489
1930.44	1.83105e-05	0.00817871
1930.9	-0.698669	-0.0184906
1931.36	0.000491333	0.00445007
1931.84	0.000686646	0.00817261
1932.3	-0.69809	-0.0184845
1932.76	-0.000512695	0.00445099
1933.24	-0.000164795	0.00816345
1933.7	-0.697662	-0.0184814
1934.16	-0.000463867	0.00445435
1934.64	0.00055542	0.00816345
1935.1	-0.698792	-0.0184845
1935.56	-0.000476074	0.00445465
1936.04	0.00020752	0.00816956
1936.5	-0.698334	-0.0184845
1936.96	-0.00043335	0.00445435
1937.44	-0.000393677	0.00817871
1937.9	-0.698273	-0.0184875
1938.36	0.000784302	0.00444733
1938.84	-0.000427246	0.00817261
1939.3	-0.697571	-0.0184814
1939.76	0.000796509	0.00445282
1940.24	0.000564575	0.00816345
1940.7	-0.697937	-0.0184937
1941.16	0.000588989	0.0044516
1941.64	-6.71387e-05	0.00817566
1942.1	-0.697571	-0.0184814
1942.56	-0.000393677	0.00445892
1943.04	-0.00067749	0.0081665
1943.5	-0.697662	-0.0184692
1943.96	-0.000497437	0.00445831
1944.44	-0.000518799	0.00817261
1944.9	-0.698517	-0.0184845
1945.36	-0.000485229	0.00446045
1945.84	0.000109863	0.00816956
1946.3	-0.698792	-0.0184814
1946.76	0.000143433	0.00445984
1947.24	-0.00027771	0.0081665
1947.7	-0.698608	-0.0184692
1948.16	-0.00043335	0.00446106
1948.64	-0.000445557	0.00815735
1949.1	-0.698578	-0.0184692
1949.56	-0.000167847	0.0044577
1950.04	0.000131226	0.00815125
1950.5	-0.698181	-0.0184814
1950.96	0.000665283	0.00445282
1951.44	0.000628662	0.0081543
1951.9	-0.698914	-0.0184784
1952.36	-0.000567627	0.00446289
1952.84	-0.000674438	0.00816345
1953.3	-0.69751	-0.0184784
1953.76	0.000744629	0.00445679
1954.24	0.000753784	0.0081543
1954.7	-0.698181	-0.0184784
1955.16	0.000888062	0.00445465
1955.64	0.000137329	0.00816345
1956.1	-0.698792	-0.0184662
1956.56	0.000811768	0.00445618
1957.04	0.000518799	0.00814819
1957.5	-0.697876	-0.0184753
1957.96	1.83105e-05	0.00446228
1958.44	0.000292969	0.00814819
1958.9	-0.698029	-0.0184631
1959.36	-8.23975e-05	0.00446289
1959.84	-9.46045e-05	0.00814819
1960.3	-0.698883	-0.0184692
1960.76	-0.00055542	0.00446808
1961.24	0.000598145	0.0081543
1961.7	-0.697601	-0.0184814
1962.16	0.000634766	0.00446686
1962.64	-9.15527e-05	0.00814514
1963.1	-0.697632	-0.0184784
1963.56	-0.000411987	0.00446808
1964.04	-0.000732422	0.00815125
1964.5	-0.697571	-0.0184753
1964.96	-0.000216675	0.00446655
1965.44	-0.000701904	0.00814819
1965.9	-0.698059	-0.0184753
1966.36	-0.000274658	0.00447174
1966.84	-0.000561523	0.00815125
1967.3	-0.699005	-0.0184662
1967.76	7.01904e-05	0.0044696
1968.24	-0.000439453	0.00814209
1968.7	-0.698608	-0.0184601
1969.16	-0.000210571	0.00446503
1969.64	0.000274658	0.00813904
1970.1	-0.697968	-0.0184692
1970.56	0.000326538	0.00446533
1971.04	0.000454712	0.00814209
1971.5	-0.697571	-0.0184723
1971.96	-0.000543213	0.00447449
1972.44	-0.000454712	0.00814209
1972.9	-0.697388	-0.0184692
1973.36	7.32422e-05	0.00447418
1973.84	-0.000827026	0.00814514
1974.3	-0.698975	-0.0184631
1974.76	0.000369263	0.00447205
1975.24	-0.000830078	0.00814819
1975.7	-0.69754	-0.0184692
1976.16	-0.000631714	0.0044751
1976.64	0.000793457	0.00814514
1977.1	-0.698669	-0.0184692
1977.56	-6.71387e-05	0.00447845
1978.04	-0.000805664	0.00814514
1978.5	-0.698517	-0.0184631
1978.96	0.000616455	0.0044696
1979.44	-0.000177002	0.00814819
1979.9	-0.698792	-0.018454
1980.36	0.000531006	0.00447113
1980.84	0.000616455	0.00813599
1981.3	-0.698883	-0.0184601
1981.76	0.000762939	0.00447113
1982.24	0.000271606	0.00813293
1982.7	-0.699005	-0.0184631
1983.16	0.000827026	0.00447205
1983.64	-0.000195313	0.00813599
1984.1	-0.698883	-0.0184631
1984.56	0.000231934	0.00448151
1985.04	-0.000613403	0.00814514
1985.5	-0.698181	-0.0184692
1985.96	-0.000549316	0.00448242
1986.44	-0.000820923	0.00814209
1986.9	-0.699097	-0.0184601
1987.36	-0.000527954	0.00448212
1987.84	-0.000158691	0.00813293
1988.3	-0.697968	-0.0184723
1988.76	0.000881958	0.00447357
1989.24	0.000631714	0.00813293
1989.7	-0.698181	-0.0184662
1990.16	0.000848389	0.0044751
1990.64	-0.000512695	0.00814209
1991.1	-0.697571	-0.0184662
1991.56	0.00078125	0.00447449
1992.04	0.000686646	0.00813904
1992.5	-0.698975	-0.018457
1992.96	-0.000427246	0.00448608
1993.44	-0.000543213	0.00814819
1993.9	-0.697571	-0.0184631
1994.36	-0.000360107	0.00448303
1994.84	9.15527e-05	0.00812683
1995.3	-0.697601	-0.018454
1995.76	-0.000326538	0.00448364
1996.24	0.000418091	0.00812378
1996.7	-0.698853	-0.0184509
1997.16	-0.000280762	0.00448425
1997.64	-0.000921631	0.00813599
1998.1	-0.697754	-0.0184662
1998.56	0.000765991	0.00447876
1999.04	0.00062561	0.00812378
1999.5	-0.698853	-0.0184479
1999.96	0.000524902	0.00448517
2000.44	0.000326538	0.00813293
2000.9	-0.697723	-0.0184631
2001.36	-0.000506592	0.00448883
2001.84	-0.000598145	0.00812683
2002.3	-0.699066	-0.0184509
2002.76	0.000817871	0.00448059
2003.24	-0.000741577	0.00813904
2003.7	-0.698792	-0.0184448
2004.16	0.000640869	0.00448151
2004.64	0.000695801	0.00812988
2005.1	-0.697876	-0.0184479
2005.56	0.00057373	0.0044809
2006.04	-0.000561523	0.00811768
2006.5	-0.697479	-0.018457
2006.96	0.0006073	0.00448761
2007.44	0.000115967	0.00813599
2007.9	-0.69754	-0.018454
2008.36	0.000891113	0.00448486
2008.84	0.000198364	0.00812988
2009.3	-0.698517	-0.0184601
2009.76	0.000650024	0.00448517
2010.24	-9.15527e-06	0.00812988
2010.7	-0.697906	-0.0184509
2011.16	0.000372314	0.00448669
2011.64	0.000424194	0.00812073
2012.1	-0.697845	-0.0184509
2012.56	-0.000527954	0.00449219
2013.04	-0.000512695	0.00812988
2013.5	-0.698181	-0.0184448
2013.96	-0.000387573	0.00449249
2014.44	-0.000805664	0.00812378
2014.9	-0.698944	-0.0184448
2015.36	-0.000540161	0.00449707
2015.84	7.62939e-05	0.00811157
2016.3	-0.697449	-0.0184479
2016.76	-0.00055542	0.00449768
2017.24	0.000396729	0.00811157
2017.7	-0.697632	-0.0184448
2018.16	-0.000524902	0.00449921
2018.64	9.15527e-06	0.00811157
2019.1	-0.698486	-0.0184479
2019.56	-0.000387573	0.00450073
2020.04	0.000756836	0.00811768
2020.5	-0.698944	-0.0184448
2020.96	0.000552368	0.00449738
2021.44	0.000561523	0.00811462
2021.9	-0.698669	-0.0184387
2022.36	0.000445557	0.00449585
2022.84	0.000341797	0.00810547
2023.3	-0.698975	-0.0184448
2023.76	0.000650024	0.00449188
2024.24	-0.00067749	0.00812073
2024.7	-0.698517	-0.0184357
2025.16	-0.000540161	0.00450287
2025.64	0.000619507	0.00811462
2026.1	-0.69754	-0.0184509
2026.56	0.000775146	0.00449554
2027.04	0.000378418	0.00812073
2027.5	-0.698975	-0.0184387
2027.96	0.000610352	0.00450073
2028.44	0.000656128	0.00810852
2028.9	-0.697662	-0.0184509
2029.36	-0.000582886	0.00450409
2029.84	-0.000125122	0.00810852
2030.3	-0.698608	-0.0184387
2030.76	0.000750732	0.00449738
2031.24	-0.00027771	0.00811768
2031.7	-0.698059	-0.0184387
2032.16	-0.000189209	0.00450409
2032.64	-0.000582886	0.00811768
2033.1	-0.697571	-0.0184448
2033.56	0.00038147	0.00450195
2034.04	0.000613403	0.00810242
2034.5	-0.699036	-0.0184357
2034.96	0.000561523	0.00450378
2035.44	-0.000604248	0.00811462
2035.9	-0.697601	-0.0184418
2036.36	8.54492e-05	0.00450012
2036.84	0.000244141	0.00811462
2037.3	-0.698639	-0.0184296
2037.76	1.52588e-05	0.00450287
2038.24	-0.000643921	0.00809937
2038.7	-0.698334	-0.0184448
2039.16	0.000421143	0.00450256
2039.64	0.00032959	0.00811157
2040.1	-0.69873	-0.0184387
2040.56	0.000344849	0.00450134
2041.04	-6.10352e-06	0.00809631
2041.5	-0.698822	-0.0184296
2041.96	4.27246e-05	0.00450684
2042.44	-9.46045e-05	0.00810852
2042.9	-0.69751	-0.0184387
2043.36	0.000534058	0.00449799
2043.84	0.000326538	0.00809631
2044.3	-0.698456	-0.0184387
2044.76	0.00065918	0.00450195
2045.24	-0.000790405	0.00810547
2045.7	-0.69754	-0.0184357
2046.16	0.000869751	0.00450104
2046.64	-0.000714111	0.00810852
2047.1	-0.698853	-0.0184265
2047.56	0.000366211	0.00450684
2048.04	-0.000799561	0.00810242
2048.5	-0.698608	-0.0184265
2048.96	0.00050354	0.00450745
2049.44	0.000384521	0.00810547
2049.9	-0.699005	-0.0184235
2050.36	0.000524902	0.00450287
2050.84	-0.000140381	0.00808411
2051.3	-0.699005	-0.0184265
2051.76	0.000708008	0.00450653
2052.24	-0.000354004	0.00809326
2052.7	-0.698517	-0.0184357
2053.16	0.000149536	0.00451202
2053.64	-0.000836182	0.00809937
2054.1	-0.697693	-0.0184265
2054.56	-0.000549316	0.0045163
2055.04	0.000643921	0.00809326
2055.5	-0.697937	-0.0184387
2055.96	-6.10352e-05	0.00451111
2056.44	0.000518799	0.00809937
2056.9	-0.697998	-0.0184235
2057.36	0.000991821	0.00450836
2057.84	-0.000799561	0.00809021
2058.3	-0.698395	-0.0184326
2058.76	-0.000588989	0.00451569
2059.24	0.000189209	0.00808716
2059.7	-0.698944	-0.0184235
2060.16	-0.000387573	0.00451813
2060.64	-0.000805664	0.00809021
2061.1	-0.698059	-0.0184357
2061.56	0.000598145	0.00450867
2062.04	-0.000527954	0.00809631
2062.5	-0.698792	-0.0184143
2062.96	0.000820923	0.00450806
2063.44	-0.000262451	0.00810242
2063.9	-0.699005	-0.0184143
2064.36	-0.00017395	0.00451202
2064.84	-0.000631714	0.00809631
2065.3	-0.697662	-0.0184326
2065.76	0.000558472	0.00451447
2066.24	-0.000588989	0.00809326
2066.7	-0.698059	-0.0184204
2067.16	0.000756836	0.00451294
2067.64	-0.000808716	0.00809326
2068.1	-0.698364	-0.0184296
2068.56	-0.000549316	0.00452026
2069.04	0.00065918	0.00808411
2069.5	-0.697601	-0.0184265
2069.96	0.000796509	0.00451324
2070.44	0.000323486	0.00809021
2070.9	-0.697845	-0.0184235
2071.36	-0.000579834	0.00452484
2071.84	-0.000579834	0.00809021
2072.3	-0.698822	-0.0184143
2072.76	-0.000543213	0.00452545
2073.24	0.000427246	0.00808716
2073.7	-0.699036	-0.0184204
2074.16	-0.000558472	0.00452362
2074.64	-0.000775146	0.00808411
2075.1	-0.697845	-0.0184296
2075.56	0.000759888	0.00451721
2076.04	-0.000186157	0.008078
2076.5	-0.697632	-0.0184265
2076.96	-0.000372314	0.00452362
2077.44	-0.000796509	0.00808411
2077.9	-0.698547	-0.0184296
2078.36	4.27246e-05	0.00451691
2078.84	-7.93457e-05	0.0080719
2079.3	-0.698944	-0.0184113
2079.76	-0.000192261	0.00452209
2080.24	-0.000396729	0.00807495
2080.7	-0.698181	-0.0184113
2081.16	-0.000497437	0.00452881
2081.64	-0.000109863	0.00808105
2082.1	-0.698608	-0.0184082
2082.56	0.000604248	0.00452301
2083.04	0.00062561	0.00806885
2083.5	-0.698975	-0.0184052
2083.96	0.000335693	0.00451996
2084.44	0.000500488	0.00806885
2084.9	-0.697937	-0.0184143
2085.36	-0.000662231	0.00452881
2085.84	0.000772095	0.00807495
2086.3	-0.697662	-0.0184265
2086.76	-0.000350952	0.00453094
2087.24	-0.000665283	0.008078
2087.7	-0.698669	-0.0184174
2088.16	0.000701904	0.00452118
2088.64	-0.000280762	0.00808411
2089.1	-0.697632	-0.0184204
2089.56	0.000653076	0.00452637
2090.04	-2.13623e-05	0.00806885
2090.5	-0.697601	-0.0184174
2090.96	0	0.00452759
2091.44	0.000137329	0.008078
2091.9	-0.698975	-0.0184021
2092.36	-4.27246e-05	0.00453461
2092.84	0.000170898	0.00808411
2093.3	-0.69751	-0.0184143
2093.76	0.000436401	0.00452454
2094.24	0.00057373	0.0080658
2094.7	-0.697754	-0.0184235
2095.16	0.000881958	0.00452545
2095.64	9.15527e-05	0.00805969
2096.1	-0.69751	-0.0184174
2096.56	3.66211e-05	0.00452972
2097.04	-0.000619507	0.00806885
2097.5	-0.697693	-0.0184143
2097.96	-2.44141e-05	0.00453064
2098.44	-0.000616455	0.00808411
2098.9	-0.698578	-0.0184143
2099.36	-0.000543213	0.00453583
2099.84	-0.000930786	0.0080719
2100.3	-0.697876	-0.0184174
2100.76	-0.000579834	0.00453278
2101.24	-0.000827026	0.0080658
2101.7	-0.698303	-0.0184021
2102.16	-0.000231934	0.00453278
2102.64	-0.000558472	0.00806885
2103.1	-0.698395	-0.018399
2103.56	-0.000308228	0.00453796
2104.04	0.000335693	0.0080719
2104.5	-0.698944	-0.0184052
2104.96	7.01904e-05	0.00453186
2105.44	-0.000656128	0.0080658
2105.9	-0.698456	-0.0184113
2106.36	0.000787354	0.00453003
2106.84	-0.000473022	0.00805969
2107.3	-0.698639	-0.018399
2107.76	0.000360107	0.0045401
2108.24	-0.000268555	0.00807495
2108.7	-0.697876	-0.0184143
2109.16	-2.13623e-05	0.00453644
2109.64	0.000308228	0.00805664
2110.1	-0.697479	-0.0184113
2110.56	0.000723267	0.00453583
2111.04	-0.000531006	0.00807495
2111.5	-0.69751	-0.0184082
2111.96	-0.000286865	0.00454407
2112.44	0.000219727	0.00805054
2112.9	-0.698883	-0.0184052
2113.36	-0.000567627	0.0045459
2113.84	-0.000704956	0.0080719
2114.3	-0.698944	-0.0184021
2114.76	0.0009552	0.00453461
2115.24	0.000643921	0.00805359
2115.7	-0.697723	-0.0184113
2116.16	0.000888062	0.00453674
2116.64	-0.000646973	0.00805664
2117.1	-0.698029	-0.0184143
2117.56	0.00088501	0.00453644
2118.04	-0.000683594	0.00805664
2118.5	-0.698761	-0.0184113
2118.96	-0.000201416	0.00454254
2119.44	0.000140381	0.0080658
2119.9	-0.698914	-0.0183929
2120.36	-0.000265503	0.00454651
2120.84	0.000527954	0.00806274
2121.3	-0.697815	-0.0184082
2121.76	-0.000579834	0.00454773
2122.24	0.000558472	0.00805359
2122.7	-0.698822	-0.0183899
2123.16	0.000106812	0.0045459
2123.64	-0.000436401	0.0080658
2124.1	-0.69873	-0.0184052
2124.56	0.000396729	0.00454041
2125.04	-0.000732422	0.00804749
2125.5	-0.698944	-0.0184052
2125.96	0.000738525	0.00454163
2126.44	0.00020752	0.00804443
2126.9	-0.697479	-0.0184113
2127.36	0.000656128	0.00454346
2127.84	-0.000183105	0.00804443
2128.3	-0.697632	-0.018399
2128.76	-0.000653076	0.00454865
2129.24	-0.000698853	0.00805969
2129.7	-0.697723	-0.0184113
2130.16	0.000839233	0.00454224
2130.64	0.00050354	0.00804443
2131.1	-0.699005	-0.0183929
2131.56	-0.000296021	0.00455292
2132.04	-0.000430298	0.00805054
2132.5	-0.697601	-0.018396
2132.96	0.000808716	0.00454376
2133.44	0.000506592	0.00805664
2133.9	-0.697693	-0.0184021
2134.36	-0.000506592	0.00455566
2134.84	-0.000842285	0.00805359
2135.3	-0.698608	-0.018399
2135.76	-0.000640869	0.00455566
2136.24	0.000494385	0.00804138
2136.7	-0.6987	-0.018396
2137.16	-0.000109863	0.00455566
2137.64	-0.000823975	0.00805054
2138.1	-0.697693	-0.0184021
2138.56	-0.00010376	0.00455139
2139.04	-0.0006073	0.00804443
2139.5	-0.699097	-0.0183899
2139.96	-0.000350952	0.00455475
2140.44	-0.000549316	0.00805054
2140.9	-0.699036	-0.0183838
2141.36	0.000814819	0.00454803
2141.84	-0.000897217	0.00804749
2142.3	-0.697815	-0.0184052
2142.76	0.000845337	0.00455383
2143.24	0.000289917	0.00803833
2143.7	-0.697479	-0.018396
2144.16	-0.000534058	0.0045578
2144.64	0.000460815	0.00804443
2145.1	-0.697632	-0.018396
2145.56	-6.10352e-06	0.00455444
2146.04	0.000180054	0.00804443
2146.5	-0.697571	-0.0184021
2146.96	0.000540161	0.00455475
2147.44	-0.000787354	0.00804138
2147.9	-0.699036	-0.0183838
2148.36	-0.000198364	0.00456116
2148.84	0.000723267	0.00804443
2149.3	-0.697815	-0.0184052
2149.76	-0.000262451	0.00456299
2150.24	-1.2207e-05	0.00805054
2150.7	-0.697845	-0.0183868
2151.16	0.000875854	0.00455444
2151.64	0.000143433	0.00803528
2152.1	-0.698944	-0.0183807
2152.56	-0.00057373	0.0045639
2153.04	0.000595093	0.00804443
2153.5	-0.697418	-0.0183899
2153.96	7.01904e-05	0.00456146
2154.44	-0.000704956	0.00804443
2154.9	-0.697601	-0.0183899
2155.36	1.52588e-05	0.00455841
2155.84	-0.000610352	0.00803528
2156.3	-0.6987	-0.018396
2156.76	0.000314331	0.00456268
2157.24	-0.000750732	0.00802917
2157.7	-0.698822	-0.0183777
2158.16	0.000369263	0.00456177
2158.64	0.000473022	0.00803223
2159.1	-0.69754	-0.0183929
2159.56	0.000622559	0.0045578
2160.04	-0.000799561	0.00803833
2160.5	-0.697754	-0.018396
2160.96	0.000830078	0.00455658
2161.44	-0.000521851	0.00803223
2161.9	-0.697906	-0.018396
2162.36	0.000704956	0.00456055
2162.84	-0.000872803	0.00803833
2163.3	-0.698975	-0.0183807
2163.76	-2.13623e-05	0.00455994
2164.24	0.000137329	0.00805054
2164.7	-0.698914	-0.0183838
2165.16	0.000476074	0.00456055
2165.64	0.0006073	0.00803223
2166.1	-0.698059	-0.0183899
2166.56	0.000537109	0.00456146
2167.04	-0.000674438	0.00803223
2167.5	-0.697449	-0.0183838
2167.96	-0.000531006	0.00457153
2168.44	-0.000683594	0.00804138
2168.9	-0.698944	-0.0183838
2169.36	0.000350952	0.00456238
2169.84	0.000363159	0.00801697
2170.3	-0.697845	-0.0183899
2170.76	-1.2207e-05	0.00456238
2171.24	-0.000442505	0.00803833
2171.7	-0.698425	-0.0183716
2172.16	0.000439453	0.00456238
2172.64	0.000631714	0.00802917
2173.1	-0.69754	-0.0183899
2173.56	0.000515747	0.00456787
2174.04	-0.000598145	0.00803528
2174.5	-0.698975	-0.0183868
2174.96	-0.000549316	0.00457397
2175.44	0.000445557	0.00803528
2175.9	-0.69873	-0.0183716
2176.36	-0.000415039	0.00457489
2176.84	0.000357056	0.00802002
2177.3	-0.697571	-0.0183807
2177.76	0.00062561	0.00456329
2178.24	-0.000140381	0.00803528
2178.7	-0.697815	-0.0183899
2179.16	0.000723267	0.00457092
2179.64	0.000585937	0.00802917
2180.1	-0.699005	-0.0183685
2180.56	-0.000152588	0.00457245
2181.04	-0.000720215	0.00802002
2181.5	-0.698914	-0.0183777
2181.96	-0.000360107	0.00457794
2182.44	0.000271606	0.00802612
2182.9	-0.698914	-0.0183777
2183.36	0.000653076	0.00456726
2183.84	2.13623e-05	0.00801392
2184.3	-0.697815	-0.0183807
2184.76	-0.000302124	0.00457825
2185.24	-0.000900269	0.00801697
2185.7	-0.697601	-0.0183777
2186.16	0.00057373	0.00456696
2186.64	-0.000332642	0.00802612
2187.1	-0.69812	-0.0183716
2187.56	0.000198364	0.00457489
2188.04	-0.000802612	0.00802307
2188.5	-0.698853	-0.0183807
2188.96	0.000878906	0.00457001
2189.44	-0.000839233	0.00802307
2189.9	-0.698761	-0.0183655
2190.36	0.000631714	0.00457001
2190.84	0.000506592	0.00802002
2191.3	-0.697571	-0.0183746
2191.76	-0.000430298	0.00457947
2192.24	-0.000119019	0.00800781
2192.7	-0.69812	-0.0183807
2193.16	-0.000445557	0.00457581
2193.64	9.76562e-05	0.00802307
2194.1	-0.698059	-0.0183746
2194.56	0.000836182	0.00457153
2195.04	-0.000823975	0.00801392
2195.5	-0.699036	-0.0183746
2195.96	0.000238037	0.00457428
2196.44	0.000308228	0.00802307
2196.9	-0.698944	-0.0183685
2197.36	-0.00032959	0.00458282
2197.84	-0.000509644	0.00800781
2198.3	-0.699005	-0.0183685
2198.76	0.000491333	0.00457916
2199.24	9.15527e-05	0.00800476
2199.7	-0.698334	-0.0183807
2200.16	0.000454712	0.00458221
2200.64	-0.000747681	0.00801392
2201.1	-0.698029	-0.0183838
2201.56	-0.00015564	0.00458496
2202.04	5.79834e-05	0.00800171
2202.5	-0.697601	-0.0183685
2202.96	-0.000537109	0.00458679
2203.44	6.40869e-05	0.00799866
2203.9	-0.698975	-0.0183624
2204.36	-7.62939e-05	0.00458527
2204.84	0.000265503	0.00800171
2205.3	-0.698944	-0.0183624
2205.76	0.00039978	0.00458527
2206.24	-0.000939941	0.00800781
2206.7	-0.698883	-0.0183563
2207.16	-0.00057373	0.0045871
2207.64	-0.000518799	0.00801086
2208.1	-0.697479	-0.0183716
2208.56	-0.000115967	0.00458252
2209.04	0.000634766	0.00799866
2209.5	-0.697754	-0.0183594
2209.96	-8.23975e-05	0.0045874
2210.44	-0.000140381	0.00801392
2210.9	-0.697998	-0.0183746
2211.36	0.000900269	0.00457886
2211.84	-0.000204468	0.00800476
2212.3	-0.698669	-0.0183624
2212.76	-0.000546265	0.00458923
2213.24	-0.000537109	0.00801392
2213.7	-0.697662	-0.0183655
2214.16	0.000445557	0.00457855
2214.64	-5.79834e-05	0.00799866
2215.1	-0.698975	-0.0183594
2215.56	0.000866699	0.00457977
2216.04	0.000186157	0.00801697
2216.5	-0.697845	-0.0183716
2216.96	0.000112915	0.00458374
2217.44	0.000427246	0.00800476
2217.9	-0.697937	-0.0183716
2218.36	-0.000341797	0.00459137
2218.84	-0.000805664	0.00800476
2219.3	-0.697723	-0.0183624
2219.76	0.000524902	0.00458832
2220.24	0.000497437	0.00799866
2220.7	-0.698181	-0.0183685
2221.16	0.000952148	0.00458374
2221.64	0.000634766	0.00799561
2222.1	-0.698822	-0.0183563
2222.56	0.000427246	0.00458496
2223.04	0.000686646	0.00801392
2223.5	-0.697754	-0.0183777
2223.96	-9.46045e-05	0.00458862
2224.44	-0.000366211	0.00800171
2224.9	-0.69754	-0.0183807
2225.36	0.000854492	0.00458374
2225.84	0.000628662	0.00800781
2226.3	-0.698944	-0.0183746
2226.76	0.00038147	0.00459076
2227.24	-0.000796509	0.00800171
2227.7	-0.69812	-0.0183838
2228.16	-0.000241089	0.00458893
2228.64	0.000650024	0.00800781
2229.1	-0.697662	-0.0183838
2229.56	-0.000241089	0.00459656
2230.04	0.000643921	0.00800476
2230.5	-0.698547	-0.0183716
2230.96	0.000769043	0.0045874
2231.44	0.000509644	0.00800781
2231.9	-0.698944	-0.0183807
2232.36	0.00010376	0.00459167
2232.84	0.000616455	0.00800476
2233.3	-0.698914	-0.0183716
2233.76	-0.000268555	0.00459869
2234.24	0.000393677	0.00800171
2234.7	-0.697571	-0.0183807
2235.16	-0.000549316	0.00460083
2235.64	-0.000689697	0.00800171
2236.1	-0.698975	-0.0183655
2236.56	-0.000527954	0.00460144
2237.04	0.000421143	0.00799866
2237.5	-0.698547	-0.0183685
2237.96	0.000653076	0.00459534
2238.44	-0.000543213	0.00800476
2238.9	-0.697388	-0.0183777
2239.36	0.000756836	0.00459167
2239.84	0.000622559	0.00800476
2240.3	-0.697693	-0.0183807
2240.76	2.44141e-05	0.0045993
2241.24	0.000354004	0.0079895
2241.7	-0.697449	-0.0183746
2242.16	-8.54492e-05	0.0045929
2242.64	0.000143433	0.00799255
2243.1	-0.6987	-0.0183716
2243.56	0.000656128	0.00459473
2244.04	-0.000500488	0.00800781
2244.5	-0.69754	-0.0183746
2244.96	-0.000167847	0.00460236
2245.44	-0.000289917	0.00800476
2245.9	-0.69873	-0.0183655
2246.36	6.71387e-05	0.00459991
2246.84	0.000158691	0.0079834
2247.3	-0.697693	-0.0183777
2247.76	-0.000518799	0.00460236
2248.24	0.000604248	0.00799866
2248.7	-0.698547	-0.0183624
2249.16	0.000939941	0.00459625
2249.64	-0.000646973	0.00799561
2250.1	-0.698792	-0.0183624
2250.56	0.000137329	0.00460388
2251.04	0.000442505	0.00800171
2251.5	-0.698944	-0.0183563
2251.96	-0.00050354	0.00460693
2252.44	-0.000265503	0.00800171
2252.9	-0.699097	-0.0183655
2253.36	0.000491333	0.00459839
2253.84	-0.000323486	0.00800476
2254.3	-0.698822	-0.0183502
2254.76	0.00088501	0.00459686
2255.24	-0.000793457	0.00799255
2255.7	-0.69873	-0.0183685
2256.16	-0.000570679	0.00460419
2256.64	0.000735474	0.0079895
2257.1	-0.697571	-0.0183746
2257.56	0.00088501	0.00459961
2258.04	0.000665283	0.00798645
2258.5	-0.698975	-0.0183594
2258.96	-0.000567627	0.00460785
2259.44	-0.000836182	0.0079895
2259.9	-0.697754	-0.0183563
2260.36	-0.000140381	0.00460846
2260.84	-0.000527954	0.00800171
2261.3	-0.697937	-0.0183716
2261.76	3.05176e-05	0.00460236
2262.24	0.000210571	0.00798035
2262.7	-0.698547	-0.0183563
2263.16	0.000308228	0.00460022
2263.64	0.000756836	0.00798645
2264.1	-0.69751	-0.0183746
2264.56	-0.000366211	0.00461029
2265.04	-0.00027771	0.00798035
2265.5	-0.698608	-0.0183502
2265.96	5.79834e-05	0.00460449
2266.44	0.000234985	0.00799561
2266.9	-0.698853	-0.0183502
2267.36	-0.00039978	0.00460876
2267.84	-5.18799e-05	0.00797729
2268.3	-0.698822	-0.0183502
2268.76	-0.000564575	0.00461243
2269.24	-0.000488281	0.00798035
2269.7	-0.698059	-0.0183563
2270.16	-7.32422e-05	0.00461151
2270.64	0.000405884	0.00799255
2271.1	-0.697968	-0.0183563
2271.56	0.00101013	0.0046051
2272.04	-0.00062561	0.00798035
2272.5	-0.698639	-0.0183594
2272.96	0.000866699	0.00460571
2273.44	0.000436401	0.0079834
2273.9	-0.698914	-0.0183472
2274.36	-0.000479126	0.00461456
2274.84	-0.000701904	0.0079834
2275.3	-0.698029	-0.0183624
2275.76	0.000848389	0.00460632
2276.24	-0.000482178	0.00797729
2276.7	-0.698792	-0.0183472
2277.16	-0.000192261	0.00461121
2277.64	0.00050354	0.00797424
2278.1	-0.698395	-0.0183594
2278.56	0.000842285	0.00460602
2279.04	0.000418091	0.00796814
2279.5	-0.69809	-0.0183502
2279.96	-0.000323486	0.00461395
2280.44	4.57764e-05	0.0079834
2280.9	-0.69751	-0.0183502
2281.36	9.46045e-05	0.00461151
2281.84	-0.000143433	0.00797119
2282.3	-0.698212	-0.0183563
2282.76	-0.000439453	0.00461792
2283.24	-0.000415039	0.00798645
2283.7	-0.697632	-0.0183563
2284.16	2.44141e-05	0.00461334
2284.64	-8.8501e-05	0.00796814
2285.1	-0.697815	-0.0183594
2285.56	0.000994873	0.0046106
2286.04	0.00067749	0.00797424
2286.5	-0.697632	-0.0183594
2286.96	0.00067749	0.00461395
2287.44	0.000592041	0.00797119
2287.9	-0.69754	-0.0183594
2288.36	-0.000585937	0.00462006
2288.84	-0.000769043	0.00798035
2289.3	-0.698059	-0.0183472
2289.76	0.000314331	0.00461304
2290.24	0.000637817	0.00797729
2290.7	-0.698944	-0.0183472
2291.16	0.000524902	0.004617
2291.64	0.000622559	0.00796814
2292.1	-0.697571	-0.0183502
2292.56	0.000253296	0.00462158
2293.04	3.35693e-05	0.00796814
2293.5	-0.699005	-0.0183441
2293.96	0.000732422	0.00461426
2294.44	-9.46045e-05	0.00798035
2294.9	-0.698853	-0.0183472
2295.36	-0.000543213	0.00462433
2295.84	-0.000689697	0.00797119
2296.3	-0.69751	-0.0183472
2296.76	0.000335693	0.00462067
2297.24	0.000436401	0.00796509
2297.7	-0.698639	-0.018335
2298.16	-0.000216675	0.00462067
2298.64	-0.000683594	0.00797424
2299.06	-0.000500488	0.00277588