File: Edgar/20240607/20240607/electrodeposition_pulsed_potential_20240607_B/pulses_0_to_1000.txt
Time (s)	WE(1).Potential (V)	WE(1).Current (A)
181.633	-0.698364	-0.00317383
182.093	0.000695801	5.0354e-06
182.573	0.00102844	9.51233e-05
183.033	-0.699341	-0.00308624
183.493	0.000881958	1.8219e-05
183.973	-6.71387e-05	0.000139801
184.433	-0.698669	-0.00358917
184.893	0.000115967	2.60925e-05
185.373	-0.000527954	0.000179169
185.833	-0.698822	-0.00413147
186.293	0.000167847	3.12195e-05
186.773	-0.000479126	0.000217224
187.233	-0.698242	-0.00468292
187.693	-0.000567627	4.22974e-05
188.173	-0.00039978	0.000261444
188.633	-0.699432	-0.00521179
189.093	0.000619507	4.09241e-05
189.573	0.000836182	0.000304413
190.033	-0.69928	-0.00575378
190.493	-0.000296021	5.20325e-05
190.973	-0.000552368	0.000376373
191.433	-0.698303	-0.00628693
191.893	0.000500488	4.8645e-05
192.373	-0.00022583	0.00044812
192.833	-0.698212	-0.00680115
193.293	0.000195313	4.75159e-05
193.773	-0.000201416	0.000543213
194.233	-0.698761	-0.00728363
194.693	0.000942993	3.42102e-05
195.173	0.000985718	0.000641479
195.633	-0.699036	-0.00774536
196.093	0.000622559	3.11584e-05
196.573	-2.13623e-05	0.00077179
197.033	-0.699707	-0.00813904
197.493	-0.000445557	2.42615e-05
197.973	3.96729e-05	0.000926819
198.433	-0.698608	-0.00852356
198.893	0.000820923	4.15039e-06
199.373	0.000942993	0.00111755
199.833	-0.699799	-0.00887146
200.293	0.000616455	-2.22778e-06
200.773	0.00102539	0.00135101
201.233	-0.699371	-0.00919189
201.693	0.000912476	-1.34583e-05
202.173	0.00103149	0.00161621
202.633	-0.698822	-0.00950928
203.093	0.000857544	-2.16064e-05
203.573	0.00050354	0.00190491
204.033	-0.698639	-0.00977783
204.493	-0.000448608	-1.71814e-05
204.973	0.000942993	0.00220612
205.433	-0.699371	-0.0100433
205.893	9.15527e-05	-2.72522e-05
206.373	0.00108337	0.00250977
206.833	-0.698456	-0.0102905
207.293	0.000668335	-3.1311e-05
207.773	-0.000576782	0.00281647
208.233	-0.699463	-0.0105194
208.693	-9.15527e-05	-2.99377e-05
209.173	-0.000146484	0.00311279
209.633	-0.698456	-0.010733
210.093	-0.000125122	-3.81775e-05
210.573	-0.000354004	0.00339478
211.033	-0.699097	-0.0109406
211.493	0.000866699	-4.65698e-05
211.973	-0.000436401	0.00366486
212.433	-0.698456	-0.0111481
212.893	0.000216675	-4.40674e-05
213.373	0.000701904	0.00391052
213.833	-0.698029	-0.011319
214.293	-0.000549316	-4.10156e-05
214.773	0.000378418	0.0041571
215.233	-0.698639	-0.0114777
215.693	0.000454712	-4.84924e-05
216.173	0.000970459	0.00437897
216.633	-0.699402	-0.0116425
217.093	0.000744629	-5.36804e-05
217.573	-0.000540161	0.00460266
218.033	-0.698273	-0.011795
218.493	-0.00043335	-4.5929e-05
218.973	0.000393677	0.00479523
219.433	-0.697968	-0.0119537
219.893	-0.000653076	-4.72717e-05
220.373	-0.000497437	0.00499237
220.833	-0.699036	-0.012085
221.293	-0.000161743	-5.61218e-05
221.773	-0.000262451	0.00517731
222.233	-0.697937	-0.0122162
222.693	0.000149536	-5.36194e-05
223.173	-0.000512695	0.00534698
223.633	-0.698029	-0.0123413
224.093	0.000424194	-5.59082e-05
224.573	-0.000250244	0.00550659
225.033	-0.69809	-0.0124664
225.493	0.000753784	-5.81055e-05
225.973	0.00090332	0.00564972
226.433	-0.699554	-0.0125702
226.893	-0.000119019	-5.2887e-05
227.373	-0.00050354	0.00580444
227.833	-0.69812	-0.0126862
228.293	0.000759888	-5.77087e-05
228.773	0.000891113	0.0059314
229.233	-0.698608	-0.0127747
229.693	-0.000408936	-5.03845e-05
230.173	-0.000216675	0.0060733
230.633	-0.698761	-0.0128754
231.093	-0.000570679	-4.82178e-05
231.573	0.000952148	0.00618866
232.033	-0.699341	-0.0129791
232.493	0.00106201	-5.77393e-05
232.973	0.000964355	0.00630798
233.433	-0.699402	-0.0130615
233.893	-0.000598145	-4.98047e-05
234.373	5.49316e-05	0.00642487
234.833	-0.69809	-0.0131622
235.293	0.000143433	-5.32227e-05
235.773	0.000195313	0.00653839
236.233	-0.698425	-0.0132538
236.693	-0.000534058	-4.73938e-05
237.173	-0.000299072	0.00664276
237.633	-0.697937	-0.013327
238.093	0.000836182	-5.59387e-05
238.573	0.000805664	0.00674011
239.033	-0.699249	-0.0134003
239.493	-0.000274658	-4.55933e-05
239.973	-0.000357056	0.00684143
240.433	-0.698303	-0.0134857
240.893	0.000830078	-5.3894e-05
241.373	0.000796509	0.00693024
241.833	-0.697906	-0.013562
242.293	-0.000393677	-4.42505e-05
242.773	-0.000231934	0.0070224
243.233	-0.699066	-0.0136322
243.693	-0.000515747	-4.10767e-05
244.173	0.000588989	0.00710358
244.633	-0.699341	-0.0136963
245.093	-0.000598145	-4.1687e-05
245.573	-0.000216675	0.00718903
246.033	-0.698853	-0.0137756
246.493	-0.000421143	-3.70483e-05
246.973	-0.000592041	0.00727661
247.433	-0.698517	-0.0138367
247.893	-0.000244141	-3.76587e-05
248.373	-0.000360107	0.00735474
248.833	-0.697876	-0.013913
249.293	-0.000363159	-3.50037e-05
249.773	-0.000637817	0.00742767
250.233	-0.698639	-0.0139801
250.693	0.000683594	-4.02222e-05
251.173	0.000637817	0.00749512
251.633	-0.698639	-0.0140198
252.093	-0.000112915	-3.35388e-05
252.573	0.000698853	0.0075592
253.033	-0.698273	-0.0140961
253.493	5.49316e-05	-3.36609e-05
253.973	-0.000314331	0.0076416
254.433	-0.698059	-0.014151
254.893	0.000552368	-3.40576e-05
255.373	-0.00083313	0.00769958
255.833	-0.699341	-0.014209
256.293	-0.000491333	-2.2583e-05
256.773	-0.000875854	0.00775757
257.233	-0.697937	-0.0142639
257.693	0.000949097	-3.2135e-05
258.173	-0.000170898	0.00782471
258.633	-0.697937	-0.014325
259.093	-0.000372314	-1.90125e-05
259.573	-0.000646973	0.00788574
260.033	-0.699463	-0.0143707
260.493	0.000350952	-2.37732e-05
260.973	0.000656128	0.00793457
261.433	-0.698456	-0.0144226
261.893	-0.000558472	-1.35193e-05
262.373	0.000653076	0.0079895
262.833	-0.697968	-0.0144836
263.293	0.000567627	-1.85242e-05
263.773	0.000219727	0.00803833
264.233	-0.698883	-0.0145203
264.693	0.000836182	-1.75171e-05
265.173	-0.00050354	0.00808105
265.633	-0.697998	-0.0145874
266.093	0.000601196	-1.19019e-05
266.573	0.000201416	0.00814514
267.033	-0.699036	-0.014621
267.493	0.000360107	-7.62939e-06
267.973	0.000570679	0.00818176
268.433	-0.698578	-0.0146851
268.893	-0.000637817	3.17383e-06
269.373	0.000790405	0.00823059
269.833	-0.697784	-0.0147278
270.293	-0.000430298	7.90405e-06
270.773	9.15527e-06	0.00826721
271.233	-0.697784	-0.0147675
271.693	0.000933838	-8.8501e-07
272.173	0.000531006	0.00831909
272.633	-0.698822	-0.014798
273.093	0.000509644	5.82886e-06
273.573	0.000680542	0.00835266
274.033	-0.698578	-0.0148499
274.493	0.0003479	1.11694e-05
274.973	-5.18799e-05	0.00838928
275.433	-0.699402	-0.0148895
275.893	0.000952148	9.49097e-06
276.373	-0.000579834	0.00843201
276.833	-0.698151	-0.0149323
277.293	-0.000384521	2.36816e-05
277.773	-0.000396729	0.00848083
278.233	-0.69931	-0.0149811
278.693	-0.00045166	2.66724e-05
279.173	-0.000521851	0.00852356
279.633	-0.699127	-0.0150116
280.093	-0.000427246	3.04871e-05
280.573	-0.000180054	0.00853882
281.033	-0.69812	-0.0150574
281.493	0.000881958	2.44141e-05
281.973	-0.000436401	0.00858765
282.433	-0.697998	-0.0151031
282.893	0.000698853	2.89307e-05
283.373	-0.000750732	0.00861511
283.833	-0.698364	-0.0151367
284.293	0.000762939	3.68347e-05
284.773	0.000674438	0.00864258
285.233	-0.698364	-0.0151855
285.693	-0.000524902	4.99878e-05
286.173	-0.00071106	0.00867004
286.633	-0.697784	-0.0152222
287.093	0.000866699	4.47388e-05
287.573	0.000668335	0.00870056
288.033	-0.698761	-0.0152588
288.493	0.000933838	4.85229e-05
288.973	0.000704956	0.00872498
289.433	-0.698212	-0.0153046
289.893	0.000836182	5.51758e-05
290.373	0.000671387	0.00875549
290.833	-0.698853	-0.0153259
291.293	0.000875854	5.95703e-05
291.773	0.000146484	0.00877991
292.233	-0.699158	-0.0153534
292.693	-0.000189209	6.91833e-05
293.173	-0.00088501	0.00880737
293.633	-0.698334	-0.01539
294.093	-0.000643921	7.901e-05
294.573	0.000317383	0.00883789
295.033	-0.698242	-0.0154358
295.493	-0.000512695	8.40759e-05
295.973	0.000588989	0.0088562
296.433	-0.6987	-0.0154541
296.893	-0.000344849	8.81653e-05
297.373	0.000601196	0.00888672
297.833	-0.697815	-0.015506
298.293	0.000860596	8.48999e-05
298.773	-0.000357056	0.00892334
299.233	-0.697937	-0.0155243
299.693	0.000839233	9.13391e-05
300.173	0.000610352	0.0089447
300.633	-0.69812	-0.0155579
301.093	0.000170898	0.000102478
301.573	0.000454712	0.00896606
302.033	-0.698944	-0.0155945
302.493	0.000921631	0.000103088
302.973	-0.000149536	0.00898132
303.433	-0.69873	-0.0156219
303.893	-0.000128174	0.000117645
304.373	0.000576782	0.00899963
304.833	-0.698364	-0.0156616
305.293	-0.000683594	0.000127228
305.773	0.000460815	0.00903931
306.233	-0.699249	-0.015683
306.693	-0.000637817	0.000130157
307.173	-0.000698853	0.00905762
307.633	-0.699249	-0.0157135
308.093	0.000408936	0.000132477
308.573	0.000408936	0.00907288
309.033	-0.699158	-0.0157349
309.493	-0.000531006	0.000143616
309.973	-0.000637817	0.00909119
310.433	-0.697693	-0.0157837
310.893	-0.000210571	0.000149628
311.373	0.000695801	0.00911255
311.833	-0.697968	-0.015799
312.293	-0.000494385	0.000157318
312.773	-0.000323486	0.00913086
313.233	-0.699036	-0.0158325
313.693	0.000357056	0.000157013
314.173	-0.000714111	0.00915222
314.633	-0.69928	-0.0158539
315.093	-2.44141e-05	0.000165741
315.573	0.000799561	0.00916138
316.033	-0.697815	-0.0158936
316.493	0.00101318	0.000167419
316.973	0.000570679	0.00917969
317.433	-0.697754	-0.015921
317.893	0.000909424	0.000176758
318.373	-0.000515747	0.00919189
318.833	-0.697906	-0.0159393
319.293	0.000558472	0.000182587
319.773	-0.000683594	0.00922241
320.233	-0.698914	-0.0159729
320.693	0.000872803	0.00018866
321.173	-0.000500488	0.00924072
321.633	-0.697968	-0.0159912
322.093	-9.46045e-05	0.000201416
322.573	0.000286865	0.00924072
323.033	-0.69931	-0.0160187
323.493	0.000604248	0.000203918
323.973	4.27246e-05	0.00924988
324.433	-0.698975	-0.01604
324.893	-0.000466919	0.00021991
325.373	0.000354004	0.0092804
325.833	-0.69928	-0.0160675
326.293	0.000537109	0.000219055
326.773	0.000131226	0.00929871
327.233	-0.697876	-0.016098
327.693	3.05176e-05	0.000230682
328.173	-1.2207e-05	0.00932617
328.633	-0.697998	-0.0161255
329.093	-0.000622559	0.000241516
329.573	0.000344849	0.00933533
330.033	-0.697906	-0.0161469
330.493	-0.000616455	0.000251617
330.973	0.000506592	0.00932922
331.433	-0.698334	-0.0161652
331.893	0.000787354	0.000248169
332.373	0.00072937	0.00935059
332.833	-0.697723	-0.0162018
333.293	-0.000460815	0.000266144
333.773	-0.000823975	0.00937195
334.233	-0.698822	-0.0162262
334.693	0.000906372	0.00026358
335.173	0.000482178	0.00937805
335.633	-0.697906	-0.0162415
336.093	-0.000408936	0.000281097
336.573	-0.000793457	0.00939331
337.033	-0.697998	-0.016272
337.493	0.000839233	0.000280151
337.973	-0.000427246	0.00939941
338.433	-0.697845	-0.0162903
338.893	0.000402832	0.000290894
339.373	0.000112915	0.00940552
339.833	-0.699219	-0.0163055
340.293	-6.71387e-05	0.000299103
340.773	0.000137329	0.00943604
341.233	-0.697723	-0.0163391
341.693	3.35693e-05	0.000314148
342.173	0.000628662	0.00943298
342.633	-0.697723	-0.0163635
343.093	-0.000537109	0.000323059
343.573	-0.000360107	0.00944824
344.033	-0.697998	-0.0163788
344.493	0.000531006	0.000324036
344.973	0.000540161	0.00946045
345.433	-0.698761	-0.016391
345.893	0.000390625	0.000334595
346.373	0.00057373	0.00947266
346.833	-0.698822	-0.0164093
347.293	-0.000424194	0.000346771
347.773	-2.13623e-05	0.00947266
348.233	-0.697815	-0.016449
348.693	-0.000534058	0.000356873
349.173	-0.000854492	0.00949402
349.633	-0.699127	-0.0164612
350.093	4.57764e-05	0.000360992
350.573	0.00032959	0.00950928
351.033	-0.699097	-0.0164795
351.493	0.00100403	0.000362701
351.973	-0.000167847	0.00952759
352.433	-0.69928	-0.0165009
352.893	-0.000604248	0.000383698
353.373	0.000177002	0.00953369
353.833	-0.699188	-0.0165222
354.293	-0.000271606	0.000390259
354.773	0.000137329	0.00954285
355.233	-0.699188	-0.0165466
355.693	-0.000604248	0.000399933
356.173	-0.000424194	0.009552
356.633	-0.698334	-0.016571
357.093	0.000396729	0.000401367
357.573	-0.000695801	0.00955811
358.033	-0.698761	-0.0165771
358.493	0.000418091	0.000412079
358.973	0.000650024	0.00956421
359.433	-0.698273	-0.0166138
359.893	0.000646973	0.000418671
360.373	-0.000708008	0.00956726
360.833	-0.697662	-0.0166321
361.293	-0.000390625	0.000435577
361.773	0.000112915	0.00958557
362.233	-0.699097	-0.0166321
362.693	0.000918579	0.000435791
363.173	0.000622559	0.00958557
363.633	-0.699097	-0.0166504
364.093	0.000244141	0.000445038
364.573	0.000796509	0.00959778
365.033	-0.697662	-0.016684
365.493	0.000958252	0.000452332
365.973	-0.000820923	0.00960999
366.433	-0.698486	-0.0166931
366.893	-0.000454712	0.000473877
367.373	-8.8501e-05	0.00960388
367.833	-0.698334	-0.0167053
368.293	0.000863647	0.000473907
368.773	-0.000836182	0.00962219
369.233	-0.697906	-0.0167267
369.693	-0.000302124	0.000489716
370.173	6.10352e-06	0.0096344
370.633	-0.698395	-0.0167633
371.093	-0.000326538	0.000498016
371.573	0.000646973	0.0096344
372.033	-0.697693	-0.0167725
372.493	-0.000405884	0.000512085
372.973	0.000604248	0.00964966
373.433	-0.697693	-0.0167877
373.893	0.000604248	0.000514832
374.373	0.000604248	0.00964661
374.833	-0.698212	-0.0168091
375.293	-0.000534058	0.00053009
375.773	-0.000567627	0.00966492
376.233	-0.699219	-0.0168182
376.693	-0.00010376	0.000541077
377.173	0.000726318	0.00966797
377.633	-0.698242	-0.0168365
378.093	0.000109863	0.000547485
378.573	-0.000689697	0.00967407
379.033	-0.698578	-0.0168518
379.493	-0.000100708	0.000557861
379.973	-0.000805664	0.00968323
380.433	-0.698853	-0.016864
380.893	0.000457764	0.000562744
381.373	-0.000683594	0.00969238
381.833	-0.69928	-0.0168854
382.293	-0.000396729	0.000578308
382.773	-0.000466919	0.00968323
383.233	-0.698944	-0.0168976
383.693	5.18799e-05	0.000584717
384.173	-0.000836182	0.00969849
384.633	-0.698639	-0.016925
385.093	0.000228882	0.000593872
385.573	-0.000430298	0.00971069
386.033	-0.699158	-0.0169342
386.493	-0.000405884	0.000606995
386.973	1.52588e-05	0.00970154
387.433	-0.699066	-0.0169556
387.893	-0.00022583	0.00061615
388.373	0.000750732	0.00971375
388.833	-0.698639	-0.0169647
389.293	-0.00055542	0.00062439
389.773	0.000408936	0.0097168
390.233	-0.698639	-0.0169769
390.693	0.000531006	0.000628357
391.173	0.000180054	0.00973511
391.633	-0.699066	-0.0169891
392.093	-0.000430298	0.000644226
392.573	-0.000201416	0.00973816
393.033	-0.698303	-0.0170105
393.493	0.000933838	0.000643921
393.973	-0.00071106	0.00973206
394.433	-0.699249	-0.0170319
394.893	0.000296021	0.000659485
395.373	0.000665283	0.00973816
395.833	-0.698914	-0.017038
396.293	-0.000439453	0.000671997
396.773	-0.000836182	0.00975037
397.233	-0.698639	-0.0170685
397.693	0.000726318	0.00067627
398.173	-0.000692749	0.00975952
398.633	-0.697876	-0.0170807
399.093	0.000460815	0.000682678
399.573	0.000674438	0.00975952
400.033	-0.69809	-0.0171051
400.493	-0.000457764	0.00070343
400.973	-0.000808716	0.00975647
401.433	-0.699127	-0.0171051
401.893	0.000863647	0.000701599
402.373	0.000521851	0.00976257
402.833	-0.698853	-0.0171112
403.293	-0.000497437	0.000721741
403.773	0.00065918	0.009765625
404.233	-0.6987	-0.0171265
404.693	-0.000234985	0.000730896
405.173	0.000515747	0.00977173
405.633	-0.697998	-0.0171631
406.093	-0.000466919	0.0007421875
406.573	0.000234985	0.00978088
407.033	-0.699158	-0.0171631
407.493	0.000540161	0.000744019
407.973	-0.000143433	0.00978394
408.433	-0.698883	-0.0171783
408.893	0.000817871	0.000751648
409.373	0.000152588	0.00979309
409.833	-0.697845	-0.0171967
410.293	-0.000588989	0.000769958
410.773	-0.000891113	0.00978699
411.233	-0.698273	-0.017215
411.693	0.00111389	0.0007724
412.173	0.000689697	0.00979004
412.633	-0.698975	-0.017215
413.093	-0.000213623	0.00079071
413.573	-0.000762939	0.00979919
414.033	-0.698456	-0.0172302
414.493	0.00102539	0.000791321
414.973	-0.000756836	0.00979309
415.433	-0.698853	-0.0172424
415.893	0.000527954	0.000803223
416.373	-0.000790405	0.00979614
416.833	-0.6987	-0.0172516
417.293	0.000128174	0.000818481
417.773	0.000540161	0.00979614
418.233	-0.697723	-0.0172821
418.693	0.000823975	0.000821838
419.173	-0.000881958	0.00980225
419.633	-0.699036	-0.0172913
420.093	0.00022583	0.000837708
420.573	-0.000247192	0.0098175
421.033	-0.699005	-0.0173035
421.493	0.000982666	0.000839539
421.973	0.000354004	0.0098175
422.433	-0.699188	-0.0173096
422.893	0.000106812	0.000859985
423.373	-0.000241089	0.0098053
423.833	-0.697754	-0.017337
424.293	0.000454712	0.000860901
424.773	0.000579834	0.00981445
425.233	-0.698853	-0.0173309
425.693	0.000939941	0.000869141
426.173	0.000286865	0.00982666
426.633	-0.699097	-0.0173462
427.093	0.000384521	0.000884399
427.573	-0.000393677	0.00983582
428.033	-0.699158	-0.0173584
428.493	-0.000476074	0.000897827
428.973	-0.000836182	0.00982666
429.433	-0.699036	-0.0173706
429.893	-0.000128174	0.000904236
430.373	-0.000653076	0.00982666
430.833	-0.699158	-0.0173828
431.293	0.000506592	0.000910034
431.773	-0.00017395	0.00982361
432.233	-0.699005	-0.0174042
432.693	-0.000460815	0.000924072
433.173	-0.00090332	0.00983276
433.633	-0.698669	-0.0174225
434.093	-0.000610352	0.000937805
434.573	-0.000772095	0.00983582
435.033	-0.697876	-0.0174377
435.493	-0.000430298	0.00094574
435.973	-0.000332642	0.00984497
436.433	-0.697815	-0.01745
436.893	-0.000509644	0.000958252
437.373	-0.00062561	0.00985107
437.833	-0.699005	-0.017453
438.293	-0.000469971	0.000966797
438.773	-0.000769043	0.00984497
439.233	-0.698364	-0.01745
439.693	0.00104065	0.000966797
440.173	0.000628662	0.00983582
440.633	-0.698669	-0.0174805
441.093	-0.000140381	0.000985718
441.573	-2.13623e-05	0.00983582
442.033	-0.699127	-0.0174744
442.493	0.00104675	0.000985718
442.973	0.000650024	0.00983887
443.433	-0.697632	-0.0175018
443.893	0.000152588	0.000996704
444.373	0.000689697	0.00985107
444.833	-0.699005	-0.0175018
445.293	0.000799561	0.00100952
445.773	8.54492e-05	0.00985413
446.233	-0.697754	-0.0175323
446.693	0.000366211	0.00102081
447.173	-0.000540161	0.00985718
447.633	-0.698608	-0.0175201
448.093	0.000204468	0.00102753
448.573	0.000213623	0.00984192
449.033	-0.697693	-0.0175446
449.493	1.52588e-05	0.00104279
449.973	-0.000732422	0.00985413
450.433	-0.698547	-0.0175476
450.893	0.000280762	0.00104797
451.373	0.000119019	0.00984497
451.833	-0.6987	-0.0175598
452.293	0.000881958	0.00105438
452.773	0.000369263	0.00985718
453.233	-0.699127	-0.017569
453.693	0.000534058	0.00106842
454.173	-0.000338745	0.00984497
454.633	-0.698273	-0.0175934
455.093	0.00071106	0.00108063
455.573	-0.000820923	0.00985107
456.033	-0.697815	-0.0175995
456.493	-0.000497437	0.00109314
456.973	-0.000585937	0.00984802
457.433	-0.69873	-0.0175964
457.893	-0.000238037	0.00110016
458.373	0.000280762	0.00984497
458.833	-0.699097	-0.0176117
459.293	0.000839233	0.00110229
459.773	0.000668335	0.00985413
460.233	-0.69751	-0.01763
460.693	-4.27246e-05	0.0011203
461.173	-0.000610352	0.00986023
461.633	-0.697662	-0.0176422
462.093	0.000631714	0.00112152
462.573	-0.000854492	0.00986023
463.033	-0.697876	-0.0176514
463.493	0.00101624	0.00113129
463.973	-0.000814819	0.00985107
464.433	-0.697662	-0.0176544
464.893	0.00067749	0.0011441
465.373	0.000695801	0.00985413
465.833	-0.698822	-0.0176575
466.293	-0.000567627	0.00115814
466.773	0.000506592	0.00986328
467.233	-0.697662	-0.0176788
467.693	0.000650024	0.00115967
468.173	-0.00072937	0.00985718
468.633	-0.697845	-0.0176941
469.093	-0.000241089	0.0011795
469.573	-0.000564575	0.00986328
470.033	-0.69873	-0.0177032
470.493	-2.44141e-05	0.00118744
470.973	-5.79834e-05	0.00986328
471.433	-0.699188	-0.0177063
471.893	0.000350952	0.00119537
472.373	-0.000671387	0.00986023
472.833	-0.699158	-0.0177063
473.293	-0.000228882	0.00120514
473.773	0.000314331	0.00984192
474.233	-0.698639	-0.0177277
474.693	0.000967407	0.0012085
475.173	-7.93457e-05	0.00986023
475.633	-0.697662	-0.0177368
476.093	0.00032959	0.00122498
476.573	0.000314331	0.00985107
477.033	-0.699036	-0.0177399
477.493	-0.000436401	0.00123871
477.973	0.000686646	0.00985413
478.433	-0.697632	-0.0177643
478.893	-4.57764e-05	0.00124207
479.373	-0.000439453	0.00986023
479.833	-0.699127	-0.0177612
480.293	7.01904e-05	0.00125458
480.773	0.000646973	0.00984802
481.233	-0.697723	-0.0177765
481.693	0.000982666	0.0012558
482.173	-0.000646973	0.00985413
482.633	-0.697937	-0.0177948
483.093	0.000946045	0.00126648
483.573	-0.000704956	0.00985413
484.033	-0.699188	-0.0177979
484.493	0.000985718	0.00127441
484.973	-0.00038147	0.00986633
485.433	-0.698608	-0.0177948
485.893	0.000967407	0.00128418
486.373	-0.000354004	0.00986023
486.833	-0.698334	-0.0178101
487.293	0.000942993	0.00129364
487.773	0.000241089	0.00985718
488.233	-0.697876	-0.0178223
488.693	-0.000296021	0.00130798
489.173	-0.000354004	0.00984497
489.633	-0.698242	-0.0178284
490.093	0.000161743	0.00132294
490.573	-0.000204468	0.00985413
491.033	-0.69754	-0.0178467
491.493	0.000909424	0.00132385
491.973	-0.000653076	0.00986328
492.433	-0.698029	-0.0178436
492.893	0.000378418	0.0013382
493.373	-0.000643921	0.00984802
493.833	-0.697693	-0.0178589
494.293	-0.000488281	0.00135284
494.773	0.000259399	0.00984192
495.233	-0.698486	-0.017865
495.693	-0.00010376	0.00135742
496.173	0.000424194	0.00985413
496.633	-0.698792	-0.017865
497.093	0.000445557	0.00136566
497.573	-0.000411987	0.00984497
498.033	-0.697601	-0.0178955
498.493	0.000112915	0.0013736
498.973	-0.000708008	0.00985107
499.433	-0.6987	-0.0178955
499.893	-0.000595093	0.00138855
500.373	-0.00072937	0.00985413
500.833	-0.698517	-0.0178955
501.293	7.93457e-05	0.00139862
501.773	0.000192261	0.00983582
502.233	-0.698822	-0.0179047
502.693	-0.000164795	0.00140869
503.173	-0.000296021	0.00983582
503.633	-0.698792	-0.0179108
504.093	0.000509644	0.001409
504.573	0.000387573	0.00984497
505.033	-0.698853	-0.0179382
505.493	0.000228882	0.00142487
505.973	-0.000244141	0.00983276
506.433	-0.698425	-0.0179413
506.893	-0.000360107	0.00143402
507.373	0.000534058	0.00983887
507.833	-0.698151	-0.0179504
508.293	-0.000506592	0.00144562
508.773	-0.000424194	0.00982971
509.233	-0.699005	-0.0179443
509.693	-0.000476074	0.00145691
510.173	0.00057373	0.00982971
510.633	-0.697784	-0.01796875
511.093	-0.000500488	0.00146179
511.573	-0.000793457	0.00984192
512.033	-0.698334	-0.0179626
512.493	-0.000469971	0.00147614
512.973	-0.000698853	0.00982666
513.433	-0.697784	-0.0179718
513.893	-0.000256348	0.00148529
514.373	-0.000802612	0.00982971
514.833	-0.69873	-0.0179657
515.293	-0.000512695	0.00149414
515.773	-0.000759888	0.00983276
516.233	-0.697601	-0.0179901
516.693	-0.000408936	0.00150513
517.173	0.00020752	0.00982971
517.633	-0.699158	-0.0179932
518.093	0.00102234	0.00150299
518.573	-0.000598145	0.00982056
519.033	-0.69809	-0.0180145
519.493	-0.000476074	0.00152252
519.973	-0.000775146	0.00983276
520.433	-0.697754	-0.0180115
520.893	0.000878906	0.00151978
521.373	-0.000900269	0.0098175
521.833	-0.697968	-0.0180267
522.293	0.000881958	0.00153381
522.773	-0.000152588	0.00982971
523.233	-0.698303	-0.0180298
523.693	-0.000430298	0.00154755
524.173	0.000570679	0.00982361
524.633	-0.699097	-0.0180267
525.093	-0.000424194	0.00155945
525.573	-0.000341797	0.00981445
526.033	-0.697968	-0.0180542
526.493	0.000811768	0.00155884
526.973	0.000219727	0.00982056
527.433	-0.698364	-0.0180389
527.893	-0.00039978	0.00157806
528.373	3.96729e-05	0.0098053
528.833	-0.699066	-0.0180511
529.293	-0.000192261	0.00158783
529.773	-0.000585937	0.00982056
530.233	-0.698792	-0.0180542
530.693	0.000274658	0.00159332
531.173	-0.000775146	0.00981445
531.633	-0.698944	-0.0180664
532.093	0.000912476	0.00159637
532.573	-0.000692749	0.0098053
533.033	-0.697693	-0.0180756
533.493	0.000732422	0.00161041
533.973	0.000363159	0.00980225
534.433	-0.699036	-0.0180756
534.893	-3.05176e-06	0.00162415
535.373	-0.000631714	0.0098114
535.833	-0.697723	-0.0180847
536.293	0.000723267	0.00162415
536.773	0.000643921	0.00980225
537.233	-0.699219	-0.0180939
537.693	-0.000491333	0.00164398
538.173	-0.000570679	0.0098053
538.633	-0.698486	-0.0181061
539.093	0.000967407	0.00164337
539.573	6.10352e-06	0.0098053
540.033	-0.698364	-0.0181061
540.493	-0.000152588	0.00165802
540.973	7.32422e-05	0.00979309
541.433	-0.698151	-0.0181213
541.893	0.000720215	0.00165985
542.373	4.57764e-05	0.00978699
542.833	-0.698425	-0.0181213
543.293	0.000982666	0.00166931
543.773	-0.000534058	0.00980225
544.233	-0.697571	-0.0181335
544.693	0.00090332	0.00167847
545.173	0.000650024	0.00978394
545.633	-0.698364	-0.0181396
546.093	-0.000390625	0.00169556
546.573	0.000613403	0.00978699
547.033	-0.697784	-0.0181488
547.493	0.000390625	0.00170319
547.973	-0.000393677	0.00978394
548.433	-0.697479	-0.0181549
548.893	0.000891113	0.00170715
549.373	-0.000820923	0.00979004
549.833	-0.699036	-0.0181519
550.293	0.000299072	0.00172272
550.773	-0.000521851	0.00979004
551.233	-0.698212	-0.0181671
551.693	-0.000415039	0.00173645
552.173	0.000338745	0.00978088
552.633	-0.698212	-0.0181763
553.093	-0.000125122	0.00173676
553.573	0.00055542	0.00977783
554.033	-0.69873	-0.0181641
554.493	-0.000436401	0.00174957
554.973	0.000189209	0.00976868
555.433	-0.698944	-0.0181702
555.893	-0.000375366	0.00176331
556.373	-0.00017395	0.00978088
556.833	-0.699066	-0.0181824
557.293	-0.000500488	0.00177124
557.773	-0.000793457	0.00978088
558.233	-0.697754	-0.0182007
558.693	0.000866699	0.00176971
559.173	-0.000811768	0.00977783
559.633	-0.69754	-0.0182037
560.093	-0.000296021	0.0017868
560.573	0.00039978	0.00977783
561.033	-0.698608	-0.0181976
561.493	0.000808716	0.00178925
561.973	-6.10352e-05	0.00975647
562.433	-0.697601	-0.0182159
562.893	0.0009552	0.00179657
563.373	-0.000881958	0.00976257
563.833	-0.698364	-0.018219
564.293	-0.000521851	0.00181122
564.773	-0.000115967	0.00977478
565.233	-0.698975	-0.018219
565.693	0.000177002	0.0018161
566.173	-0.000796509	0.00977173
566.633	-0.698792	-0.018222
567.093	0.000198364	0.00182983
567.573	-0.000653076	0.00975952
568.033	-0.697418	-0.0182404
568.493	0.000531006	0.00183624
568.973	-0.000650024	0.00976257
569.433	-0.697571	-0.0182404
569.893	-0.000442505	0.00185181
570.373	0.000665283	0.00975342
570.833	-0.698425	-0.0182404
571.293	0.000985718	0.00185059
571.773	-7.32422e-05	0.00974426
572.233	-0.699036	-0.0182465
572.693	0.000164795	0.00186035
573.173	0.000357056	0.00975952
573.633	-0.697693	-0.0182617
574.093	0.000338745	0.00186615
574.573	-0.00078125	0.00974121
575.033	-0.698792	-0.0182648
575.493	0.000854492	0.00187378
575.973	-0.00072937	0.00973816
576.433	-0.69754	-0.0182709
576.893	0.000726318	0.00188751
577.373	0.000469971	0.00974426
577.833	-0.698761	-0.0182648
578.293	-0.000241089	0.00190216
578.773	0.000204468	0.00975342
579.233	-0.698334	-0.0182922
579.693	3.66211e-05	0.00190521
580.173	-0.000631714	0.00974731
580.633	-0.699127	-0.0182831
581.093	0.000949097	0.00190948
581.573	0.000546265	0.00973511
582.033	-0.698944	-0.0182831
582.493	0.000439453	0.00192352
582.973	0.000469971	0.00973816
583.433	-0.698914	-0.0182983
583.893	0.000979614	0.0019278
584.373	-0.000921631	0.00973511
584.833	-0.698517	-0.0182922
585.293	-0.000460815	0.00194031
585.773	0.000701904	0.00973511
586.233	-0.697601	-0.0183075
586.693	-3.66211e-05	0.00194733
587.173	-0.000482178	0.00973816
587.633	-0.699005	-0.0183014
588.093	0.000924683	0.00195465
588.573	-0.000552368	0.0097168
589.033	-0.699036	-0.0183105
589.493	-0.000180054	0.00197174
589.973	0.00010376	0.0097168
590.433	-0.698975	-0.0183197
590.893	-0.000506592	0.00197968
591.373	-0.000842285	0.009729
591.833	-0.698151	-0.0183167
592.293	-0.000479126	0.00198853
592.773	-0.000869751	0.00971985
593.233	-0.698273	-0.0183197
593.693	-0.00027771	0.00199341
594.173	-0.000872803	0.0097168
594.633	-0.697998	-0.0183289
595.093	0.00105896	0.00199524
595.573	-0.000552368	0.00970459
596.033	-0.697937	-0.0183472
596.493	0.00038147	0.00201141
596.973	-0.000604248	0.00971985
597.433	-0.699005	-0.0183411
597.893	0.000750732	0.00201477
598.373	-6.71387e-05	0.0097168
598.833	-0.697937	-0.0183533
599.293	0.000888062	0.00202179
599.773	0.000439453	0.0097168
600.233	-0.699066	-0.018338
600.693	0.000674438	0.00202667
601.173	-0.000274658	0.0097168
601.633	-0.698822	-0.0183472
602.093	-0.000430298	0.00204559
602.573	-0.000167847	0.00969238
603.033	-0.699066	-0.0183533
603.493	0.000967407	0.00204346
603.973	-0.000164795	0.00970459
604.433	-0.698608	-0.0183563
604.893	-0.000354004	0.00205505
605.373	-0.000878906	0.00969238
605.833	-0.698364	-0.0183624
606.293	-0.000128174	0.00207062
606.773	-0.000839233	0.00969543
607.233	-0.69873	-0.0183624
607.693	-0.000534058	0.00207825
608.173	-0.000112915	0.00968018
608.633	-0.697998	-0.0183868
609.093	0.000134277	0.00207886
609.573	0.000515747	0.00968323
610.033	-0.698944	-0.0183746
610.493	0.000637817	0.00208344
610.973	-0.000238037	0.00968933
611.433	-0.697815	-0.0183807
611.893	0.000747681	0.00209564
612.373	0.000140381	0.00967712
612.833	-0.697876	-0.018396
613.293	-0.000497437	0.002109375
613.773	-0.000756836	0.00968018
614.233	-0.697754	-0.0184082
614.693	0.000152588	0.00211823
615.173	-0.00090332	0.00967712
615.633	-0.699005	-0.0183929
616.093	-0.000460815	0.00212708
616.573	-0.000842285	0.00967407
617.033	-0.69754	-0.0184082
617.493	0.000823975	0.00212463
617.973	9.76562e-05	0.00967712
618.433	-0.6987	-0.0184113
618.893	0.000839233	0.00213043
619.373	0.000680542	0.00966797
619.833	-0.697601	-0.0184113
620.293	0.000897217	0.00213837
620.773	-0.000442505	0.00966187
621.233	-0.698608	-0.0184296
621.693	0.000970459	0.00214661
622.173	-7.93457e-05	0.00966187
622.633	-0.69751	-0.0184265
623.093	0.000973511	0.00215485
623.573	-0.00083313	0.00967407
624.033	-0.698151	-0.0184296
624.493	0.00012207	0.00216644
624.973	-0.000891113	0.00966492
625.433	-0.698578	-0.0184296
625.893	-0.000357056	0.0021817
626.373	0.000662231	0.00965881
626.833	-0.69809	-0.0184357
627.293	0.000622559	0.00218231
627.773	6.40869e-05	0.00964661
628.233	-0.698669	-0.0184387
628.693	0.000991821	0.00218628
629.173	0.000546265	0.00964661
629.633	-0.698883	-0.0184387
630.093	0.000985718	0.0021936
630.573	0.000561523	0.0096405
631.033	-0.698029	-0.0184357
631.493	-9.15527e-06	0.00220459
631.973	-0.000842285	0.00964355
632.433	-0.698273	-0.0184509
632.893	0.00043335	0.00221344
633.373	0.000610352	0.00964355
633.833	-0.698486	-0.0184418
634.293	0.000164795	0.00221832
634.773	-0.000634766	0.0096405
635.233	-0.69809	-0.018457
635.693	-0.000262451	0.0022345
636.173	0.000167847	0.00965271
636.633	-0.698181	-0.0184509
637.093	-0.000564575	0.0022403
637.573	0.000210571	0.00964966
638.033	-0.69873	-0.0184692
638.493	0.000491333	0.00223907
638.973	3.05176e-06	0.0096283
639.433	-0.698914	-0.018457
639.893	-0.000369263	0.00225616
640.373	0.000454712	0.00963745
640.833	-0.698975	-0.0184692
641.293	0.00101624	0.00225342
641.773	-0.000643921	0.00963135
642.233	-0.69754	-0.0184753
642.693	0.000463867	0.00226257
643.173	8.54492e-05	0.00963745
643.633	-0.698639	-0.0184723
644.093	-7.62939e-05	0.00227661
644.573	-0.000817871	0.00962524
645.033	-0.697601	-0.0184875
645.493	-0.000372314	0.00228638
645.973	-0.000411987	0.00961609
646.433	-0.698273	-0.0184875
646.893	-0.000515747	0.00228729
647.373	-0.000820923	0.00962524
647.833	-0.698456	-0.0184814
648.293	-0.000540161	0.00230072
648.773	0.000668335	0.00961914
649.233	-0.698059	-0.0184906
649.693	0.000418091	0.00229828
650.173	-0.000793457	0.00962524
650.633	-0.698944	-0.0184998
651.093	4.57764e-05	0.00231232
651.573	0.000408936	0.00961914
652.033	-0.697632	-0.0185059
652.493	0.000405884	0.0023172
652.973	0.000442505	0.00961609
653.433	-0.698944	-0.0184937
653.893	0.000506592	0.002323
654.373	0.000653076	0.00960388
654.833	-0.698456	-0.0184967
655.293	-3.66211e-05	0.00233398
655.773	0.000744629	0.00960083
656.233	-0.699036	-0.0185059
656.693	-0.000534058	0.002341
657.173	-0.00083313	0.00960693
657.633	-0.697601	-0.018512
658.093	0.000375366	0.00234619
658.573	-0.000192261	0.00960388
659.033	-0.6987	-0.0185059
659.493	-0.000491333	0.00235504
659.973	0.000628662	0.00958862
660.433	-0.697632	-0.0185242
660.893	0.000671387	0.00235657
661.373	-0.00050354	0.00958862
661.833	-0.697418	-0.0185211
662.293	-0.000442505	0.00237061
662.773	0.000180054	0.00959473
663.233	-0.698914	-0.0185211
663.693	3.35693e-05	0.00237061
664.173	-0.000402832	0.00958557
664.633	-0.698181	-0.0185272
665.093	0.000924683	0.00237122
665.573	-0.000878906	0.00958862
666.033	-0.698914	-0.0185303
666.493	0.000393677	0.002388
666.973	0.000366211	0.00957947
667.433	-0.698517	-0.0185211
667.893	-0.000115967	0.00239716
668.373	-0.000820923	0.00957947
668.833	-0.698151	-0.0185394
669.293	-0.000552368	0.00240173
669.773	0.000152588	0.00957031
670.233	-0.698578	-0.0185211
670.693	0.000949097	0.00240051
671.173	0.000128174	0.00957947
671.633	-0.697418	-0.0185364
672.093	0.00078125	0.00240906
672.573	0.000387573	0.00957336
673.033	-0.69751	-0.0185486
673.493	0.00039978	0.00241486
673.973	-0.000466919	0.00957031
674.433	-0.697876	-0.0185364
674.893	-5.49316e-05	0.00242554
675.373	0.00072937	0.00956421
675.833	-0.69809	-0.0185516
676.294	-0.000231934	0.00243835
676.774	-0.00057373	0.00957336
677.234	-0.698547	-0.0185425
677.694	-0.000408936	0.00244507
678.174	0.000521851	0.00956726
678.634	-0.698822	-0.0185394
679.094	0.000280762	0.0024469
679.574	0.000643921	0.00955505
680.034	-0.697571	-0.0185516
680.494	0.000143433	0.00245514
680.974	0.000299072	0.009552
681.434	-0.698547	-0.0185425
681.894	0.000894165	0.00245453
682.374	6.71387e-05	0.00955811
682.834	-0.697937	-0.0185669
683.294	-0.000393677	0.00247131
683.774	-0.000564575	0.00956421
684.234	-0.697937	-0.0185547
684.694	0.000250244	0.00246979
685.174	0.000534058	0.00954285
685.634	-0.698944	-0.0185547
686.094	0.0010437	0.00247314
686.574	-0.000665283	0.009552
687.034	-0.699005	-0.0185577
687.494	-0.000527954	0.00248901
687.974	0.000418091	0.0095459
688.434	-0.697906	-0.0185791
688.894	-0.000308228	0.00249237
689.374	-0.000698853	0.00953674
689.834	-0.697723	-0.0185669
690.294	0.000616455	0.00249207
690.774	0.000146484	0.00952454
691.234	-0.69751	-0.0185791
691.694	0.000360107	0.0025
692.174	0.000622559	0.00953064
692.634	-0.698242	-0.0185822
693.094	-0.000387573	0.00251526
693.574	0.000341797	0.00952759
694.034	-0.699036	-0.0185791
694.494	0.000720215	0.00251343
694.974	0.000292969	0.00953674
695.434	-0.698029	-0.0185822
695.894	0.00105896	0.00251923
696.374	-0.00055542	0.00951538
696.834	-0.69754	-0.0185852
697.294	-0.0003479	0.00252991
697.774	9.15527e-05	0.00951538
698.234	-0.698456	-0.0185913
698.694	0.000485229	0.0025354
699.174	-0.000756836	0.00952759
699.634	-0.6987	-0.018576
700.094	0.00067749	0.00253723
700.574	-0.000158691	0.00950928
701.034	-0.699158	-0.0185883
701.494	-0.000494385	0.0025528
701.974	-0.000814819	0.00951538
702.434	-0.697693	-0.0185913
702.894	0.000894165	0.00255188
703.374	0.00050354	0.00950623
703.834	-0.699005	-0.0185974
704.294	0.000234985	0.0025589
704.774	-0.000668335	0.00951843
705.234	-0.697845	-0.0185913
705.694	0.00107422	0.00256348
706.174	-0.000939941	0.00951233
706.634	-0.699066	-0.0185944
707.094	0.00045166	0.00256744
707.574	0.000411987	0.00950012
708.034	-0.697601	-0.0186035
708.494	-0.000335693	0.0025824
708.974	-0.000872803	0.00950623
709.434	-0.697754	-0.0186096
709.894	-0.00022583	0.00259155
710.374	-0.00017395	0.00950928
710.834	-0.698364	-0.0186188
711.294	0.00090332	0.00258728
711.774	-0.000506592	0.00950928
712.234	-0.698853	-0.0186035
712.694	0.000460815	0.00259766
713.174	-0.000848389	0.00949097
713.634	-0.6987	-0.0186035
714.094	-0.00038147	0.00260925
714.574	0.000665283	0.00949097
715.034	-0.69809	-0.0186218
715.494	-0.000588989	0.00261566
715.974	0.000756836	0.00949707
716.434	-0.6987	-0.0186096
716.894	-0.000637817	0.00261902
717.374	0.000646973	0.00948486
717.834	-0.698608	-0.0186096
718.294	0.000466919	0.00262299
718.774	0.000335693	0.00948486
719.234	-0.698608	-0.0186096
719.694	-0.000436401	0.00263275
720.174	-0.000460815	0.00948792
720.634	-0.698578	-0.0186279
721.094	0.000817871	0.00263245
721.574	-0.000140381	0.00947266
722.034	-0.697632	-0.0186279
722.494	0.000384521	0.00263733
722.974	-0.000369263	0.00947571
723.434	-0.699066	-0.0186188
723.894	-0.000143433	0.00264587
724.374	-0.000418091	0.00946655
724.834	-0.698486	-0.0186218
725.294	0.000137329	0.00264648
725.774	0.000616455	0.0094635
726.234	-0.69754	-0.018634
726.694	0.000631714	0.00264923
727.174	0.000274658	0.0094635
727.634	-0.698517	-0.018631
728.094	0.000958252	0.00265747
728.574	-0.000802612	0.0094696
729.034	-0.699005	-0.0186279
729.494	-0.000488281	0.00266998
729.974	-0.000384521	0.00946655
730.434	-0.69751	-0.018631
730.894	0.000244141	0.00267426
731.374	0.000646973	0.0094574
731.834	-0.698822	-0.0186249
732.294	0.000131226	0.0026767
732.774	-0.000817871	0.0094574
733.234	-0.698181	-0.0186401
733.694	-0.000100708	0.00268677
734.174	0.000524902	0.00943909
734.634	-0.698364	-0.018631
735.094	-0.000582886	0.00269257
735.574	0.000341797	0.00943604
736.034	-0.697693	-0.0186371
736.494	-0.000521851	0.00269958
736.974	-0.000405884	0.00943604
737.434	-0.698151	-0.0186493
737.894	0.000894165	0.00269836
738.374	-0.000839233	0.00944214
738.834	-0.698822	-0.0186432
739.294	0.000570679	0.00270203
739.774	-7.32422e-05	0.00944519
740.234	-0.69754	-0.0186523
740.694	0.000250244	0.00271301
741.174	0.000317383	0.00942688
741.634	-0.698975	-0.0186371
742.094	0.000323486	0.00271484
742.574	-0.00012207	0.00942383
743.034	-0.697601	-0.0186554
743.494	0.000421143	0.00272461
743.974	-0.000152588	0.00942078
744.434	-0.69809	-0.0186462
744.894	0.000167847	0.00272278
745.374	-0.000820923	0.00942078
745.834	-0.698059	-0.0186432
746.294	-0.00027771	0.00273987
746.774	0.000616455	0.00941772
747.234	-0.698151	-0.0186462
747.694	0.00085144	0.00273499
748.174	0.000506592	0.00941772
748.634	-0.698242	-0.0186432
749.094	-0.000146484	0.0027475
749.574	0.00065918	0.00941162
750.034	-0.697449	-0.0186554
750.494	-0.000482178	0.00275299
750.974	0.000628662	0.00941162
751.434	-0.697784	-0.0186584
751.894	0.000762939	0.00274963
752.374	-0.00043335	0.00942383
752.834	-0.698975	-0.0186462
753.294	7.93457e-05	0.00276245
753.774	0.0003479	0.00941467
754.234	-0.698059	-0.0186646
754.694	-5.79834e-05	0.00276123
755.174	0.00071106	0.00940552
755.634	-0.697723	-0.0186615
756.094	-0.00038147	0.00277679
756.574	-0.000244141	0.00939941
757.034	-0.698273	-0.0186554
757.494	0.00017395	0.00277893
757.974	0.00055542	0.00939941
758.434	-0.698425	-0.0186554
758.894	-0.000357056	0.00278687
759.374	0.000576782	0.00939941
759.834	-0.697754	-0.0186707
760.294	-0.00050354	0.00279144
760.774	-0.000204468	0.00940552
761.234	-0.698517	-0.0186554
761.694	0.000961304	0.00278595
762.174	-0.000802612	0.00939331
762.634	-0.698212	-0.0186707
763.094	-0.000570679	0.00280182
763.574	-0.000286865	0.00939636
764.034	-0.698303	-0.0186646
764.494	0.000570679	0.00280457
764.974	-0.000643921	0.00939636
765.434	-0.69751	-0.0186707
765.894	-0.000549316	0.00281311
766.374	6.10352e-06	0.00937805
766.834	-0.697784	-0.0186768
767.294	0.000723267	0.00281036
767.774	-0.000802612	0.00938721
768.234	-0.699097	-0.0186646
768.694	-0.000158691	0.0028183
769.174	-2.74658e-05	0.00938416
769.634	-0.699127	-0.0186707
770.094	-0.000289917	0.00282776
770.574	-0.000396729	0.00938721
771.034	-0.698578	-0.0186798
771.494	0.000891113	0.00282471
771.974	0.000592041	0.0093811
772.434	-0.698914	-0.0186707
772.894	0.00105591	0.00282867
773.374	0.000738525	0.0093689
773.834	-0.698914	-0.0186676
774.294	0.00102844	0.00283661
774.774	-0.000506592	0.00936279
775.234	-0.698059	-0.0186798
775.694	0.000195313	0.00284546
776.174	-0.000250244	0.009375
776.634	-0.69809	-0.018689
777.094	0.000131226	0.00285065
777.574	-0.000534058	0.009375
778.034	-0.697754	-0.0186951
778.494	-0.000283813	0.00285797
778.974	0.000357056	0.00936584
779.434	-0.698822	-0.0186768
779.894	0.000549316	0.00285919
780.374	0.000579834	0.00936279
780.834	-0.698578	-0.0186737
781.294	-0.000305176	0.00286591
781.774	0.000384521	0.00935669
782.234	-0.698944	-0.0186737
782.694	0.000247192	0.00287262
783.174	-0.000915527	0.00935364
783.634	-0.698975	-0.0186829
784.094	0.000714111	0.00286865
784.574	-0.000772095	0.00935669
785.034	-0.698883	-0.0186859
785.494	0.000912476	0.00287384
785.974	-0.000247192	0.00935669
786.434	-0.699036	-0.0186829
786.894	0.000146484	0.00288147
787.374	-0.000180054	0.00935364
787.834	-0.69809	-0.0186951
788.294	-0.000491333	0.00289124
788.774	0.00020752	0.00934753
789.234	-0.69754	-0.018689
789.694	0.000930786	0.00288788
790.174	0.000482178	0.00934448
790.634	-0.697662	-0.018692
791.094	-0.00020752	0.00290192
791.574	-0.000704956	0.00934753
792.034	-0.698792	-0.0186829
792.494	-0.000610352	0.0029068
792.974	-0.000515747	0.00933838
793.434	-0.698792	-0.0186951
793.894	0.000970459	0.0029068
794.374	-0.000726318	0.00933533
794.834	-0.698395	-0.018692
795.294	-0.000271606	0.00291412
795.774	-0.000692749	0.00933533
796.234	-0.697815	-0.0186981
796.694	0.000701904	0.00291199
797.174	-0.000463867	0.00933533
797.634	-0.697968	-0.0187042
798.094	0.000344849	0.00291931
798.574	0.000579834	0.00932312
799.034	-0.698853	-0.0186798
799.494	0.000509644	0.00292236
799.974	0.000274658	0.00932617
800.434	-0.697937	-0.018689
800.894	0.000372314	0.00292786
801.374	0.000216675	0.00932007
801.834	-0.697815	-0.0186951
802.294	-0.000228882	0.00294189
802.774	-0.000958252	0.00931396
803.234	-0.698425	-0.0187042
803.694	-0.000567627	0.00294708
804.174	0.000421143	0.00932007
804.634	-0.698914	-0.0186951
805.094	0.000164795	0.00294891
805.574	-0.000769043	0.00930176
806.034	-0.698914	-0.0186951
806.494	0.000866699	0.00294678
806.974	0.000296021	0.00930176
807.434	-0.698181	-0.0186951
807.894	-0.00017395	0.00295685
808.374	-0.000817871	0.00930481
808.834	-0.699005	-0.0187042
809.294	0.00057373	0.0029541
809.774	-0.000201416	0.00929565
810.234	-0.69873	-0.0186981
810.694	0.000314331	0.00296143
811.174	-0.000683594	0.00930786
811.634	-0.69873	-0.0187012
812.094	-0.000469971	0.00297058
812.574	0.000695801	0.00930176
813.034	-0.698547	-0.0186951
813.494	0.00103149	0.0029715
813.974	0.0003479	0.00929565
814.434	-0.698578	-0.0187103
814.894	-0.000363159	0.00298309
815.374	-7.01904e-05	0.00930481
815.834	-0.698303	-0.0187134
816.294	-0.000466919	0.00298889
816.774	-0.000585937	0.0092865
817.234	-0.69809	-0.0187042
817.694	0.000506592	0.0029834
818.174	-0.000506592	0.00929565
818.634	-0.698883	-0.0187012
819.094	-0.00027771	0.00299805
819.574	0.000588989	0.00928345
820.034	-0.69751	-0.0187103
820.494	0.000308228	0.00299805
820.974	-0.000912476	0.00927734
821.434	-0.69812	-0.0187164
821.894	-0.00039978	0.00300873
822.374	0.00022583	0.00927124
822.834	-0.697998	-0.0187195
823.294	0.000888062	0.00299988
823.774	-0.000442505	0.0092865
824.234	-0.697784	-0.0187134
824.694	1.52588e-05	0.00301392
825.174	0.000622559	0.00927124
825.634	-0.698914	-0.0187164
826.094	0.000906372	0.00301025
826.574	-0.000823975	0.00927734
827.034	-0.697388	-0.0187164
827.494	0.000335693	0.00301697
827.974	0.000350952	0.00925903
828.434	-0.698914	-0.0187134
828.894	-0.000552368	0.00302917
829.374	0.000119019	0.00925903
829.834	-0.698975	-0.0187134
830.294	-0.000509644	0.0030304
830.774	-0.000939941	0.00926514
831.234	-0.698944	-0.0187195
831.694	0.000299072	0.00303009
832.174	0.000189209	0.00927429
832.634	-0.698273	-0.0187256
833.094	0.00088501	0.00303558
833.574	-0.000827026	0.00925903
834.034	-0.698242	-0.0187164
834.494	0.000390625	0.00303986
834.974	0.000320435	0.00926208
835.434	-0.697662	-0.0187134
835.894	-0.000491333	0.00305237
836.374	-0.000732422	0.00924683
836.834	-0.697479	-0.0187256
837.294	0.000909424	0.00304779
837.774	0.000195313	0.00924072
838.234	-0.69812	-0.0187134
838.694	-0.000549316	0.00306061
839.174	-0.000201416	0.00923767
839.634	-0.69873	-0.0187134
840.094	0.000686646	0.00305328
840.574	0.000299072	0.00924377
841.034	-0.697815	-0.0187195
841.494	-0.000479126	0.00306519
841.974	-0.000265503	0.00924072
842.434	-0.698883	-0.0187225
842.894	-0.000527954	0.00307251
843.374	0.000332642	0.00923157
843.834	-0.697693	-0.0187225
844.294	0.000738525	0.00306885
844.774	-0.000360107	0.00923767
845.234	-0.69754	-0.0187256
845.694	0.000588989	0.00307007
846.174	0.000238037	0.00924683
846.634	-0.697723	-0.0187378
847.094	0.000671387	0.00307526
847.574	0.000439453	0.00924377
848.034	-0.698212	-0.0187347
848.494	0.000567627	0.00307831
848.974	-0.000274658	0.00923767
849.434	-0.697601	-0.0187317
849.894	-0.000344849	0.00308777
850.374	0.000531006	0.00923462
850.834	-0.697601	-0.0187317
851.294	-0.000552368	0.00309723
851.774	-0.000112915	0.00921631
852.234	-0.697937	-0.0187378
852.694	0.000527954	0.00309296
853.174	0.000411987	0.00922852
853.634	-0.698883	-0.0187225
854.094	0.00088501	0.00309662
854.574	-0.000869751	0.00922546
855.034	-0.69751	-0.0187256
855.494	0.000918579	0.00309998
855.974	-0.00085144	0.00922546
856.434	-0.698792	-0.0187317
856.894	0.000378418	0.00310669
857.374	-0.000656128	0.00921021
857.834	-0.699066	-0.0187286
858.294	-0.000375366	0.00311432
858.774	2.74658e-05	0.00922241
859.234	-0.697571	-0.0187378
859.694	-0.000170898	0.00311584
860.174	-0.000857544	0.00921326
860.634	-0.697845	-0.0187408
861.094	-2.13623e-05	0.00312317
861.574	0.000595093	0.00920715
862.034	-0.699066	-0.0187256
862.494	-0.000201416	0.0031311
862.974	-0.000817871	0.00921021
863.434	-0.698151	-0.0187378
863.894	0.000909424	0.00312622
864.374	0.000665283	0.00920105
864.834	-0.69751	-0.0187378
865.294	-0.000289917	0.00313965
865.774	-0.000439453	0.009198
866.234	-0.69873	-0.0187378
866.694	0.000247192	0.00314148
867.174	-0.000866699	0.00920105
867.634	-0.697693	-0.01875
868.094	0.000964355	0.00314117
868.574	0.000219727	0.00919189
869.034	-0.698059	-0.0187439
869.494	-0.000454712	0.00314941
869.974	-0.000814819	0.009198
870.434	-0.698456	-0.0187408
870.894	-8.8501e-05	0.00315216
871.374	-0.000854492	0.00919495
871.834	-0.698822	-0.0187256
872.294	0.000497437	0.0031546
872.774	0.000482178	0.00918579
873.234	-0.698029	-0.0187286
873.694	0.000454712	0.00315582
874.174	-3.05176e-05	0.00919189
874.634	-0.698853	-0.0187286
875.094	2.44141e-05	0.00316711
875.574	-0.000680542	0.00917969
876.034	-0.697632	-0.0187439
876.494	-0.000302124	0.00317322
876.974	-0.000143433	0.00917053
877.434	-0.698761	-0.0187286
877.894	0.000271606	0.00316742
878.374	0.000582886	0.00918274
878.834	-0.698578	-0.0187378
879.294	0.000344849	0.0031723
879.774	0.000201416	0.00917358
880.234	-0.698517	-0.0187347
880.694	-0.000567627	0.0031839
881.174	-0.00072937	0.00918579
881.594	-0.000488281	0.000944824