File: Edgar/20240607/20240607/electrodeposition_pulsed_potential_20240607_B/pulses_3000_to_4000.txt
Time (s)	WE(1).Potential (V)	WE(1).Current (A)
2307.85	-0.697449	-0.0210907
2308.31	-0.000454712	0.00347961
2308.79	-0.000616455	0.00748779
2309.25	-0.697845	-0.0185944
2309.71	0.0009765625	0.00444672
2310.19	-0.000524902	0.00782776
2310.65	-0.697601	-0.0184357
2311.11	0.00062561	0.00453522
2311.59	1.83105e-05	0.00787964
2312.05	-0.69812	-0.0184082
2312.51	0.000320435	0.00456726
2312.99	0.000628662	0.00788879
2313.45	-0.69809	-0.0183746
2313.91	-0.000119019	0.00458099
2314.39	-0.000698853	0.00790405
2314.85	-0.698364	-0.0183716
2315.31	-0.000524902	0.00459412
2315.79	-0.00022583	0.00792236
2316.25	-0.69754	-0.0183777
2316.71	0.000958252	0.00459167
2317.19	-0.000543213	0.00792542
2317.65	-0.698364	-0.0183746
2318.11	0.000701904	0.00460144
2318.59	-0.000485229	0.00793457
2319.05	-0.697632	-0.0183655
2319.51	-0.000570679	0.00461151
2319.99	0.000308228	0.00791931
2320.45	-0.698761	-0.0183655
2320.91	-7.62939e-05	0.00461365
2321.39	-0.000790405	0.00793457
2321.85	-0.697571	-0.0183685
2322.31	-0.000234985	0.00461334
2322.79	0.000518799	0.00793457
2323.25	-0.699005	-0.0183472
2323.71	0.000469971	0.00461029
2324.19	0.000567627	0.00793152
2324.65	-0.697815	-0.0183624
2325.11	-0.000469971	0.00461884
2325.59	0.000186157	0.00794067
2326.05	-0.698395	-0.0183563
2326.51	-0.000543213	0.00462402
2326.99	-0.000463867	0.00794678
2327.45	-0.69809	-0.0183502
2327.91	-4.88281e-05	0.00462463
2328.39	0.000125122	0.00794373
2328.85	-0.698273	-0.0183563
2329.31	-0.000268555	0.00462433
2329.79	0.000314331	0.00794678
2330.25	-0.698761	-0.0183472
2330.71	-0.000466919	0.00463104
2331.19	-0.000918579	0.00794067
2331.65	-0.697601	-0.0183472
2332.11	0.000805664	0.00462799
2332.59	8.54492e-05	0.00794678
2333.05	-0.697723	-0.0183533
2333.51	-0.000521851	0.0046347
2333.99	-0.000341797	0.00793152
2334.45	-0.697449	-0.0183441
2334.91	0.000415039	0.00462708
2335.39	0.000653076	0.00794067
2335.85	-0.699036	-0.0183411
2336.31	-0.000134277	0.00463501
2336.79	-0.000234985	0.00794983
2337.25	-0.698181	-0.0183502
2337.71	-0.00032959	0.00463684
2338.19	0.000604248	0.00793762
2338.65	-0.698517	-0.0183411
2339.11	0.00101318	0.0046283
2339.59	0.00062561	0.00794067
2340.05	-0.698151	-0.0183502
2340.51	0.000531006	0.00463318
2340.99	-3.66211e-05	0.00792847
2341.45	-0.697723	-0.0183441
2341.91	0.00027771	0.00463654
2342.39	0.000588989	0.00793762
2342.85	-0.697815	-0.018338
2343.31	-0.00027771	0.00464203
2343.79	0.00043335	0.00794373
2344.25	-0.698975	-0.018335
2344.71	-4.27246e-05	0.00463593
2345.19	0.000683594	0.00793762
2345.65	-0.697479	-0.0183411
2346.11	-0.000372314	0.00464355
2346.59	-0.000869751	0.00794067
2347.05	-0.699036	-0.0183319
2347.51	0.000915527	0.00463501
2347.99	-0.000726318	0.00794983
2348.45	-0.698608	-0.018338
2348.91	0.000912476	0.00463593
2349.39	0.000418091	0.00793457
2349.85	-0.698883	-0.0183289
2350.31	-0.000262451	0.004646
2350.79	0.000643921	0.00794067
2351.25	-0.698639	-0.0183289
2351.71	-1.83105e-05	0.00464539
2352.19	-0.000305176	0.00793457
2352.65	-0.698425	-0.0183319
2353.11	0.000549316	0.00463531
2353.59	0.000396729	0.00793457
2354.05	-0.698578	-0.0183289
2354.51	4.27246e-05	0.00464172
2354.99	-0.000827026	0.00794067
2355.45	-0.699036	-0.018335
2355.91	0.000793457	0.00463928
2356.39	0.000640869	0.00794373
2356.85	-0.697784	-0.0183289
2357.31	0.000845337	0.00464111
2357.79	0.000613403	0.00793762
2358.25	-0.698975	-0.0183319
2358.71	0.000854492	0.00463989
2359.19	-0.000613403	0.00794067
2359.65	-0.698639	-0.0183258
2360.11	0.000842285	0.00464478
2360.59	-0.000860596	0.00794067
2361.05	-0.697998	-0.018335
2361.51	0.000198364	0.00464752
2361.99	0.000183105	0.00793152
2362.45	-0.6987	-0.0183319
2362.91	0.000405884	0.00464233
2363.39	-0.000570679	0.00794373
2363.85	-0.699036	-0.0183319
2364.31	-0.000143433	0.0046463
2364.79	-0.000799561	0.00794067
2365.25	-0.698212	-0.018335
2365.71	0.000146484	0.004646
2366.19	-0.000814819	0.00794067
2366.65	-0.698151	-0.0183228
2367.11	0.000924683	0.00464508
2367.59	0.000372314	0.00793457
2368.05	-0.697632	-0.018335
2368.51	-0.000570679	0.00465576
2368.99	-0.000805664	0.00793457
2369.45	-0.698883	-0.0183228
2369.91	0.000860596	0.00464569
2370.39	-0.000717163	0.00794067
2370.85	-0.699097	-0.0183258
2371.31	0.000463867	0.00464722
2371.79	0.000372314	0.00793152
2372.25	-0.698059	-0.018335
2372.71	-0.000140381	0.00465576
2373.19	-0.000808716	0.00794067
2373.65	-0.697479	-0.0183319
2374.11	-0.00065918	0.00465698
2374.59	-0.000665283	0.00793762
2375.05	-0.697998	-0.0183258
2375.51	-0.000454712	0.00465088
2375.99	-0.000158691	0.00792542
2376.45	-0.697693	-0.0183289
2376.91	-0.000112915	0.00465759
2377.39	6.10352e-05	0.00792847
2377.85	-0.699097	-0.0183197
2378.31	0.000128174	0.00465515
2378.79	0.000469971	0.00793457
2379.25	-0.698029	-0.0183319
2379.71	0.00085144	0.00464935
2380.19	0.000393677	0.00791931
2380.65	-0.698792	-0.0183167
2381.11	2.74658e-05	0.00465363
2381.59	-0.000881958	0.00793457
2382.05	-0.697968	-0.0183319
2382.51	-0.000119019	0.00466248
2382.99	0.000469971	0.00793152
2383.45	-0.698059	-0.0183258
2383.91	0.000491333	0.00465302
2384.39	-0.000839233	0.00793457
2384.85	-0.698608	-0.0183319
2385.31	-8.23975e-05	0.0046579
2385.79	0.000201416	0.00793152
2386.25	-0.698792	-0.0183105
2386.71	-0.000256348	0.00466278
2387.19	-0.000674438	0.00792542
2387.65	-0.698853	-0.0183136
2388.11	-1.52588e-05	0.00465698
2388.59	-0.000738525	0.00792542
2389.05	-0.697937	-0.0183258
2389.51	5.18799e-05	0.00465424
2389.99	4.57764e-05	0.00793152
2390.45	-0.697937	-0.0183167
2390.91	0.00085144	0.00465515
2391.39	-0.000408936	0.00791931
2391.85	-0.698364	-0.0183228
2392.31	-0.000354004	0.00466583
2392.79	-0.000439453	0.00791931
2393.25	-0.698334	-0.0183258
2393.71	0.000506592	0.00465607
2394.19	-0.000473022	0.00793457
2394.65	-0.698944	-0.0183075
2395.11	0.000888062	0.00465668
2395.59	-0.000369263	0.00793762
2396.05	-0.697998	-0.0183136
2396.51	0.00043335	0.00465454
2396.99	-0.000369263	0.00791931
2397.45	-0.698944	-0.0183075
2397.91	0.000888062	0.00465607
2398.39	-0.000222778	0.00793152
2398.85	-0.697845	-0.0183136
2399.31	-0.000317383	0.004664
2399.79	0.000653076	0.00792236
2400.25	-0.698242	-0.0183258
2400.71	0.000604248	0.0046579
2401.19	3.35693e-05	0.00792542
2401.65	-0.6987	-0.0183014
2402.11	0.00083313	0.0046582
2402.59	0.000506592	0.00791626
2403.05	-0.698883	-0.0183075
2403.51	0.000869751	0.00465851
2403.99	-0.000814819	0.00792236
2404.45	-0.69754	-0.0183167
2404.91	2.13623e-05	0.00466278
2405.39	-0.000811768	0.00791931
2405.85	-0.698914	-0.0183105
2406.31	-0.000482178	0.0046701
2406.79	0.000634766	0.00792236
2407.25	-0.698334	-0.0183014
2407.71	0.000869751	0.00466187
2408.19	-5.18799e-05	0.00792542
2408.65	-0.697723	-0.0183197
2409.11	-0.000564575	0.00467072
2409.59	0.000137329	0.00791016
2410.05	-0.697815	-0.0183044
2410.51	0.000595093	0.00466675
2410.99	0.000744629	0.00791931
2411.45	-0.698639	-0.0183075
2411.91	0.000610352	0.00466064
2412.39	-0.000769043	0.00791626
2412.85	-0.69873	-0.0183014
2413.31	-0.000482178	0.00467041
2413.79	-0.000570679	0.00792542
2414.25	-0.698853	-0.0183228
2414.71	-0.000552368	0.00467468
2415.19	-0.000665283	0.00794067
2415.65	-0.697662	-0.018338
2416.11	-0.000366211	0.00467377
2416.59	-0.000811768	0.00793457
2417.05	-0.697632	-0.0183411
2417.51	0.000543213	0.0046698
2417.99	0.000473022	0.00793762
2418.45	-0.699036	-0.0183258
2418.91	-0.000357056	0.00466766
2419.39	0.000100708	0.00793762
2419.85	-0.698914	-0.0183319
2420.31	0.000393677	0.00466827
2420.79	-0.000735474	0.00793152
2421.25	-0.697479	-0.018335
2421.71	0.000863647	0.0046637
2422.19	0.000631714	0.00792542
2422.65	-0.698792	-0.0183319
2423.11	0.000796509	0.0046637
2423.59	0.000332642	0.00791931
2424.05	-0.697571	-0.0183411
2424.51	-0.000140381	0.00467377
2424.99	0.000488281	0.00792236
2425.45	-0.697479	-0.018335
2425.91	-0.000524902	0.0046698
2426.39	-0.000842285	0.00793152
2426.85	-0.698914	-0.0183197
2427.31	-0.000534058	0.00467438
2427.79	0.000415039	0.00791321
2428.25	-0.698425	-0.0183411
2428.71	-0.000354004	0.00467651
2429.19	0.0006073	0.00792236
2429.65	-0.698242	-0.018335
2430.11	-0.000500488	0.00467834
2430.59	0.000512695	0.00791931
2431.05	-0.698975	-0.0183258
2431.51	0.00017395	0.00467041
2431.99	-0.000460815	0.00793152
2432.45	-0.697601	-0.0183289
2432.91	-0.000521851	0.00467957
2433.39	0.000650024	0.00792236
2433.85	-0.697632	-0.0183258
2434.31	-0.000119019	0.00467743
2434.79	0.000582886	0.00792236
2435.25	-0.698395	-0.0183319
2435.71	0.000604248	0.00467072
2436.19	0.000402832	0.00791321
2436.65	-0.698334	-0.0183197
2437.11	0	0.00467163
2437.59	0.000570679	0.00792236
2438.05	-0.697845	-0.0183289
2438.51	0.00083313	0.00466766
2438.99	-0.000134277	0.00791321
2439.45	-0.699036	-0.0183228
2439.91	-0.000579834	0.00468018
2440.39	0.000668335	0.00791626
2440.85	-0.699005	-0.0183167
2441.31	-0.000543213	0.00468048
2441.79	-0.000662231	0.00792542
2442.25	-0.698059	-0.0183319
2442.71	0.000762939	0.00467316
2443.19	0.000616455	0.00791626
2443.65	-0.69751	-0.0183258
2444.11	-0.000610352	0.00468201
2444.59	-0.000820923	0.00791931
2445.05	-0.697601	-0.0183228
2445.51	0.000891113	0.00467377
2445.99	0.000643921	0.00791626
2446.45	-0.697784	-0.0183258
2446.91	0.000942993	0.00467468
2447.39	-0.000775146	0.00792236
2447.85	-0.697693	-0.0183197
2448.31	-0.000424194	0.00467926
2448.79	-5.49316e-05	0.00791931
2449.25	-0.698151	-0.0183197
2449.71	0.000869751	0.00467377
2450.19	-0.000762939	0.00791931
2450.65	-0.6987	-0.0183289
2451.11	-0.000543213	0.00468323
2451.59	0.000643921	0.0079071
2452.05	-0.698029	-0.0183289
2452.51	-0.000320435	0.00468048
2452.99	0.000146484	0.00791931
2453.45	-0.697815	-0.0183258
2453.91	0.000842285	0.00467438
2454.39	0.000708008	0.00791016
2454.85	-0.698151	-0.0183136
2455.31	-0.000115967	0.00467957
2455.79	-0.000469971	0.00791931
2456.25	-0.698578	-0.0183167
2456.71	-0.000427246	0.00468597
2457.19	7.93457e-05	0.00789795
2457.65	-0.698669	-0.0183258
2458.11	-0.000543213	0.00468597
2458.59	0.000646973	0.0079071
2459.05	-0.698914	-0.0183075
2459.51	0.00038147	0.00467773
2459.99	-0.000820923	0.00791931
2460.45	-0.698975	-0.0183105
2460.91	0.000909424	0.00468048
2461.39	0.000195313	0.00791626
2461.85	-0.699005	-0.0183105
2462.31	0.000128174	0.00468567
2462.79	-0.000662231	0.0079071
2463.25	-0.69751	-0.0183197
2463.71	-0.000341797	0.00468872
2464.19	0.000650024	0.00790405
2464.65	-0.698822	-0.0183075
2465.11	0.000888062	0.00467865
2465.59	0.000216675	0.0078949
2466.05	-0.698242	-0.0183136
2466.51	-0.000604248	0.00468872
2466.99	0.000552368	0.0079071
2467.45	-0.698914	-0.0183105
2467.91	-0.000662231	0.00468689
2468.39	-0.000888062	0.0079071
2468.85	-0.69812	-0.0183167
2469.31	0.000344849	0.00468567
2469.79	-0.000778198	0.0079071
2470.25	-0.697937	-0.0183075
2470.71	-6.40869e-05	0.00468719
2471.19	-1.2207e-05	0.0078949
2471.65	-0.698273	-0.0183044
2472.11	-0.000540161	0.00468964
2472.59	0.000473022	0.0078949
2473.05	-0.697571	-0.0183167
2473.51	0.000692749	0.00467987
2473.99	0.000552368	0.007901
2474.45	-0.69873	-0.0183014
2474.91	0.000613403	0.00468719
2475.39	0.000192261	0.00791321
2475.85	-0.698853	-0.0182983
2476.31	-0.000234985	0.00469208
2476.79	-0.000463867	0.0078949
2477.25	-0.697601	-0.0183167
2477.71	-0.000415039	0.00468842
2478.19	-0.000802612	0.007901
2478.65	-0.697449	-0.0183105
2479.11	5.79834e-05	0.00468964
2479.59	-0.00062561	0.00791016
2480.05	-0.698273	-0.0183044
2480.51	-0.000579834	0.00469238
2480.99	-0.000802612	0.00789795
2481.45	-0.69809	-0.0183075
2481.91	0.000921631	0.00468719
2482.39	0.000640869	0.00789795
2482.85	-0.698395	-0.0182953
2483.31	0.000845337	0.00468414
2483.79	-0.000198364	0.00789185
2484.25	-0.698151	-0.0183136
2484.71	0.000842285	0.00468628
2485.19	0.000628662	0.0078949
2485.65	-0.697449	-0.0183044
2486.11	0.000839233	0.00468506
2486.59	-0.000463867	0.00788879
2487.05	-0.697693	-0.0183136
2487.51	-0.000561523	0.00469482
2487.99	0.00012207	0.007901
2488.45	-0.698303	-0.0182983
2488.91	-0.000613403	0.00469177
2489.39	0.000735474	0.007901
2489.85	-0.699036	-0.0183014
2490.31	0.000311279	0.00468445
2490.79	-0.000210571	0.00790405
2491.25	-0.697693	-0.0183136
2491.71	0.0006073	0.00468567
2492.19	-0.000231934	0.00788879
2492.65	-0.698822	-0.0183044
2493.11	-0.000357056	0.00469269
2493.59	-0.000631714	0.007901
2494.05	-0.698364	-0.0183105
2494.51	0.000628662	0.00468719
2494.99	-0.000646973	0.00788879
2495.45	-0.698853	-0.0183014
2495.91	0.000778198	0.00468781
2496.39	-0.000878906	0.00788879
2496.85	-0.698761	-0.0182983
2497.31	0.00050354	0.00469635
2497.79	0.000213623	0.00788269
2498.25	-0.698456	-0.0182983
2498.71	0.000656128	0.00468811
2499.19	-0.000799561	0.00789795
2499.65	-0.697968	-0.0183044
2500.11	-0.00057373	0.00469788
2500.59	-0.000714111	0.0078949
2501.05	-0.699066	-0.0182983
2501.51	0.000836182	0.00468872
2501.99	0.000427246	0.00788879
2502.45	-0.698334	-0.0183044
2502.91	0.00020752	0.00469757
2503.39	0.000524902	0.00788269
2503.85	-0.698273	-0.0183044
2504.31	0.000662231	0.00468994
2504.79	0.000689697	0.00789185
2505.25	-0.698792	-0.0182861
2505.71	-0.00057373	0.00470093
2506.19	-0.000585937	0.00788269
2506.65	-0.697968	-0.0182892
2507.11	-0.000436401	0.00470001
2507.59	-0.000564575	0.00788574
2508.05	-0.698975	-0.0182922
2508.51	8.23975e-05	0.00469879
2508.99	0.000646973	0.00789185
2509.45	-0.697601	-0.0183044
2509.91	0.000357056	0.0046936
2510.39	-0.000186157	0.0078949
2510.85	-0.698944	-0.0182983
2511.31	-3.05176e-06	0.00470123
2511.79	0.000692749	0.00788574
2512.25	-0.69754	-0.0183044
2512.71	-0.000564575	0.00470306
2513.19	0.000305176	0.00787354
2513.65	-0.697723	-0.0182983
2514.11	-0.000518799	0.00470367
2514.59	-0.000814819	0.00788879
2515.05	-0.697906	-0.0182892
2515.51	0.000790405	0.0046936
2515.99	0.000415039	0.00787048
2516.45	-0.698883	-0.0182922
2516.91	0.000415039	0.00470123
2517.39	0.000112915	0.00789185
2517.85	-0.698975	-0.0182953
2518.31	0.00101624	0.00469666
2518.79	0.000479126	0.00788879
2519.25	-0.697845	-0.0182983
2519.71	-0.000146484	0.00470093
2520.19	-0.00010376	0.00788879
2520.65	-0.69751	-0.0183014
2521.11	0.000897217	0.00469635
2521.59	-0.00045166	0.00789185
2522.05	-0.69751	-0.0183014
2522.51	0.000769043	0.00469604
2522.99	0.000408936	0.00787048
2523.45	-0.698303	-0.0182953
2523.91	-3.66211e-05	0.0047049
2524.39	-0.00039978	0.00787048
2524.85	-0.697845	-0.0182922
2525.31	0.000286865	0.00469666
2525.79	3.96729e-05	0.00787048
2526.25	-0.699005	-0.0182892
2526.71	-0.000558472	0.00470825
2527.19	0.000488281	0.00787048
2527.65	-0.69751	-0.0183014
2528.11	-0.000335693	0.00470459
2528.59	0.000570679	0.00787354
2529.05	-0.697876	-0.0182953
2529.51	0.000692749	0.00469757
2529.99	-0.00027771	0.00788574
2530.45	-0.698334	-0.0182983
2530.91	-0.000482178	0.00470459
2531.39	-8.54492e-05	0.00787048
2531.85	-0.697815	-0.0183044
2532.31	-0.000183105	0.00470337
2532.79	0.000442505	0.00787354
2533.25	-0.697601	-0.0182953
2533.71	-0.000576782	0.00470917
2534.19	0.000564575	0.00787964
2534.65	-0.699127	-0.0182922
2535.11	-0.000460815	0.0047113
2535.59	-0.000445557	0.00788574
2536.05	-0.69751	-0.0182922
2536.51	-0.000259399	0.00471069
2536.99	-0.00083313	0.00787964
2537.45	-0.698151	-0.0182983
2537.91	0.000973511	0.00470428
2538.39	0.000531006	0.00786743
2538.85	-0.699005	-0.0182892
2539.31	0.000558472	0.00470215
2539.79	0.00055542	0.00787354
2540.25	-0.698883	-0.0182861
2540.71	-0.000576782	0.00471313
2541.19	-0.000579834	0.00788269
2541.65	-0.69751	-0.0182922
2542.11	-0.000238037	0.00470886
2542.59	0.000256348	0.00787659
2543.05	-0.697693	-0.0182953
2543.51	-0.000604248	0.00471344
2543.99	0.000622559	0.00787354
2544.45	-0.698242	-0.0182983
2544.91	0.000421143	0.00470306
2545.39	0.00062561	0.00787048
2545.85	-0.697693	-0.0182922
2546.31	0.000741577	0.00470764
2546.79	-0.00078125	0.00787964
2547.25	-0.698303	-0.0182983
2547.71	-0.000302124	0.00471191
2548.19	-0.000680542	0.00787354
2548.65	-0.69812	-0.0183014
2549.11	0.000881958	0.0047052
2549.59	-0.00038147	0.00786743
2550.05	-0.697632	-0.0182953
2550.51	0.000881958	0.00470612
2550.99	-0.000634766	0.00787048
2551.45	-0.697754	-0.0182861
2551.91	5.49316e-05	0.00470734
2552.39	-0.000631714	0.00787659
2552.85	-0.697601	-0.0182892
2553.31	-0.00057373	0.0047168
2553.79	-0.000656128	0.00786133
2554.25	-0.698914	-0.0182892
2554.71	0.000848389	0.00470795
2555.19	0.000595093	0.00786438
2555.65	-0.698853	-0.0182739
2556.11	-0.00055542	0.00471893
2556.59	0.000268555	0.00786743
2557.05	-0.698547	-0.018277
2557.51	-0.000305176	0.00471771
2557.99	-0.00088501	0.00786133
2558.45	-0.697693	-0.0182892
2558.91	7.32422e-05	0.00470917
2559.39	-0.00088501	0.00786438
2559.85	-0.697754	-0.01828
2560.31	-0.000564575	0.00471985
2560.79	0.000564575	0.00786133
2561.25	-0.697784	-0.0182922
2561.71	0.000271606	0.00471649
2562.19	-0.000149536	0.00787659
2562.65	-0.698456	-0.0182922
2563.11	0	0.00471893
2563.59	-0.000692749	0.00786743
2564.05	-0.698486	-0.018277
2564.51	-0.000308228	0.00472015
2564.99	-0.000442505	0.00787048
2565.45	-0.69812	-0.0182831
2565.91	-0.000311279	0.00472168
2566.39	0.000109863	0.00785828
2566.85	-0.69754	-0.0182892
2567.31	0.000146484	0.00471313
2567.79	-0.000189209	0.00785828
2568.25	-0.697601	-0.0182861
2568.71	-0.00055542	0.0047229
2569.19	-0.00065918	0.00786133
2569.65	-0.698242	-0.0182892
2570.11	-0.000231934	0.0047226
2570.59	-0.00020752	0.00787354
2571.05	-0.698395	-0.0182892
2571.51	0.000640869	0.0047171
2571.99	-0.000811768	0.00786133
2572.45	-0.698853	-0.0182739
2572.91	-0.000149536	0.00471741
2573.39	3.05176e-05	0.00785217
2573.85	-0.698669	-0.01828
2574.31	0.000671387	0.00471863
2574.79	9.15527e-05	0.00785522
2575.25	-0.698456	-0.01828
2575.71	0.000878906	0.0047168
2576.19	-0.000146484	0.00784912
2576.65	-0.698334	-0.018277
2577.11	0.000100708	0.00471893
2577.59	0.000469971	0.00785828
2578.05	-0.697571	-0.0182861
2578.51	0.000610352	0.00471619
2578.99	-0.000332642	0.00786743
2579.45	-0.698669	-0.0182831
2579.91	-0.000561523	0.00472351
2580.39	-0.000787354	0.00785217
2580.85	-0.698975	-0.0182709
2581.31	0.000564575	0.00471771
2581.79	0.000228882	0.00784302
2582.25	-0.697815	-0.0182739
2582.71	-0.000567627	0.0047287
2583.19	0.000515747	0.00784912
2583.65	-0.69751	-0.0182831
2584.11	-0.000314331	0.004729
2584.59	-0.000411987	0.00784912
2585.05	-0.698975	-0.0182709
2585.51	0.000866699	0.00471832
2585.99	-0.000881958	0.00785217
2586.45	-0.698273	-0.0182709
2586.91	0.000518799	0.00471771
2587.39	0.00067749	0.00784607
2587.85	-0.698517	-0.0182678
2588.31	0.000305176	0.00472534
2588.79	0.000350952	0.00785522
2589.25	-0.697876	-0.0182709
2589.71	0.00083313	0.00471954
2590.19	0.000350952	0.00784302
2590.65	-0.69754	-0.0182739
2591.11	0.000405884	0.00472229
2591.59	-0.000799561	0.00784912
2592.05	-0.698364	-0.0182739
2592.51	-0.000564575	0.00473206
2592.99	0.000601196	0.00785522
2593.45	-0.697998	-0.0182678
2593.91	0.0009765625	0.00472107
2594.39	0.000524902	0.00784912
2594.85	-0.699036	-0.0182648
2595.31	-0.000143433	0.00473083
2595.79	0.000585937	0.00784302
2596.25	-0.698883	-0.0182739
2596.71	0.000424194	0.00472351
2597.19	0.000570679	0.00784912
2597.65	-0.698792	-0.018277
2598.11	0.000698853	0.00472168
2598.59	-5.18799e-05	0.00783997
2599.05	-0.698303	-0.0182678
2599.51	-0.000384521	0.00473236
2599.99	0.000671387	0.00785522
2600.45	-0.697845	-0.0182678
2600.91	0.000946045	0.00472137
2601.39	0.000222778	0.00785522
2601.85	-0.698364	-0.0182648
2602.31	0.000891113	0.00472382
2602.79	-2.44141e-05	0.00783691
2603.25	-0.697632	-0.0182587
2603.71	0.00015564	0.00473114
2604.19	0.000442505	0.00783691
2604.65	-0.697998	-0.018277
2605.11	0.00027771	0.00472626
2605.59	-0.000778198	0.00785217
2606.05	-0.697815	-0.018277
2606.51	0.000100708	0.00473389
2606.99	-0.000271606	0.00783691
2607.45	-0.69812	-0.018277
2607.91	0.000357056	0.00472626
2608.39	0.00012207	0.00783691
2608.85	-0.698456	-0.0182617
2609.31	-1.52588e-05	0.00472992
2609.79	-0.000341797	0.00783386
2610.25	-0.697723	-0.0182709
2610.71	0	0.00472992
2611.19	-0.000726318	0.00783997
2611.65	-0.697601	-0.0182648
2612.11	-0.000521851	0.00473602
2612.59	-0.000772095	0.00783997
2613.05	-0.698029	-0.0182709
2613.51	0.000872803	0.00473145
2613.99	0.000628662	0.00783997
2614.45	-0.69754	-0.0182678
2614.91	0.000695801	0.00472626
2615.39	-0.000790405	0.00783997
2615.85	-0.698181	-0.0182709
2616.31	-0.000588989	0.00473572
2616.79	0.000637817	0.00783691
2617.25	-0.69812	-0.0182526
2617.71	0.000726318	0.00472626
2618.19	-0.000582886	0.00785217
2618.65	-0.698761	-0.0182526
2619.11	0.000247192	0.00473328
2619.59	9.46045e-05	0.00784607
2620.05	-0.69812	-0.0182648
2620.51	-0.000631714	0.00473785
2620.99	-0.000543213	0.00783691
2621.45	-0.697937	-0.0182648
2621.91	0.000112915	0.00473602
2622.39	0.000637817	0.00783691
2622.85	-0.699066	-0.0182556
2623.31	0.000497437	0.00473358
2623.79	0.000622559	0.00783081
2624.25	-0.698975	-0.0182617
2624.71	0.00050354	0.0047348
2625.19	-0.00078125	0.00783691
2625.65	-0.697571	-0.0182617
2626.11	-6.40869e-05	0.00473511
2626.59	0.000668335	0.00784302
2627.05	-0.698822	-0.0182587
2627.51	-0.000628662	0.00474091
2627.99	-0.000521851	0.00783386
2628.45	-0.69873	-0.0182556
2628.91	0.000531006	0.00473236
2629.39	-0.000494385	0.00783997
2629.85	-0.697998	-0.0182739
2630.31	-8.54492e-05	0.0047406
2630.79	-0.000119019	0.00782776
2631.25	-0.699005	-0.0182526
2631.71	0.000769043	0.00473419
2632.19	-0.000665283	0.00784607
2632.65	-0.6987	-0.0182526
2633.11	-0.000601196	0.00473907
2633.59	-0.00067749	0.00783691
2634.05	-0.698822	-0.0182587
2634.51	2.44141e-05	0.00474121
2634.99	0.000628662	0.00783386
2635.45	-0.698883	-0.0182587
2635.91	-0.00045166	0.00474335
2636.39	0.000473022	0.00782776
2636.85	-0.699127	-0.0182617
2637.31	0.000793457	0.00473511
2637.79	-0.000259399	0.00783997
2638.25	-0.697815	-0.0182678
2638.71	0.000549316	0.00473694
2639.19	-0.000387573	0.00782166
2639.65	-0.698914	-0.0182678
2640.11	-0.000463867	0.00474518
2640.59	0.000488281	0.00783691
2641.05	-0.698029	-0.0182739
2641.51	0.000802612	0.00473419
2641.99	0.000567627	0.00783386
2642.45	-0.697754	-0.0182556
2642.91	-4.27246e-05	0.00474243
2643.39	0.000390625	0.00782166
2643.85	-0.69754	-0.0182648
2644.31	-0.000326538	0.00474487
2644.79	0.00045166	0.00782166
2645.25	-0.698395	-0.0182678
2645.71	0.000518799	0.0047403
2646.19	-0.000460815	0.0078186
2646.65	-0.698914	-0.0182617
2647.11	0.000909424	0.00473511
2647.59	-0.000393677	0.00783691
2648.05	-0.698975	-0.0182495
2648.51	-0.000494385	0.00474487
2648.99	-0.000552368	0.00782471
2649.45	-0.699097	-0.0182526
2649.91	6.71387e-05	0.00473999
2650.39	0.000518799	0.00782471
2650.85	-0.699036	-0.0182526
2651.31	-0.000338745	0.0047464
2651.79	-0.00022583	0.00782471
2652.25	-0.698639	-0.0182495
2652.71	-1.2207e-05	0.00474701
2653.19	-0.000619507	0.00783081
2653.65	-0.69873	-0.0182556
2654.11	0.000817871	0.00473694
2654.59	-0.000119019	0.00783386
2655.05	-0.698059	-0.0182587
2655.51	-0.000265503	0.00474365
2655.99	-4.27246e-05	0.0078186
2656.45	-0.698547	-0.0182465
2656.91	-0.000518799	0.00474701
2657.39	0.000350952	0.00781555
2657.85	-0.6987	-0.0182587
2658.31	-0.000540161	0.00474792
2658.79	0.000613403	0.0078186
2659.25	-0.697937	-0.0182495
2659.71	0.000973511	0.00474243
2660.19	0.000485229	0.0078186
2660.65	-0.698273	-0.0182526
2661.11	0.000332642	0.00474548
2661.59	0.000421143	0.00782471
2662.05	-0.699097	-0.0182495
2662.51	0.000119019	0.00474304
2662.99	-0.000802612	0.00782471
2663.45	-0.69754	-0.0182526
2663.91	-0.000427246	0.00475006
2664.39	-0.000119019	0.00782776
2664.85	-0.698944	-0.0182434
2665.31	0.00062561	0.00474182
2665.79	-0.000241089	0.0078186
2666.25	-0.698608	-0.0182556
2666.71	0.00102234	0.00474304
2667.19	-0.000256348	0.00781555
2667.65	-0.69754	-0.0182617
2668.11	0.000845337	0.00474213
2668.59	-0.000302124	0.0078125
2669.05	-0.697571	-0.0182556
2669.51	0.000421143	0.00474854
2669.99	-0.000808716	0.0078186
2670.45	-0.698975	-0.0182434
2670.91	-0.000292969	0.00475311
2671.39	-0.000845337	0.0078186
2671.85	-0.699036	-0.0182434
2672.31	-0.000509644	0.00475433
2672.79	0.000668335	0.0078186
2673.25	-0.69754	-0.0182556
2673.71	0.000256348	0.00474579
2674.19	-0.000143433	0.0078125
2674.65	-0.697998	-0.0182526
2675.11	0.000167847	0.00474854
2675.59	0.000274658	0.0078125
2676.05	-0.697754	-0.0182465
2676.51	0.000698853	0.00474518
2676.99	-0.000683594	0.00782471
2677.45	-0.698822	-0.0182434
2677.91	0.000378418	0.00474854
2678.39	0.000259399	0.00782166
2678.85	-0.698975	-0.0182404
2679.31	0.000158691	0.00474426
2679.79	0.000527954	0.00781555
2680.25	-0.698364	-0.0182526
2680.71	0.000134277	0.00474609
2681.19	0.000250244	0.0078186
2681.65	-0.697479	-0.0182556
2682.11	0.000332642	0.00475006
2682.59	0.0006073	0.0078064
2683.05	-0.698273	-0.0182556
2683.51	0.000369263	0.00475067
2683.99	-0.000759888	0.0078125
2684.45	-0.697968	-0.0182404
2684.91	0.000823975	0.00474579
2685.39	-0.000650024	0.00780334
2685.85	-0.697601	-0.0182465
2686.31	0.000985718	0.00474731
2686.79	0.000473022	0.00780334
2687.25	-0.698273	-0.0182526
2687.71	-0.000314331	0.00475647
2688.19	0.000595093	0.0078064
2688.65	-0.699097	-0.0182343
2689.11	-0.000430298	0.00475464
2689.59	0.000558472	0.00780945
2690.05	-0.698486	-0.0182465
2690.51	0.000881958	0.0047464
2690.99	0.000405884	0.0078125
2691.45	-0.697479	-0.0182465
2691.91	1.52588e-05	0.00475616
2692.39	0.000646973	0.0078186
2692.85	-0.697998	-0.0182434
2693.31	0.000854492	0.00474731
2693.79	0.000588989	0.00780945
2694.25	-0.69754	-0.0182465
2694.71	0.000109863	0.00475433
2695.19	0.000192261	0.00779724
2695.65	-0.699036	-0.0182312
2696.11	3.96729e-05	0.0047525
2696.59	-0.000320435	0.00781555
2697.05	-0.698669	-0.0182312
2697.51	0.000601196	0.00475159
2697.99	-9.76562e-05	0.00780029
2698.45	-0.69751	-0.0182434
2698.91	-3.35693e-05	0.00474945
2699.39	0.000128174	0.00780334
2699.85	-0.69754	-0.0182404
2700.31	0.000289917	0.00475586
2700.79	-0.000152588	0.00780029
2701.25	-0.698975	-0.0182343
2701.71	-0.000283813	0.00476044
2702.19	0.000375366	0.00779419
2702.65	-0.698364	-0.0182465
2703.11	0.000524902	0.00475616
2703.59	-0.000231934	0.00779724
2704.05	-0.698425	-0.0182404
2704.51	-9.15527e-06	0.00475555
2704.99	-0.000567627	0.00780945
2705.45	-0.698456	-0.0182404
2705.91	-0.000363159	0.00475525
2706.39	-0.000631714	0.0078125
2706.85	-0.698975	-0.0182312
2707.31	-0.000140381	0.00476105
2707.79	0.000222778	0.0078064
2708.25	-0.697571	-0.0182373
2708.71	0.000119019	0.00475891
2709.19	0.000466919	0.00780029
2709.65	-0.697601	-0.0182465
2710.11	0.000558472	0.00475616
2710.59	-0.000439453	0.00780945
2711.05	-0.69751	-0.0182465
2711.51	-8.23975e-05	0.00476227
2711.99	-0.000756836	0.0078125
2712.45	-0.698029	-0.0182556
2712.91	0.000469971	0.00475098
2713.39	0.000250244	0.0078125
2713.85	-0.697845	-0.0182556
2714.31	0.00090332	0.00475159
2714.79	0.000170898	0.00780029
2715.25	-0.699097	-0.0182495
2715.71	-4.88281e-05	0.00476074
2716.19	0.000164795	0.00779114
2716.65	-0.698547	-0.0182556
2717.11	-0.000384521	0.00475952
2717.59	0.000411987	0.00779724
2718.05	-0.698059	-0.0182495
2718.51	0.000634766	0.00475067
2718.99	-0.00078125	0.00779114
2719.45	-0.697693	-0.0182495
2719.91	3.35693e-05	0.00475494
2720.39	-2.44141e-05	0.0078064
2720.85	-0.698914	-0.0182495
2721.31	5.18799e-05	0.00476074
2721.79	0.000308228	0.00780334
2722.25	-0.697449	-0.0182556
2722.71	0.000866699	0.00475281
2723.19	0.000213623	0.0078064
2723.65	-0.697632	-0.0182556
2724.11	-0.00038147	0.00476288
2724.59	-0.000854492	0.00780334
2725.05	-0.698242	-0.0182526
2725.51	0.000805664	0.00475891
2725.99	-0.000799561	0.00779419
2726.45	-0.697693	-0.0182495
2726.91	-0.000250244	0.00476349
2727.39	0.000405884	0.00779724
2727.85	-0.697571	-0.0182526
2728.31	0.000775146	0.00475647
2728.79	0.000469971	0.00779114
2729.25	-0.698944	-0.0182495
2729.71	-0.000552368	0.00476318
2730.19	-0.000756836	0.00780029
2730.65	-0.698395	-0.0182495
2731.11	0.000476074	0.00475891
2731.59	-0.000808716	0.0078064
2732.05	-0.699005	-0.0182465
2732.51	0.000164795	0.00476532
2732.99	-1.2207e-05	0.00778809
2733.45	-0.698914	-0.0182434
2733.91	-0.000534058	0.00476501
2734.39	-0.000653076	0.00779114
2734.85	-0.699158	-0.0182465
2735.31	0.000540161	0.00475708
2735.79	-0.000360107	0.00779114
2736.25	-0.697754	-0.0182495
2736.71	6.10352e-06	0.00476501
2737.19	0.000613403	0.00779724
2737.65	-0.698975	-0.0182465
2738.11	-0.00043335	0.00476257
2738.59	0.00043335	0.00778809
2739.05	-0.698364	-0.0182373
2739.51	-0.000292969	0.00476807
2739.99	-0.000146484	0.0078064
2740.45	-0.69751	-0.0182556
2740.91	9.76562e-05	0.00476227
2741.39	-0.000213623	0.00778809
2741.85	-0.697815	-0.0182556
2742.31	0.000485229	0.00476044
2742.79	0.00065918	0.00779419
2743.25	-0.698425	-0.0182526
2743.71	-0.000466919	0.00476868
2744.19	-0.000112915	0.0078064
2744.65	-0.69754	-0.0182526
2745.11	0.00050354	0.00475952
2745.59	-0.000506592	0.00780334
2746.05	-0.698334	-0.0182434
2746.51	0.00015564	0.0047644
2746.99	0.000317383	0.00780029
2747.45	-0.698608	-0.0182373
2747.91	-0.00050354	0.00477203
2748.39	0.000585937	0.00778503
2748.85	-0.697998	-0.0182556
2749.31	0.00083313	0.0047641
2749.79	0.000610352	0.00778503
2750.25	-0.6987	-0.0182343
2750.71	0.000765991	0.0047641
2751.19	0.000186157	0.00780029
2751.65	-0.699005	-0.0182434
2752.11	-0.000674438	0.00477203
2752.59	0.000341797	0.00777893
2753.05	-0.697601	-0.0182495
2753.51	0.000180054	0.00476807
2753.99	0.00015564	0.00778198
2754.45	-0.697601	-0.0182404
2754.91	0.00067749	0.00476685
2755.39	0.000546265	0.00778198
2755.85	-0.699005	-0.0182404
2756.31	0.000698853	0.004765625
2756.79	0.000570679	0.00778198
2757.25	-0.69812	-0.0182404
2757.71	0.000817871	0.00476349
2758.19	0.000662231	0.00778198
2758.65	-0.698944	-0.0182465
2759.11	-0.000256348	0.00477051
2759.59	0.000387573	0.00778198
2760.05	-0.698212	-0.0182465
2760.51	-0.000588989	0.00477539
2760.99	-0.000463867	0.00778503
2761.45	-0.698883	-0.0182281
2761.91	0.000231934	0.00477051
2762.39	-0.000756836	0.00778503
2762.85	-0.699005	-0.0182404
2763.31	0.000518799	0.00476532
2763.79	0.000646973	0.00779114
2764.25	-0.697601	-0.0182434
2764.71	-0.000610352	0.00477234
2765.19	0.000363159	0.00776978
2765.65	-0.698639	-0.0182404
2766.11	-0.000488281	0.00477417
2766.59	-0.000604248	0.00779114
2767.05	-0.698944	-0.0182343
2767.51	-7.62939e-05	0.00476929
2767.99	0.000350952	0.00778503
2768.45	-0.697968	-0.0182434
2768.91	3.35693e-05	0.00477234
2769.39	-0.000491333	0.00779419
2769.85	-0.698578	-0.0182281
2770.31	-0.000567627	0.00477203
2770.79	0.000512695	0.00779114
2771.25	-0.697693	-0.0182312
2771.71	0.000735474	0.00476807
2772.19	0.000592041	0.00777893
2772.65	-0.698395	-0.0182434
2773.11	-0.000112915	0.00477203
2773.59	0.000204468	0.00777588
2774.05	-0.697388	-0.0182343
2774.51	-6.10352e-06	0.00477417
2774.99	-0.000784302	0.00778198
2775.45	-0.698883	-0.0182343
2775.91	0.000866699	0.00476685
2776.39	0.000723267	0.00777893
2776.85	-0.697571	-0.0182434
2777.31	-0.000564575	0.00477386
2777.79	0.000119019	0.00778809
2778.25	-0.698975	-0.0182373
2778.71	-0.000543213	0.00477844
2779.19	-0.000436401	0.00777588
2779.65	-0.698975	-0.0182312
2780.11	4.88281e-05	0.00477661
2780.59	-0.000384521	0.00778198
2781.05	-0.69812	-0.018222
2781.51	0.000714111	0.00477173
2781.99	0.000457764	0.00776978
2782.45	-0.697723	-0.0182434
2782.91	0.000836182	0.0047699
2783.39	-0.000393677	0.00778809
2783.85	-0.698273	-0.0182373
2784.31	-0.000646973	0.00477966
2784.79	-0.00072937	0.00778503
2785.25	-0.697662	-0.0182343
2785.71	0.00039978	0.00477112
2786.19	-0.000561523	0.00777893
2786.65	-0.699097	-0.0182281
2787.11	0.00015564	0.00477692
2787.59	0.000445557	0.00777588
2788.05	-0.697571	-0.0182404
2788.51	0.00012207	0.00477448
2788.99	0.000201416	0.00778198
2789.45	-0.698669	-0.0182281
2789.91	6.10352e-06	0.00477295
2790.39	0.000152588	0.00777283
2790.85	-0.697845	-0.0182404
2791.31	0.000906372	0.00477203
2791.79	-0.00062561	0.00777283
2792.25	-0.697693	-0.0182312
2792.71	-7.32422e-05	0.0047818
2793.19	0.000201416	0.00777588
2793.65	-0.69754	-0.0182404
2794.11	0.00050354	0.00477448
2794.59	-0.00078125	0.00777893
2795.05	-0.698853	-0.0182312
2795.51	0.000616455	0.00477814
2795.99	0.000296021	0.00776672
2796.45	-0.697754	-0.0182343
2796.91	0.000921631	0.00477722
2797.39	0.000189209	0.00776978
2797.85	-0.697723	-0.0182281
2798.31	0.000762939	0.00477692
2798.79	-0.000671387	0.00777893
2799.25	-0.698029	-0.0182281
2799.71	0.000592041	0.00477631
2800.19	-0.00010376	0.00777588
2800.65	-0.697754	-0.0182343
2801.11	-0.000363159	0.00478302
2801.59	1.2207e-05	0.00776672
2802.05	-0.698792	-0.0182281
2802.51	0.000823975	0.00477509
2802.99	0.000604248	0.00777283
2803.45	-0.69809	-0.0182404
2803.91	-0.00065918	0.00478455
2804.39	-0.000814819	0.00777283
2804.85	-0.697662	-0.0182312
2805.31	-0.000473022	0.00478424
2805.79	-0.000680542	0.00777588
2806.25	-0.697754	-0.0182312
2806.71	0.000793457	0.00477661
2807.19	0.000112915	0.00776062
2807.65	-0.698059	-0.0182251
2808.11	0.00010376	0.00478424
2808.59	0.000640869	0.00776978
2809.05	-0.698975	-0.018222
2809.51	0.000924683	0.00478149
2809.99	0.000665283	0.00776978
2810.45	-0.697968	-0.0182343
2810.91	-3.35693e-05	0.0047879
2811.39	6.71387e-05	0.00776062
2811.85	-0.698853	-0.0182281
2812.31	0.000219727	0.00478516
2812.79	-0.000790405	0.00776978
2813.25	-0.698212	-0.0182312
2813.71	-4.57764e-05	0.00478302
2814.19	-0.000430298	0.00777283
2814.65	-0.698853	-0.018222
2815.11	-0.000549316	0.00478821
2815.59	0.000491333	0.00777588
2816.05	-0.698883	-0.018219
2816.51	8.8501e-05	0.00478943
2816.99	0.000320435	0.00776672
2817.45	-0.697754	-0.0182281
2817.91	-0.000320435	0.00479187
2818.39	-0.000750732	0.00776672
2818.85	-0.699036	-0.018222
2819.31	-0.000518799	0.00478973
2819.79	-0.00043335	0.00777283
2820.25	-0.698059	-0.0182343
2820.71	-0.000299072	0.00479004
2821.19	0.000338745	0.00776367
2821.65	-0.698029	-0.0182251
2822.11	1.52588e-05	0.00478912
2822.59	0.000384521	0.00776672
2823.05	-0.697693	-0.0182281
2823.51	0.000552368	0.00478973
2823.99	0.00020752	0.00777283
2824.45	-0.697601	-0.0182281
2824.91	0.000524902	0.00478943
2825.39	0.000421143	0.00776672
2825.85	-0.697815	-0.018222
2826.31	0.000686646	0.00478821
2826.79	0.00027771	0.00775757
2827.25	-0.697601	-0.0182312
2827.71	0.000564575	0.00478699
2828.19	-0.000698853	0.00776672
2828.65	-0.697845	-0.0182343
2829.11	0.000408936	0.00479431
2829.59	0.000201416	0.00775452
2830.05	-0.698883	-0.018219
2830.51	0.00055542	0.00478638
2830.99	-0.000183105	0.00775757
2831.45	-0.697632	-0.0182159
2831.91	0.000146484	0.0047937
2832.39	-0.000192261	0.00776978
2832.85	-0.698792	-0.0182251
2833.31	0.000906372	0.00478699
2833.79	0.000332642	0.00775452
2834.25	-0.697632	-0.0182251
2834.71	-0.00045166	0.00479462
2835.19	-0.000842285	0.00776062
2835.65	-0.698212	-0.018219
2836.11	-0.000619507	0.00479736
2836.59	4.27246e-05	0.00776978
2837.05	-0.69873	-0.0182068
2837.51	-0.000540161	0.00479706
2837.99	-0.000650024	0.00775452
2838.45	-0.697571	-0.018219
2838.91	-4.27246e-05	0.00479523
2839.39	0.000222778	0.00776062
2839.85	-0.697662	-0.018222
2840.31	0.000836182	0.00478729
2840.79	0.000256348	0.00774231
2841.25	-0.697693	-0.0182098
2841.71	0.000814819	0.00478668
2842.19	-0.000830078	0.00775452
2842.65	-0.697815	-0.0182129
2843.11	-0.000634766	0.00479797
2843.59	-0.000488281	0.00775452
2844.05	-0.698059	-0.0182098
2844.51	0.000854492	0.00478882
2844.99	-0.000363159	0.00776367
2845.45	-0.699036	-0.0182129
2845.91	-0.00022583	0.00479828
2846.39	-0.000527954	0.00776062
2846.85	-0.698303	-0.0182129
2847.31	-0.000521851	0.0047995
2847.79	-0.000369263	0.00774536
2848.25	-0.697845	-0.0182129
2848.71	-0.000375366	0.0047934
2849.19	0.000668335	0.00774841
2849.65	-0.698914	-0.0182098
2850.11	0.000283813	0.00479645
2850.59	-0.000765991	0.00774841
2851.05	-0.699005	-0.0182068
2851.51	0.000796509	0.00479004
2851.99	-5.49316e-05	0.00775757
2852.45	-0.698639	-0.0182007
2852.91	0.000808716	0.00479095
2853.39	-0.000793457	0.00775452
2853.85	-0.698883	-0.0182068
2854.31	-0.000531006	0.00479797
2854.79	0.000506592	0.00775452
2855.25	-0.697693	-0.0182037
2855.71	-6.40869e-05	0.00479156
2856.19	-0.000326538	0.00774231
2856.65	-0.697937	-0.0182068
2857.11	-0.000405884	0.00480103
2857.59	-0.000201416	0.00774231
2858.05	-0.697601	-0.0182159
2858.51	0.000823975	0.00479279
2858.99	-9.76562e-05	0.00774841
2859.45	-0.697968	-0.0182007
2859.91	-2.74658e-05	0.00479858
2860.39	-0.000735474	0.00775146
2860.85	-0.697876	-0.0182037
2861.31	0.000854492	0.00479156
2861.79	-0.000860596	0.00775452
2862.25	-0.697723	-0.0182129
2862.71	-0.000601196	0.00480164
2863.19	0.000152588	0.00775452
2863.65	-0.697571	-0.0182098
2864.11	-0.000479126	0.00479919
2864.59	-6.40869e-05	0.00773926
2865.05	-0.698547	-0.0182068
2865.51	-0.000180054	0.00479706
2865.99	0.000592041	0.00774231
2866.45	-0.69754	-0.0182068
2866.91	0.000286865	0.00479431
2867.39	-0.000427246	0.00775146
2867.85	-0.698425	-0.0181946
2868.31	0.00012207	0.00479523
2868.79	0.000726318	0.00774536
2869.25	-0.698975	-0.0181976
2869.71	0.000875854	0.00479553
2870.19	-0.000708008	0.00773926
2870.65	-0.698792	-0.0182068
2871.11	9.76562e-05	0.00480164
2871.59	9.15527e-06	0.00773621
2872.05	-0.697815	-0.0181915
2872.51	-0.000531006	0.00480316
2872.99	0.000549316	0.00773926
2873.45	-0.698273	-0.0182068
2873.91	-3.66211e-05	0.00479797
2874.39	0.000689697	0.00773926
2874.85	-0.697571	-0.0181976
2875.31	-0.000622559	0.00480255
2875.79	0.000558472	0.00774231
2876.25	-0.697998	-0.0182129
2876.71	-0.000228882	0.00480438
2877.19	0.000454712	0.00773315
2877.65	-0.699066	-0.0181976
2878.11	-0.000527954	0.00480408
2878.59	0.000335693	0.00772705
2879.05	-0.699036	-0.0181946
2879.51	0.000839233	0.00479614
2879.99	0.000454712	0.00773926
2880.45	-0.69751	-0.0182037
2880.91	-0.00062561	0.00480621
2881.39	0.000274658	0.00775146
2881.85	-0.697815	-0.0182129
2882.31	0.000854492	0.00479706
2882.79	-0.000665283	0.00774536
2883.25	-0.698761	-0.0181915
2883.71	0.000830078	0.00479919
2884.19	9.76562e-05	0.00774536
2884.65	-0.699066	-0.0181946
2885.11	0.000286865	0.00480347
2885.59	-0.000143433	0.00773315
2886.05	-0.698059	-0.0182037
2886.51	-2.44141e-05	0.00480194
2886.99	-8.23975e-05	0.00774231
2887.45	-0.698425	-0.0181946
2887.91	0.00090332	0.00480133
2888.39	0.000363159	0.0077301
2888.85	-0.698212	-0.0181976
2889.31	-0.000418091	0.00480896
2889.79	0.000335693	0.00774231
2890.25	-0.697632	-0.0181854
2890.71	-0.000189209	0.00480835
2891.19	0.000137329	0.00773315
2891.65	-0.698547	-0.0181946
2892.11	0.000613403	0.00480103
2892.59	0.000280762	0.00773621
2893.05	-0.697723	-0.0181976
2893.51	-0.000421143	0.00480835
2893.99	0.000439453	0.00773315
2894.45	-0.69809	-0.0182007
2894.91	0.000537109	0.00480042
2895.39	-0.000350952	0.0077301
2895.85	-0.698822	-0.0181854
2896.31	0.000845337	0.00480133
2896.79	0.000366211	0.00773621
2897.25	-0.697937	-0.0182007
2897.71	0.00088501	0.00480164
2898.19	-0.000793457	0.00773621
2898.65	-0.698059	-0.0181915
2899.11	0.000769043	0.00480255
2899.59	-0.000192261	0.0077301
2900.05	-0.69754	-0.0181976
2900.51	0.000964355	0.00480469
2900.99	0.000576782	0.0077301
2901.45	-0.69812	-0.0181976
2901.91	0.000317383	0.00480804
2902.39	-0.000534058	0.0077301
2902.85	-0.697479	-0.0181976
2903.31	-0.000137329	0.00481354
2903.79	-0.000762939	0.00773621
2904.25	-0.698242	-0.0182007
2904.71	0.000839233	0.00480621
2905.19	1.83105e-05	0.0077179
2905.65	-0.6987	-0.0181885
2906.11	0.000680542	0.00481018
2906.59	-0.000164795	0.00773926
2907.05	-0.698181	-0.0181915
2907.51	-0.000540161	0.00481445
2907.99	0.000515747	0.007724
2908.45	-0.697845	-0.0181885
2908.91	-0.000476074	0.00481476
2909.39	-0.000564575	0.0077301
2909.85	-0.69754	-0.0182068
2910.31	-0.000335693	0.00480347
2910.79	-0.000268555	0.00770874
2911.25	-0.698029	-0.0182068
2911.71	-0.000512695	0.00479797
2912.19	-0.000848389	0.0077179
2912.65	-0.697906	-0.0182159
2913.11	0.000109863	0.00479706
2913.59	-0.000775146	0.00770874
2914.05	-0.697601	-0.018219
2914.51	0.000787354	0.00478668
2914.99	-0.000692749	0.00771179
2915.45	-0.698486	-0.0182251
2915.91	0.000524902	0.00478851
2916.39	3.35693e-05	0.00771484
2916.85	-0.698669	-0.018219
2917.31	0.000100708	0.00479095
2917.79	0.000622559	0.00770874
2918.25	-0.698029	-0.0182129
2918.71	-0.000500488	0.00479218
2919.19	0.000674438	0.00771179
2919.65	-0.699036	-0.0182068
2920.11	-0.000299072	0.00478882
2920.59	-0.000576782	0.00770874
2921.05	-0.698395	-0.018222
2921.51	-7.93457e-05	0.00479004
2921.99	-0.000732422	0.00769958
2922.45	-0.698334	-0.018219
2922.91	0.000784302	0.00478882
2923.39	1.2207e-05	0.00769348
2923.85	-0.697968	-0.0182159
2924.31	-0.000357056	0.00479401
2924.79	0.000558472	0.00769958
2925.25	-0.698517	-0.0182007
2925.71	-0.00010376	0.00479675
2926.19	-1.2207e-05	0.00770874
2926.65	-0.698303	-0.0182159
2927.11	-7.01904e-05	0.00479309
2927.59	0.000213623	0.00770264
2928.05	-0.698792	-0.0182129
2928.51	-0.000506592	0.00479889
2928.99	0.000619507	0.00769958
2929.45	-0.69873	-0.0181946
2929.91	-6.10352e-05	0.00479645
2930.39	0.000619507	0.00770264
2930.85	-0.697784	-0.0182037
2931.31	-0.000299072	0.00479767
2931.79	-0.000363159	0.00769348
2932.25	-0.698883	-0.0181946
2932.71	0.000512695	0.00479431
2933.19	0.00020752	0.00770264
2933.65	-0.69873	-0.0182037
2934.11	0.000241089	0.00479767
2934.59	-0.000485229	0.00771484
2935.05	-0.698456	-0.0181946
2935.51	0.000280762	0.00480286
2935.99	0.000497437	0.00770569
2936.45	-0.698853	-0.0182037
2936.91	0.000823975	0.00479919
2937.39	-0.000692749	0.0077179
2937.85	-0.697571	-0.0182098
2938.31	0.000900269	0.00479889
2938.79	0.000744629	0.00770569
2939.25	-0.698395	-0.0181946
2939.71	-0.00017395	0.0048056
2940.19	0.000418091	0.00771484
2940.65	-0.697754	-0.0182068
2941.11	-0.000244141	0.00481171
2941.59	-0.000750732	0.00771484
2942.05	-0.698273	-0.0181915
2942.51	0.000222778	0.00480713
2942.99	-0.000509644	0.00770569
2943.45	-0.69754	-0.0182037
2943.91	0.000875854	0.0048056
2944.39	-0.000805664	0.00770569
2944.85	-0.698975	-0.0181915
2945.31	0.000750732	0.00480408
2945.79	0.000616455	0.00770569
2946.25	-0.69754	-0.0181976
2946.71	-0.000524902	0.00481598
2947.19	-0.000769043	0.00771179
2947.65	-0.697388	-0.0181946
2948.11	0.000842285	0.00480621
2948.59	0.000170898	0.00769348
2949.05	-0.698456	-0.0181824
2949.51	-0.000460815	0.00481659
2949.99	-9.76562e-05	0.00771484
2950.45	-0.697845	-0.0181976
2950.91	0.000698853	0.00480591
2951.39	0.000515747	0.00771179
2951.85	-0.699005	-0.0181915
2952.31	-0.000393677	0.0048175
2952.79	0.000631714	0.00770264
2953.25	-0.698669	-0.0181824
2953.71	0.00043335	0.00480865
2954.19	-0.000604248	0.00770569
2954.65	-0.698853	-0.0181824
2955.11	0.000784302	0.00480835
2955.59	0.000186157	0.00770874
2956.05	-0.698059	-0.0181946
2956.51	8.23975e-05	0.00481598
2956.99	-0.000726318	0.00770569
2957.45	-0.697601	-0.0181915
2957.91	-0.000628662	0.00481598
2958.39	-0.000189209	0.00769653
2958.85	-0.698822	-0.0181793
2959.31	-0.000408936	0.00481812
2959.79	0.000610352	0.00770264
2960.25	-0.698669	-0.0181885
2960.71	0.00083313	0.00481201
2961.19	0.000247192	0.00770569
2961.65	-0.697845	-0.0181885
2962.11	-0.000488281	0.00482056
2962.59	-0.000778198	0.00770264
2963.05	-0.697754	-0.0181946
2963.51	0.000177002	0.00481445
2963.99	-0.000189209	0.00769653
2964.45	-0.69754	-0.0181885
2964.91	0.000714111	0.00481079
2965.39	0.000134277	0.00770874
2965.85	-0.697571	-0.0181854
2966.31	-0.000540161	0.004823
2966.79	-0.000595093	0.00770569
2967.25	-0.699127	-0.0181824
2967.71	3.35693e-05	0.00481567
2968.19	-0.000646973	0.00769958
2968.65	-0.69754	-0.0181915
2969.11	0.000561523	0.00481537
2969.59	0.000161743	0.00769348
2970.05	-0.698669	-0.0181732
2970.51	0.000296021	0.00481293
2970.99	0.000198364	0.00769043
2971.45	-0.698059	-0.0181885
2971.91	-0.000213623	0.00482391
2972.39	0.000112915	0.00768738
2972.85	-0.697784	-0.0181824
2973.31	-0.000292969	0.00482361
2973.79	0.000631714	0.00768738
2974.25	-0.697449	-0.0181763
2974.71	0.000326538	0.00482056
2975.19	-0.000485229	0.00770569
2975.65	-0.697937	-0.0181885
2976.11	-0.000534058	0.00482513
2976.59	0.000189209	0.00769043
2977.05	-0.697693	-0.0181793
2977.51	0.000848389	0.00481506
2977.99	-0.000604248	0.00770569
2978.45	-0.698212	-0.0181763
2978.91	-0.000534058	0.00482544
2979.39	-0.000741577	0.00769958
2979.85	-0.698578	-0.0181854
2980.31	0.00055542	0.0048172
2980.79	0.000622559	0.00769043
2981.25	-0.699005	-0.0181732
2981.71	0.000820923	0.0048172
2982.19	0.000680542	0.00769958
2982.65	-0.698639	-0.0181702
2983.11	0.000790405	0.00482239
2983.59	0.000726318	0.00769653
2984.05	-0.698608	-0.0181702
2984.51	-0.000521851	0.00482666
2984.99	0.000387573	0.00769043
2985.45	-0.698608	-0.0181702
2985.91	0.000488281	0.00481873
2986.39	0.000643921	0.00768738
2986.85	-0.698853	-0.0181854
2987.31	0.000610352	0.00482208
2987.79	0.000579834	0.00769043
2988.25	-0.698975	-0.0181671
2988.71	0.000405884	0.00481964
2989.19	-0.00057373	0.00768738
2989.65	-0.697998	-0.0181763
2990.11	-0.000338745	0.00482208
2990.59	-0.000708008	0.00769348
2991.05	-0.69754	-0.0181793
2991.51	-0.00045166	0.00482635
2991.99	-0.000723267	0.00769653
2992.45	-0.698212	-0.0181671
2992.91	0.000335693	0.00482513
2993.39	0.000161743	0.00769653
2993.85	-0.697571	-0.0181793
2994.31	-0.000302124	0.00482697
2994.79	0.000454712	0.00768127
2995.25	-0.698944	-0.0181702
2995.71	-0.000588989	0.00482849
2996.19	-0.000802612	0.00768433
2996.65	-0.698273	-0.0181763
2997.11	0.000515747	0.00482544
2997.59	-0.00065918	0.00769348
2998.05	-0.69873	-0.0181641
2998.51	0.000549316	0.00482239
2998.99	-0.000317383	0.00770264
2999.45	-0.698944	-0.0181763
2999.91	-0.00032959	0.00482819
3000.39	0.000384521	0.00768127
3000.85	-0.698883	-0.018161
3001.31	-1.2207e-05	0.00482941
3001.79	-0.000137329	0.00769653
3002.25	-0.698395	-0.018158
3002.71	0.000967407	0.00482269
3003.19	0.000228882	0.00768738
3003.65	-0.697601	-0.0181671
3004.11	-0.000299072	0.00483002
3004.59	-0.00039978	0.00768127
3005.05	-0.698975	-0.018161
3005.51	0.000823975	0.00482269
3005.99	0.000567627	0.00769043
3006.45	-0.698517	-0.0181702
3006.91	-0.000216675	0.00482819
3007.39	-0.000619507	0.00768738
3007.81	-0.000527954	0.00318878