File: Edgar/20230810 (1)/WO3_ITO_20230717_G/CA_2
Time (s)	WE(1).Potential (V)	WE(1).Current (A)
34.4131	-0.699371	-0.00398743
34.6131	-0.699036	-0.00368164
34.8131	-0.699646	-0.00370209
35.0131	-0.699066	-0.0037793
35.2131	-0.699158	-0.00384827
35.4131	-0.699646	-0.00389648
35.6131	-0.699615	-0.00392517
35.8131	-0.699646	-0.00393799
36.0131	-0.699066	-0.0039389
36.2131	-0.699554	-0.00393219
36.4131	-0.699249	-0.00391998
36.6131	-0.699127	-0.00390442
36.8131	-0.699493	-0.00388733
37.0131	-0.699036	-0.00386902
37.2131	-0.699036	-0.00385071
37.4131	-0.699585	-0.0038324
37.6131	-0.699158	-0.00381348
37.8131	-0.699188	-0.00379486
38.0131	-0.699615	-0.00377594
38.2131	-0.699341	-0.00375732
38.4131	-0.699463	-0.00373932
38.6131	-0.699615	-0.0037207
38.8131	-0.699036	-0.00370239
39.0131	-0.699554	-0.00368378
39.2131	-0.699554	-0.00366577
39.4131	-0.698975	-0.00364746
39.6131	-0.699585	-0.00362946
39.8131	-0.699615	-0.00361145
40.0131	-0.699097	-0.00359406
40.2131	-0.699615	-0.00357635
40.4131	-0.699554	-0.00355835
40.6131	-0.699493	-0.00354095
40.8131	-0.698944	-0.00352356
41.0131	-0.699524	-0.00350647
41.2131	-0.699615	-0.00348969
41.4131	-0.699402	-0.00347229
41.6131	-0.699554	-0.00345551
41.8131	-0.699554	-0.00343872
42.0131	-0.699371	-0.00342224
42.2131	-0.699585	-0.00340576
42.4131	-0.699432	-0.00338928
42.6131	-0.699463	-0.00337311
42.8131	-0.699554	-0.00335693
43.0131	-0.699585	-0.00334106
43.2131	-0.699585	-0.0033252
43.4131	-0.699585	-0.00330933
43.6131	-0.699615	-0.00329376
43.8131	-0.699615	-0.0032785
44.0131	-0.699646	-0.00326324
44.2131	-0.699341	-0.00324799
44.4131	-0.699524	-0.00323303
44.6131	-0.699463	-0.00321808
44.8131	-0.699463	-0.003203125
45.0131	-0.699158	-0.00318878
45.2131	-0.699188	-0.00317413
45.4131	-0.698975	-0.00315979
45.6131	-0.699036	-0.00314545
45.8131	-0.699005	-0.00313141
46.0131	-0.699097	-0.00311737
46.2131	-0.699493	-0.00310364
46.4131	-0.699188	-0.0030899
46.6131	-0.699249	-0.00307617
46.8131	-0.69931	-0.00306274
47.0131	-0.699554	-0.00304932
47.2131	-0.699585	-0.00303589
47.4131	-0.699646	-0.00302307
47.6131	-0.699402	-0.00300995
47.8131	-0.699554	-0.00299713
48.0131	-0.699585	-0.00298401
48.2131	-0.699097	-0.0029715
48.4131	-0.699493	-0.00295898
48.6131	-0.699524	-0.00294647
48.8131	-0.699463	-0.00293427
49.0131	-0.699127	-0.00292145
49.2131	-0.699402	-0.00290955
49.4131	-0.698975	-0.00289764
49.6131	-0.699097	-0.00288605
49.8131	-0.699066	-0.00287445
50.0131	-0.69931	-0.00286285
50.2131	-0.699493	-0.00285126
50.4131	-0.699127	-0.00283966
50.6131	-0.699036	-0.00282867
50.8131	-0.699158	-0.00281708
51.0131	-0.699463	-0.00280609
51.2131	-0.699127	-0.00279541
51.4131	-0.699249	-0.00278442
51.6131	-0.699585	-0.00277374
51.8131	-0.699432	-0.00276306
52.0131	-0.699036	-0.00275269
52.2131	-0.699615	-0.0027417
52.4131	-0.699646	-0.00273193
52.6131	-0.699463	-0.00272186
52.8131	-0.699097	-0.00271179
53.0131	-0.699432	-0.00270172
53.2131	-0.699554	-0.00269165
53.4131	-0.699249	-0.00268188
53.6131	-0.699432	-0.00267212
53.8131	-0.699524	-0.00266266
54.0131	-0.699402	-0.0026532
54.2131	-0.699524	-0.00264374
54.4131	-0.699432	-0.00263428
54.6131	-0.699615	-0.00262512
54.8131	-0.699554	-0.00261597
55.0131	-0.699158	-0.00260681
55.2131	-0.69928	-0.00259796
55.4131	-0.699463	-0.00258942
55.6131	-0.699066	-0.00258026
55.8131	-0.699066	-0.00257172
56.0131	-0.699585	-0.00256317
56.2131	-0.699127	-0.00255463
56.4131	-0.699066	-0.00254608
56.6131	-0.699097	-0.00253815
56.8131	-0.699463	-0.00252991
57.0131	-0.699097	-0.00252167
57.2131	-0.699097	-0.00251373
57.4131	-0.699127	-0.00250549
57.6131	-0.699097	-0.00249786
57.8131	-0.699127	-0.00249023
58.0131	-0.699219	-0.0024826
58.2131	-0.699097	-0.00247498
58.4131	-0.699097	-0.00246765
58.6131	-0.699097	-0.00246002
58.8131	-0.699371	-0.00245239
59.0131	-0.699127	-0.00244537
59.2131	-0.699158	-0.00243805
59.4131	-0.699066	-0.00243103
59.6131	-0.699158	-0.00242401
59.8131	-0.699158	-0.00241699
60.0131	-0.699097	-0.00240997
60.2131	-0.699219	-0.00240326
60.4131	-0.699097	-0.00239655
60.6131	-0.699097	-0.00238983
60.8131	-0.699036	-0.00238342
61.0131	-0.699036	-0.00237671
61.2131	-0.699066	-0.0023703
61.4131	-0.699036	-0.00236389
61.6131	-0.699097	-0.00235779
61.8131	-0.699036	-0.00235138
62.0131	-0.699097	-0.00234558
62.2131	-0.699158	-0.00233948
62.4131	-0.699097	-0.00233337
62.6131	-0.699127	-0.00232758
62.8131	-0.699127	-0.00232178
63.0131	-0.699097	-0.00231598
63.2131	-0.699158	-0.00231018
63.4131	-0.699554	-0.00230469
63.6131	-0.699188	-0.00229889
63.8131	-0.699066	-0.0022934
64.0131	-0.699158	-0.0022879
64.2131	-0.699707	-0.00228271
64.4131	-0.699127	-0.00227722
64.6131	-0.699371	-0.00227173
64.8131	-0.699585	-0.00226685
65.0131	-0.699036	-0.00226166
65.2131	-0.699188	-0.00225647
65.4131	-0.699524	-0.00225098
65.6131	-0.699127	-0.0022464
65.8131	-0.699127	-0.00224152
66.0131	-0.699219	-0.00223633
66.2131	-0.699677	-0.00223206
66.4131	-0.699188	-0.00222717
66.6131	-0.699249	-0.0022229
66.8131	-0.699585	-0.00221802
67.0131	-0.699097	-0.00221375
67.2131	-0.699402	-0.00220917
67.4131	-0.699585	-0.00220459
67.6131	-0.699066	-0.00220032
67.8131	-0.699341	-0.00219604
68.0131	-0.699554	-0.00219177
68.2131	-0.699615	-0.0021875
68.4131	-0.699127	-0.00218292
68.6131	-0.699554	-0.00217896
68.8131	-0.699463	-0.00217468
69.0131	-0.699097	-0.00217102
69.2131	-0.699402	-0.00216705
69.4131	-0.699554	-0.00216309
69.6131	-0.699127	-0.00215912
69.8131	-0.699097	-0.00215515
70.0131	-0.699463	-0.00215149
70.2131	-0.699432	-0.00214783
70.4131	-0.699097	-0.00214417
70.6131	-0.699463	-0.0021402
70.8131	-0.69931	-0.0021347
71.0131	-0.699097	-0.00213287
71.2131	-0.699341	-0.00212921
71.4131	-0.699554	-0.00212585
71.6131	-0.699097	-0.0021225
71.8131	-0.699127	-0.00211884
72.0131	-0.699341	-0.00211517
72.2131	-0.699524	-0.00211182
72.4131	-0.699127	-0.00210876
72.6131	-0.699493	-0.00210541
72.8131	-0.69928	-0.00210205
73.0131	-0.699066	-0.002099
73.2131	-0.699219	-0.00209503
73.4131	-0.699554	-0.00209259
73.6131	-0.699158	-0.00208923
73.8131	-0.699158	-0.00208588
74.0131	-0.699524	-0.00208313
74.2131	-0.699554	-0.00208008
74.4131	-0.699036	-0.00207672
74.6131	-0.699432	-0.00207367
74.8131	-0.699127	-0.00207062
75.0131	-0.699066	-0.00206757
75.2131	-0.699341	-0.00206482
75.4131	-0.699677	-0.00206177
75.6131	-0.699127	-0.00205902
75.8131	-0.699158	-0.00205627
76.0131	-0.699585	-0.00205292
76.2131	-0.699554	-0.00205048
76.4131	-0.699127	-0.00204773
76.6131	-0.699646	-0.00204498
76.8131	-0.699402	-0.00204224
77.0131	-0.699097	-0.00203949
77.2131	-0.699585	-0.00203674
77.4131	-0.699371	-0.002034
77.6131	-0.699493	-0.00203125
77.8131	-0.699585	-0.0020285
78.0131	-0.699127	-0.00202576
78.2131	-0.699432	-0.00202332
78.4131	-0.699463	-0.00202057
78.6131	-0.699066	-0.00201813
78.8131	-0.699615	-0.00201569
79.0131	-0.699585	-0.00201294
79.2131	-0.699097	-0.0020105
79.4131	-0.699371	-0.00200806
79.6131	-0.699219	-0.00200531
79.8131	-0.699097	-0.00200226
80.0131	-0.699249	-0.00200043
80.2131	-0.699188	-0.00199768
80.4131	-0.699097	-0.00199524
80.6131	-0.699585	-0.0019928
80.8131	-0.699158	-0.00199005
81.0131	-0.699463	-0.00198792
81.2131	-0.699585	-0.00198547
81.4131	-0.699036	-0.00198303
81.6131	-0.699615	-0.00198059
81.8131	-0.699524	-0.00197815
82.0131	-0.699066	-0.00197571
82.2131	-0.699249	-0.00197357
82.4131	-0.699127	-0.00197083
82.6131	-0.699219	-0.00196869
82.8131	-0.699005	-0.00196625
83.0131	-0.699066	-0.00196381
83.2131	-0.69928	-0.00196136
83.4131	-0.699554	-0.00195923
83.6131	-0.699371	-0.00195679
83.8131	-0.699402	-0.00195465
84.0131	-0.699646	-0.00195221
84.2131	-0.699646	-0.00195007
84.4131	-0.699402	-0.00194794
84.6131	-0.699615	-0.0019455
84.8131	-0.699615	-0.00194305
85.0131	-0.699646	-0.00194092
85.2131	-0.699615	-0.00193848
85.4131	-0.699066	-0.00193634
85.6131	-0.699554	-0.0019339
85.8131	-0.699646	-0.00193176
86.0131	-0.699371	-0.00192963
86.2131	-0.699402	-0.00192749
86.4131	-0.699585	-0.00192505
86.6131	-0.69928	-0.00192291
86.8131	-0.699615	-0.00192078
87.0131	-0.69931	-0.00191864
87.2131	-0.699249	-0.0019165
87.4131	-0.699127	-0.00191406
87.6131	-0.699066	-0.00191193
87.8131	-0.699219	-0.00190979
88.0131	-0.699036	-0.00190765
88.2131	-0.699188	-0.00190552
88.4131	-0.699127	-0.00190338
88.6131	-0.699066	-0.00190094
88.8131	-0.699646	-0.00189911
89.0131	-0.699036	-0.00189667
89.2131	-0.699066	-0.00189453
89.4131	-0.699188	-0.0018927
89.6131	-0.699158	-0.00189026
89.8131	-0.699158	-0.00188843
90.0131	-0.699005	-0.00188629
90.2131	-0.699677	-0.00188416
90.4131	-0.699219	-0.00188202
90.6131	-0.69928	-0.00187988
90.8131	-0.699677	-0.00187775
91.0131	-0.69928	-0.00187561
91.2131	-0.699554	-0.00187347
91.4131	-0.699554	-0.00187164
91.6131	-0.699066	-0.0018692
91.8131	-0.699615	-0.00186737
92.0131	-0.699524	-0.00186493
92.2131	-0.699341	-0.0018631
92.4131	-0.699493	-0.00186096
92.6131	-0.699585	-0.00185852
92.8131	-0.699646	-0.00185669
93.0131	-0.699219	-0.00185455
93.2131	-0.699463	-0.00185242
93.4131	-0.699341	-0.00185028
93.6131	-0.699615	-0.00184845
93.8131	-0.699036	-0.00184631
94.0131	-0.699158	-0.00184418
94.2131	-0.699066	-0.00184204
94.4131	-0.699493	-0.0018396
94.6131	-0.699219	-0.00183777
94.8131	-0.699219	-0.00183563
95.0131	-0.699585	-0.0018338
95.2131	-0.699554	-0.00183167
95.4131	-0.699402	-0.00182953
95.6131	-0.699402	-0.0018277
95.8131	-0.699585	-0.00182556
96.0131	-0.699493	-0.00182343
96.2131	-0.699554	-0.00182159
96.4131	-0.699493	-0.00181946
96.6131	-0.699615	-0.00181732
96.8131	-0.69931	-0.00181549
97.0131	-0.69928	-0.00181335
97.2131	-0.699615	-0.00181122
97.4131	-0.699554	-0.00180939
97.6131	-0.699524	-0.00180725
97.8131	-0.699493	-0.00180511
98.0131	-0.699524	-0.00180298
98.2131	-0.699646	-0.00180115
98.4131	-0.699463	-0.00179932
98.6131	-0.699524	-0.00179718
98.8131	-0.699249	-0.00179535
99.0131	-0.699524	-0.00179321
99.2131	-0.699585	-0.00179138
99.4131	-0.699188	-0.00178925
99.6131	-0.699249	-0.00178711
99.8131	-0.699585	-0.00178528
100.013	-0.699188	-0.00178314
100.213	-0.699493	-0.00178131
100.413	-0.69931	-0.00177917
100.613	-0.699066	-0.00177734
100.813	-0.699524	-0.00177521
101.013	-0.699097	-0.00177307
101.213	-0.699188	-0.00177124
101.413	-0.699615	-0.00176941
101.613	-0.699646	-0.00176758
101.813	-0.699615	-0.00176544
102.013	-0.699615	-0.00176361
102.213	-0.699463	-0.00176147
102.413	-0.699524	-0.00175934
102.613	-0.699341	-0.00175751
102.813	-0.699158	-0.00175568
103.013	-0.699402	-0.00175354
103.213	-0.699066	-0.00175171
103.413	-0.69928	-0.00174927
103.613	-0.699097	-0.00174774
103.813	-0.699402	-0.00174561
104.013	-0.699463	-0.00174377
104.213	-0.699219	-0.00174194
104.413	-0.699615	-0.00174011
104.613	-0.699677	-0.00173828
104.813	-0.699341	-0.00173615
105.013	-0.699371	-0.00173431
105.213	-0.699249	-0.00173218
105.413	-0.699097	-0.00173035
105.613	-0.699158	-0.00172821
105.813	-0.699158	-0.00172638
106.013	-0.699188	-0.00172455
106.213	-0.699585	-0.00172272
106.413	-0.699524	-0.00172089
106.613	-0.699524	-0.00171906
106.813	-0.699646	-0.00171722
107.013	-0.699585	-0.00171509
107.213	-0.699707	-0.00171326
107.413	-0.699493	-0.00171143
107.613	-0.699677	-0.00170929
107.813	-0.699097	-0.00170776
108.013	-0.699066	-0.00170563
108.213	-0.699219	-0.0017038
108.413	-0.699066	-0.00170197
108.613	-0.699432	-0.00169983
108.813	-0.699524	-0.0016983
109.013	-0.699066	-0.00169617
109.213	-0.699646	-0.00169434
109.413	-0.699677	-0.0016925
109.613	-0.699066	-0.00169067
109.813	-0.699585	-0.00168884
110.013	-0.69928	-0.00168701
110.213	-0.699188	-0.00168518
110.413	-0.699463	-0.00168335
110.613	-0.699127	-0.00167999
110.813	-0.699066	-0.00167847
111.013	-0.699371	-0.00167664
111.213	-0.699097	-0.00167511
111.413	-0.699371	-0.00167297
111.613	-0.699615	-0.00167145
111.813	-0.699249	-0.00166962
112.013	-0.699585	-0.00166779
112.213	-0.699646	-0.00166565
112.413	-0.699371	-0.00166412
112.613	-0.699707	-0.00166229
112.813	-0.699585	-0.00166046
113.013	-0.699585	-0.00165863
113.213	-0.699646	-0.0016568
113.413	-0.699493	-0.00165436
113.613	-0.69931	-0.00165283
113.813	-0.699615	-0.00165131
114.013	-0.699554	-0.00164978
114.213	-0.699524	-0.00164764
114.413	-0.69931	-0.00164612
114.613	-0.699615	-0.00164429
114.813	-0.699524	-0.00164246
115.013	-0.699707	-0.00164093
115.213	-0.699554	-0.0016394
115.413	-0.699677	-0.00163757
115.613	-0.699554	-0.00163574
115.813	-0.699371	-0.00163422
116.013	-0.699615	-0.00163269
116.213	-0.699646	-0.00163116
116.413	-0.699646	-0.00162933
116.613	-0.699554	-0.0016275
116.813	-0.699615	-0.00162598
117.013	-0.699341	-0.00162415
117.213	-0.699402	-0.00162262
117.413	-0.699554	-0.00162079
117.613	-0.699524	-0.00161896
117.813	-0.699127	-0.00161743
118.013	-0.699219	-0.0016156
118.213	-0.699219	-0.00161407
118.413	-0.698975	-0.00161224
118.613	-0.699249	-0.00161041
118.813	-0.699066	-0.00160889
119.013	-0.699493	-0.00160706
119.213	-0.699524	-0.00160553
119.413	-0.699158	-0.0016037
119.613	-0.699188	-0.00160187
119.813	-0.699615	-0.00160034
120.013	-0.699432	-0.00159882
120.213	-0.699341	-0.00159698
120.413	-0.699646	-0.00159515
120.613	-0.699677	-0.00159363
120.813	-0.699402	-0.0015918
121.013	-0.699554	-0.00158997
121.213	-0.699554	-0.00158844
121.413	-0.699615	-0.00158661
121.613	-0.699554	-0.00158478
121.813	-0.699432	-0.00158325
122.013	-0.699554	-0.00158142
122.213	-0.69931	-0.0015799
122.413	-0.699615	-0.00157837
122.613	-0.699585	-0.00157654
122.813	-0.699188	-0.00157471
123.013	-0.699585	-0.00157288
123.213	-0.699615	-0.00157135
123.413	-0.699249	-0.00156982
123.613	-0.699066	-0.0015683
123.813	-0.699463	-0.00156647
124.013	-0.699097	-0.00156464
124.213	-0.699341	-0.00156311
124.413	-0.699188	-0.00156158
124.613	-0.699432	-0.00155975
124.813	-0.699646	-0.00155792
125.013	-0.699371	-0.0015564
125.213	-0.699554	-0.00155457
125.413	-0.699219	-0.00155304
125.613	-0.699097	-0.00155151
125.813	-0.699219	-0.00154968
126.013	-0.699432	-0.00154816
126.213	-0.699615	-0.00154633
126.413	-0.699646	-0.0015448
126.613	-0.699371	-0.00154297
126.813	-0.699219	-0.00154144
127.013	-0.699097	-0.00153992
127.213	-0.699371	-0.00153839
127.413	-0.699493	-0.00153656
127.613	-0.699127	-0.00153503
127.813	-0.69928	-0.0015332
128.013	-0.699432	-0.00153168
128.213	-0.699554	-0.00152985
128.413	-0.699615	-0.00152832
128.613	-0.699188	-0.00152679
128.813	-0.699554	-0.00152527
129.013	-0.699371	-0.00152344
129.213	-0.699646	-0.00152191
129.413	-0.699127	-0.00152039
129.613	-0.699493	-0.00151855
129.813	-0.699249	-0.00151703
130.013	-0.699585	-0.0015155
130.213	-0.699158	-0.00151367
130.413	-0.699127	-0.00151215
130.613	-0.699585	-0.00151062
130.813	-0.699341	-0.00150879
131.013	-0.699677	-0.00150726
131.213	-0.699066	-0.00150574
131.413	-0.699646	-0.00150421
131.613	-0.699188	-0.00150269
131.813	-0.699646	-0.00150085
132.013	-0.699188	-0.00149933
132.213	-0.699615	-0.0014978
132.413	-0.699707	-0.00149597
132.613	-0.699463	-0.00149445
132.813	-0.699188	-0.00149292
133.013	-0.699158	-0.00149139
133.213	-0.69928	-0.00148987
133.413	-0.699463	-0.00148834
133.613	-0.699097	-0.00148682
133.813	-0.69931	-0.00148529
134.013	-0.69931	-0.00148346
134.213	-0.699585	-0.00148224
134.413	-0.699707	-0.00148041
134.613	-0.699432	-0.00147888
134.813	-0.69928	-0.00147736
135.013	-0.699127	-0.00147583
135.213	-0.699219	-0.0014743
135.413	-0.699677	-0.00147278
135.613	-0.699188	-0.00147125
135.813	-0.699677	-0.00146973
136.013	-0.699097	-0.0014682
136.213	-0.699402	-0.00146637
136.413	-0.699127	-0.00146484
136.613	-0.699615	-0.00146332
136.813	-0.69928	-0.00146179
137.013	-0.699646	-0.00146027
137.213	-0.69931	-0.00145874
137.413	-0.699371	-0.00145721
137.613	-0.699615	-0.00145569
137.813	-0.699066	-0.00145416
138.013	-0.699677	-0.00145264
138.213	-0.69928	-0.00145111
138.413	-0.699585	-0.00144958
138.613	-0.699524	-0.00144806
138.813	-0.699097	-0.00144653
139.013	-0.699615	-0.00144501
139.213	-0.699158	-0.00144348
139.413	-0.699463	-0.00144165
139.613	-0.699585	-0.00144012
139.813	-0.699097	-0.0014389
140.013	-0.699585	-0.00143738
140.213	-0.699341	-0.00143585
140.413	-0.699677	-0.00143402
140.613	-0.699615	-0.0014328
140.813	-0.699127	-0.00143127
141.013	-0.699646	-0.00142944
141.213	-0.699493	-0.00142822
141.413	-0.699097	-0.0014267
141.613	-0.699371	-0.00142517
141.813	-0.699127	-0.00142365
142.013	-0.699219	-0.00142212
142.213	-0.699554	-0.0014209
142.413	-0.699249	-0.00141907
142.613	-0.699493	-0.00141754
142.813	-0.699524	-0.00141632
143.013	-0.699615	-0.00141479
143.213	-0.699585	-0.00141327
143.413	-0.699188	-0.00141174
143.613	-0.699097	-0.00140991
143.813	-0.699585	-0.00140869
144.013	-0.699158	-0.00140717
144.213	-0.69928	-0.00140564
144.413	-0.699158	-0.00140411
144.613	-0.699066	-0.00140289
144.813	-0.699554	-0.00140137
145.013	-0.699036	-0.00139984
145.213	-0.699158	-0.00139832
145.413	-0.699585	-0.00139679
145.613	-0.699615	-0.00139526
145.813	-0.699219	-0.00139374
146.013	-0.699585	-0.00139221
146.213	-0.699707	-0.00139099
146.413	-0.699493	-0.00138947
146.613	-0.699585	-0.00138794
146.813	-0.699585	-0.00138641
147.013	-0.699554	-0.00138489
147.213	-0.699615	-0.00138367
147.413	-0.699341	-0.00138214
147.613	-0.699158	-0.00138062
147.813	-0.699677	-0.00137909
148.013	-0.69931	-0.00137756
148.213	-0.699066	-0.00137604
148.413	-0.699249	-0.00137482
148.613	-0.699219	-0.00137329
148.813	-0.699158	-0.00137177
149.013	-0.699493	-0.00137054
149.213	-0.699097	-0.00136902
149.413	-0.699341	-0.00136749
149.613	-0.699615	-0.00136566
149.813	-0.699127	-0.00136444
150.013	-0.699585	-0.00136292
150.213	-0.699615	-0.00136169
150.413	-0.699432	-0.00136017
150.613	-0.699615	-0.00135895
150.813	-0.699127	-0.00135742
151.013	-0.699432	-0.0013559
151.213	-0.699371	-0.00135437
151.413	-0.699158	-0.00135315
151.613	-0.699463	-0.00135162
151.813	-0.699127	-0.0013501
152.013	-0.699219	-0.00134857
152.213	-0.699646	-0.00134735
152.413	-0.699188	-0.00134583
152.613	-0.699585	-0.0013443
152.813	-0.69931	-0.00134308
153.013	-0.699432	-0.00134155
153.213	-0.699402	-0.00134003
153.413	-0.699249	-0.00133881
153.613	-0.699585	-0.00133728
153.813	-0.699158	-0.00133575
154.013	-0.699615	-0.00133453
154.213	-0.699158	-0.00133301
154.413	-0.699707	-0.00133179
154.613	-0.699249	-0.00133026
154.813	-0.699615	-0.00132874
155.013	-0.699219	-0.00132721
155.213	-0.699249	-0.00132599
155.413	-0.69928	-0.00132446
155.613	-0.699493	-0.00132294
155.813	-0.699066	-0.00132172
156.013	-0.699432	-0.0013205
156.213	-0.699188	-0.00131897
156.413	-0.699524	-0.00131775
156.613	-0.699524	-0.00131592
156.813	-0.699493	-0.0013147
157.013	-0.699249	-0.00131317
157.213	-0.699188	-0.00131195
157.413	-0.699432	-0.00131042
157.613	-0.699463	-0.0013092
157.813	-0.699127	-0.00130768
158.013	-0.699219	-0.00130615
158.213	-0.699402	-0.00130493
158.413	-0.699463	-0.00130371
158.613	-0.699615	-0.00130219
158.813	-0.699341	-0.00130096
159.013	-0.699341	-0.00129944
159.213	-0.699249	-0.00129822
159.413	-0.699585	-0.001297
159.613	-0.699432	-0.00129547
159.813	-0.69931	-0.00129425
160.013	-0.699097	-0.00129272
160.213	-0.699341	-0.0012915
160.413	-0.699066	-0.00128998
160.613	-0.699615	-0.00128845
160.813	-0.699463	-0.00128723
161.013	-0.699097	-0.00128601
161.213	-0.699158	-0.00128448
161.413	-0.699432	-0.00128326
161.613	-0.699646	-0.00128174
161.813	-0.699615	-0.00128052
162.013	-0.699219	-0.0012793
162.213	-0.699036	-0.00127777
162.413	-0.699158	-0.00127655
162.613	-0.699646	-0.00127533
162.813	-0.699524	-0.0012738
163.013	-0.699127	-0.00127228
163.213	-0.699127	-0.00127106
163.413	-0.699371	-0.00126953
163.613	-0.699646	-0.00126831
163.813	-0.699249	-0.00126709
164.013	-0.69931	-0.00126587
164.213	-0.699127	-0.00126434
164.413	-0.699219	-0.00126282
164.613	-0.699371	-0.0012616
164.813	-0.699615	-0.00126038
165.013	-0.699463	-0.00125885
165.213	-0.699615	-0.00125763
165.413	-0.699188	-0.0012561
165.613	-0.699036	-0.00125488
165.813	-0.699493	-0.00125336
166.013	-0.699371	-0.00125214
166.213	-0.699677	-0.00125122
166.413	-0.699585	-0.00124969
166.613	-0.699371	-0.00124847
166.813	-0.699127	-0.00124725
167.013	-0.699463	-0.00124573
167.213	-0.699066	-0.00124451
167.413	-0.699677	-0.00124298
167.613	-0.699615	-0.00124176
167.813	-0.69931	-0.00124054
168.013	-0.699188	-0.00123901
168.213	-0.699066	-0.00123779
168.413	-0.699646	-0.00123657
168.613	-0.699219	-0.00123535
168.813	-0.699585	-0.00123383
169.013	-0.69931	-0.0012326
169.213	-0.699554	-0.00123138
169.413	-0.699402	-0.00123016
169.613	-0.699127	-0.00122894
169.813	-0.699493	-0.00122742
170.013	-0.699066	-0.0012262
170.213	-0.699371	-0.00122498
170.413	-0.699646	-0.00122375
170.613	-0.699127	-0.00122253
170.813	-0.699524	-0.00122101
171.013	-0.699554	-0.00121979
171.213	-0.69931	-0.00121857
171.413	-0.699646	-0.00121704
171.613	-0.699219	-0.00121582
171.813	-0.699097	-0.0012146
172.013	-0.699615	-0.00121338
172.213	-0.699097	-0.00121216
172.413	-0.699249	-0.00121063
172.613	-0.699554	-0.00120941
172.813	-0.699188	-0.00120819
173.013	-0.699371	-0.00120697
173.213	-0.699554	-0.00120575
173.413	-0.699158	-0.00120422
173.613	-0.699188	-0.001203
173.813	-0.699677	-0.00120178
174.013	-0.699097	-0.00120056
174.213	-0.699432	-0.00119904
174.413	-0.699707	-0.00119781
174.613	-0.699158	-0.0011969
174.813	-0.699524	-0.00119537
175.013	-0.699493	-0.00119415
175.213	-0.699463	-0.00119293
175.413	-0.699493	-0.00119171
175.613	-0.699615	-0.00119049
175.813	-0.699341	-0.00118927
176.013	-0.699646	-0.00118805
176.213	-0.699554	-0.00118683
176.413	-0.699158	-0.0011853
176.613	-0.699677	-0.00118408
176.813	-0.699493	-0.00118286
177.013	-0.699127	-0.00118164
177.213	-0.69928	-0.00118042
177.413	-0.699371	-0.0011792
177.613	-0.699127	-0.00117798
177.813	-0.699677	-0.00117645
178.013	-0.699158	-0.00117523
178.213	-0.699127	-0.00117432
178.413	-0.699371	-0.00117279
178.613	-0.699097	-0.00117157
178.813	-0.699097	-0.00117035
179.013	-0.699585	-0.00116913
179.213	-0.699158	-0.00116821
179.413	-0.699127	-0.00116669
179.613	-0.699219	-0.00116577
179.813	-0.699371	-0.00116455
180.013	-0.699158	-0.00116302
180.213	-0.69928	-0.00116211
180.413	-0.699493	-0.00116058
180.613	-0.699402	-0.00115967
180.813	-0.699371	-0.00115814
181.013	-0.699615	-0.00115723
181.213	-0.699463	-0.00115601
181.413	-0.699432	-0.00115479
181.613	-0.699371	-0.00115326
181.813	-0.699677	-0.00115234
182.013	-0.699432	-0.00115112
182.213	-0.69931	-0.0011499
182.413	-0.699615	-0.00114868
182.613	-0.699341	-0.00114746
182.813	-0.699432	-0.00114624
183.013	-0.699615	-0.00114502
183.213	-0.699463	-0.0011438
183.413	-0.699615	-0.00114258
183.613	-0.699646	-0.00114136
183.813	-0.69931	-0.00114044
184.013	-0.699615	-0.00113922
184.213	-0.699615	-0.001138
184.413	-0.699493	-0.00113678
184.613	-0.699615	-0.00113525
184.813	-0.699677	-0.00113434
185.013	-0.699554	-0.00113342
185.213	-0.699554	-0.0011322
185.413	-0.699615	-0.00113098
185.613	-0.699585	-0.00112976
185.813	-0.699097	-0.00112854
186.013	-0.699585	-0.00112762
186.213	-0.699615	-0.0011264
186.413	-0.699188	-0.00112518
186.613	-0.699646	-0.00112396
186.813	-0.699432	-0.00112274
187.013	-0.699097	-0.00112152
187.213	-0.699677	-0.0011203
187.413	-0.69931	-0.00111908
187.613	-0.699188	-0.00111816
187.813	-0.699127	-0.00111694
188.013	-0.699249	-0.00111572
188.213	-0.699158	-0.00111481
188.413	-0.69928	-0.00111359
188.613	-0.699249	-0.00111237
188.813	-0.699127	-0.00111115
189.013	-0.699615	-0.00110992
189.213	-0.699188	-0.00110901
189.413	-0.699249	-0.00110779
189.613	-0.699432	-0.00110657
189.813	-0.699249	-0.00110535
190.013	-0.69928	-0.00110413
190.213	-0.699554	-0.00110321
190.413	-0.699036	-0.00110199
190.613	-0.699219	-0.00110077
190.813	-0.699615	-0.00109985
191.013	-0.699127	-0.00109863
191.213	-0.699493	-0.00109772
191.413	-0.699524	-0.0010965
191.613	-0.699249	-0.00109528
191.813	-0.699677	-0.00109406
192.013	-0.699402	-0.00109283
192.213	-0.699127	-0.00109192
192.413	-0.69931	-0.0010907
192.613	-0.699127	-0.00108948
192.813	-0.699524	-0.00108856
193.013	-0.699066	-0.00108734
193.213	-0.699585	-0.00108643
193.413	-0.69928	-0.00108521
193.613	-0.699158	-0.00108398
193.813	-0.699249	-0.00108307
194.013	-0.699524	-0.00108185
194.213	-0.699371	-0.00108093
194.413	-0.699219	-0.00107971
194.613	-0.699127	-0.00107849
194.813	-0.699646	-0.00107727
195.013	-0.699646	-0.00107605
195.213	-0.699127	-0.00107513
195.413	-0.699615	-0.00107391
195.613	-0.699127	-0.001073
195.813	-0.699249	-0.00107178
196.013	-0.699493	-0.00107056
196.213	-0.699646	-0.00106903
196.413	-0.699615	-0.00106812
196.613	-0.699432	-0.0010672
196.813	-0.699463	-0.00106628
197.013	-0.699493	-0.00106506
197.213	-0.699646	-0.00106415
197.413	-0.699188	-0.00106293
197.613	-0.699615	-0.00106171
197.813	-0.699585	-0.00106079
198.013	-0.699127	-0.00105957
198.213	-0.699554	-0.00105865
198.413	-0.699402	-0.00105743
198.613	-0.699341	-0.00105652
198.813	-0.699371	-0.0010553
199.013	-0.699585	-0.00105408
199.213	-0.699615	-0.00105316
199.413	-0.699127	-0.00105194
199.613	-0.699646	-0.00105103
199.813	-0.699585	-0.00105011
200.013	-0.699219	-0.00104889
200.213	-0.699524	-0.00104767
200.413	-0.699432	-0.00104675
200.613	-0.699615	-0.00104553
200.813	-0.699097	-0.00104462
201.013	-0.699677	-0.0010437
201.213	-0.699585	-0.00104248
201.413	-0.699249	-0.00103943
201.613	-0.699554	-0.00103943
201.813	-0.699188	-0.00103882
202.013	-0.699585	-0.0010379
202.213	-0.699158	-0.00103668
202.413	-0.699615	-0.00103577
202.613	-0.699371	-0.00103485
202.813	-0.699402	-0.00103394
203.013	-0.699219	-0.00103302
203.213	-0.69928	-0.0010318
203.413	-0.699585	-0.00103088
203.613	-0.699066	-0.00102997
203.813	-0.699615	-0.00102905
204.013	-0.699097	-0.00102783
204.213	-0.699677	-0.00102661
204.413	-0.699188	-0.0010257
204.613	-0.699615	-0.00102478
204.813	-0.699066	-0.00102386
205.013	-0.699432	-0.00102295
205.213	-0.699188	-0.00102203
205.413	-0.699524	-0.00102081
205.613	-0.69931	-0.0010199
205.813	-0.699249	-0.00101898
206.013	-0.699371	-0.00101776
206.213	-0.699554	-0.00101685
206.413	-0.699066	-0.00101593
206.613	-0.699432	-0.00101501
206.813	-0.699341	-0.0010141
207.013	-0.699707	-0.00101288
207.213	-0.699432	-0.00101196
207.413	-0.699615	-0.00101105
207.613	-0.699219	-0.00100983
207.813	-0.699371	-0.00100891
208.013	-0.699097	-0.001008
208.213	-0.699646	-0.00100677
208.413	-0.699066	-0.00100586
208.613	-0.699585	-0.00100494
208.813	-0.69928	-0.00100372
209.013	-0.699646	-0.00100281
209.213	-0.699219	-0.00100189
209.413	-0.699371	-0.00100098
209.613	-0.699127	-0.000999756
209.813	-0.699585	-0.00099884
210.013	-0.699615	-0.000997925
210.213	-0.698944	-0.000997925
210.413	-0.699554	-0.000997009
210.613	-0.699036	-0.000996094
210.813	-0.699158	-0.000995178
211.013	-0.699341	-0.000993958
211.213	-0.69928	-0.000993042
211.413	-0.699493	-0.000992126
211.613	-0.698944	-0.000990906
211.813	-0.69931	-0.00098999
212.013	-0.699097	-0.000989075
212.213	-0.699158	-0.000988159
212.413	-0.699341	-0.000987244
212.613	-0.699249	-0.000986328
212.813	-0.699524	-0.000985413
213.013	-0.699036	-0.000984497
213.213	-0.699402	-0.000983276
213.413	-0.699097	-0.000982361
213.613	-0.699463	-0.000981445
213.813	-0.698914	-0.00098053
214.013	-0.699036	-0.000979614
214.213	-0.699463	-0.000978699
214.413	-0.698914	-0.000977478
214.613	-0.699463	-0.0009765625
214.813	-0.699432	-0.000975647
215.013	-0.699249	-0.000974731
215.213	-0.69928	-0.000973816
215.413	-0.699036	-0.0009729
215.613	-0.699585	-0.000971985
215.813	-0.698975	-0.000971069
216.013	-0.699249	-0.000969849
216.213	-0.699463	-0.000968933
216.413	-0.69931	-0.000968018
216.613	-0.699554	-0.000967102
216.813	-0.699188	-0.000966187
217.013	-0.699463	-0.000965271
217.213	-0.698975	-0.000964355
217.413	-0.699036	-0.00096344
217.613	-0.698975	-0.000962524
217.813	-0.699432	-0.000961609
218.013	-0.699463	-0.000960693
218.213	-0.699005	-0.000960083
218.413	-0.698914	-0.000959167
218.613	-0.698975	-0.000957947
218.813	-0.699463	-0.000957031
219.013	-0.699432	-0.000956116
219.213	-0.699524	-0.0009552
219.413	-0.698944	-0.000954285
219.613	-0.699188	-0.000953369
219.813	-0.698944	-0.000952454
220.013	-0.699371	-0.000951538
220.213	-0.699219	-0.000950623
220.413	-0.699554	-0.000949707
220.613	-0.69928	-0.000948792
220.813	-0.699036	-0.000948181
221.013	-0.698944	-0.000947266
221.213	-0.698975	-0.00094635
221.413	-0.699554	-0.000945129
221.613	-0.699524	-0.000944519
221.813	-0.699493	-0.000943604
222.013	-0.698975	-0.000942688
222.213	-0.699463	-0.000941772
222.413	-0.699005	-0.000940857
222.613	-0.699432	-0.000939941
222.813	-0.699127	-0.000939026
223.013	-0.698944	-0.00093811
223.213	-0.699127	-0.000937195
223.413	-0.699371	-0.000936279
223.613	-0.699371	-0.000935364
223.813	-0.699188	-0.000934448
224.013	-0.69931	-0.000933533
224.213	-0.698944	-0.000932617
224.413	-0.699463	-0.000931702
224.613	-0.698975	-0.000930786
224.813	-0.699341	-0.000930176
225.013	-0.699524	-0.00092926
225.213	-0.699432	-0.000928345
225.413	-0.69931	-0.000927429
225.613	-0.699005	-0.000926208
225.813	-0.699402	-0.000925598
226.013	-0.699036	-0.000924683
226.213	-0.699493	-0.000923767
226.413	-0.699158	-0.000922852
226.613	-0.699432	-0.000922241
226.813	-0.699158	-0.000921326
227.013	-0.699219	-0.000920105
227.213	-0.699066	-0.000919495
227.413	-0.699402	-0.000918579
227.613	-0.699188	-0.000917664
227.813	-0.699493	-0.000916748
228.013	-0.699036	-0.000915833
228.213	-0.699371	-0.000915222
228.413	-0.698975	-0.000914001
228.613	-0.699463	-0.000913391
228.813	-0.699524	-0.000912476
229.013	-0.699127	-0.00091156
229.213	-0.698914	-0.00091095
229.413	-0.699066	-0.000910034
229.613	-0.699402	-0.000909119
229.813	-0.699585	-0.000908203
230.013	-0.699066	-0.000907288
230.213	-0.699371	-0.000906372
230.413	-0.699066	-0.000905762
230.613	-0.699554	-0.000904541
230.813	-0.699524	-0.000903931
231.013	-0.699554	-0.00090332
231.213	-0.698975	-0.000902405
231.413	-0.699036	-0.000901489
231.613	-0.699036	-0.000900574
231.813	-0.699524	-0.000899963
232.013	-0.69931	-0.000899048
232.213	-0.699371	-0.000898132
232.413	-0.699005	-0.000897522
232.613	-0.69928	-0.000896301
232.813	-0.699524	-0.000895691
233.013	-0.699615	-0.000894775
233.213	-0.699219	-0.000894165
233.413	-0.698975	-0.00089325
233.613	-0.698975	-0.000892334
233.813	-0.699371	-0.000891418
234.013	-0.699493	-0.000890808
234.213	-0.699402	-0.000889893
234.413	-0.69928	-0.000888977
234.613	-0.699066	-0.000888367
234.813	-0.699188	-0.000887451
235.013	-0.699249	-0.000886536
235.213	-0.699524	-0.000885925
235.413	-0.699524	-0.00088501
235.613	-0.69928	-0.000884094
235.813	-0.699036	-0.000883179
236.013	-0.698914	-0.000882568
236.213	-0.699005	-0.000881653
236.413	-0.699493	-0.000880737
236.613	-0.699463	-0.000880127
236.813	-0.698975	-0.000879211
237.013	-0.699005	-0.000878601
237.213	-0.698975	-0.000877686
237.413	-0.699585	-0.000877075
237.613	-0.69931	-0.00087616
237.813	-0.699432	-0.000875244
238.013	-0.698944	-0.000874634
238.213	-0.698914	-0.000873718
238.413	-0.699249	-0.000873108
238.613	-0.699524	-0.000872192
238.813	-0.698975	-0.000871277
239.013	-0.699097	-0.000870667
239.213	-0.698944	-0.000869751
239.413	-0.699463	-0.000869141
239.613	-0.699402	-0.000868225
239.813	-0.699463	-0.00086731
240.013	-0.699036	-0.000866699
240.213	-0.69931	-0.000865784
240.413	-0.699188	-0.000864868
240.613	-0.699249	-0.000864258
240.813	-0.699158	-0.000863342
241.013	-0.698944	-0.000862732
241.213	-0.699402	-0.000861816
241.413	-0.69931	-0.000861206
241.613	-0.699036	-0.000860291
241.813	-0.698975	-0.000859375
242.013	-0.699493	-0.000858459
242.213	-0.699371	-0.000857849
242.413	-0.699493	-0.000857239
242.613	-0.698975	-0.000856628
242.813	-0.699554	-0.000855713
243.013	-0.699066	-0.000855103
243.213	-0.699493	-0.000854187
243.413	-0.698944	-0.000853577
243.613	-0.699188	-0.000852661
243.813	-0.69931	-0.000852051
244.013	-0.699341	-0.00085144
244.213	-0.699371	-0.000850525
244.413	-0.699036	-0.000849915
244.613	-0.699524	-0.000848999
244.813	-0.698944	-0.000848389
245.013	-0.69928	-0.000847473
245.213	-0.699219	-0.000846863
245.413	-0.699585	-0.000846252
245.613	-0.699585	-0.000845642
245.813	-0.698914	-0.000844727
246.013	-0.699463	-0.000844116
246.213	-0.699493	-0.000843201
246.413	-0.699341	-0.00084259
246.613	-0.698883	-0.00084198
246.813	-0.698944	-0.000841064
247.013	-0.699524	-0.000840454
247.213	-0.698975	-0.000839844
247.413	-0.69931	-0.000838928
247.613	-0.69931	-0.000838318
247.813	-0.69928	-0.000837402
248.013	-0.698975	-0.000836792
248.213	-0.699554	-0.000835876
248.413	-0.699432	-0.000835266
248.613	-0.699249	-0.000834656
248.813	-0.699402	-0.000834045
249.013	-0.699493	-0.00083313
249.213	-0.699127	-0.00083252
249.413	-0.699341	-0.000831604
249.613	-0.699371	-0.000830994
249.813	-0.69928	-0.000830383
250.013	-0.698883	-0.000829468
250.213	-0.698883	-0.000828857
250.413	-0.699432	-0.000827942
250.613	-0.699005	-0.000827332
250.813	-0.699188	-0.000826721
251.013	-0.699524	-0.000825806
251.213	-0.698944	-0.000825195
251.413	-0.69931	-0.000824585
251.613	-0.699432	-0.000823669
251.813	-0.698975	-0.000823059
252.013	-0.699524	-0.000822449
252.213	-0.699524	-0.000821838
252.413	-0.698975	-0.000820923
252.613	-0.699463	-0.0008203125
252.813	-0.699493	-0.000819397
253.013	-0.698975	-0.000818787
253.213	-0.699341	-0.000818176
253.413	-0.699249	-0.000817566
253.613	-0.698944	-0.000816956
253.813	-0.699219	-0.00081604
254.013	-0.69931	-0.00081543
254.213	-0.699005	-0.000814514
254.413	-0.69931	-0.000813904
254.613	-0.699463	-0.000813293
254.813	-0.698944	-0.000812683
255.013	-0.699127	-0.000812073
255.213	-0.699615	-0.000811157
255.413	-0.699554	-0.000810547
255.613	-0.699158	-0.000809937
255.813	-0.699524	-0.000809326
256.013	-0.699005	-0.000808411
256.213	-0.699066	-0.0008078
256.413	-0.699432	-0.00080719
256.613	-0.699127	-0.00080658
256.813	-0.699127	-0.000805969
257.013	-0.699402	-0.000805054
257.213	-0.699524	-0.000804443
257.413	-0.698975	-0.000803833
257.613	-0.699188	-0.000803223
257.813	-0.699463	-0.000802307
258.013	-0.699005	-0.000801697
258.213	-0.699005	-0.000801086
258.413	-0.698975	-0.000800476
258.613	-0.699554	-0.000799866
258.813	-0.699036	-0.000799255
259.013	-0.699432	-0.00079834
259.213	-0.699036	-0.000798035
259.413	-0.699158	-0.000797119
259.613	-0.699188	-0.000796509
259.813	-0.699493	-0.000795898
260.013	-0.699036	-0.000795288
260.213	-0.699249	-0.000794678
260.413	-0.699005	-0.000794067
260.613	-0.699066	-0.000793457
260.813	-0.699127	-0.000792847
261.013	-0.699493	-0.000792236
261.213	-0.699554	-0.000791626
261.413	-0.699341	-0.00079071
261.613	-0.699066	-0.0007901
261.813	-0.698944	-0.00078949
262.013	-0.699554	-0.000788879
262.213	-0.699463	-0.000788269
262.413	-0.699554	-0.000787659
262.613	-0.699249	-0.000787048
262.813	-0.699463	-0.000786438
263.013	-0.69928	-0.000785828
263.213	-0.699036	-0.000785217
263.413	-0.699585	-0.000784607
263.613	-0.698975	-0.000783997
263.813	-0.699066	-0.000783386
264.013	-0.699432	-0.000782776
264.213	-0.699524	-0.000782166
264.413	-0.699585	-0.00078125
264.613	-0.699432	-0.00078064
264.813	-0.699341	-0.000780029
265.013	-0.69931	-0.000779419
265.213	-0.698975	-0.000778809
265.413	-0.69931	-0.000778198
265.613	-0.699158	-0.000777283
265.813	-0.699219	-0.000776978
266.013	-0.699219	-0.000776367
266.213	-0.699554	-0.000775757
266.413	-0.699554	-0.000775146
266.613	-0.699036	-0.000774536
266.813	-0.699585	-0.000773926
267.013	-0.699127	-0.000773315
267.213	-0.698975	-0.000772705
267.413	-0.699066	-0.000772095
267.613	-0.699341	-0.000771484
267.813	-0.699463	-0.000770874
268.013	-0.698914	-0.000770264
268.213	-0.699554	-0.000769653
268.413	-0.699432	-0.000769043
268.613	-0.698975	-0.000768433
268.813	-0.699127	-0.000767822
269.013	-0.698914	-0.000767212
269.213	-0.699249	-0.000766602
269.413	-0.698914	-0.000765991
269.613	-0.699615	-0.000765381
269.813	-0.699524	-0.000764771
270.013	-0.699249	-0.00076416
270.213	-0.699066	-0.00076355
270.413	-0.698944	-0.000762939
270.613	-0.699249	-0.000762329
270.813	-0.699066	-0.000761719
271.013	-0.699524	-0.000761108
271.213	-0.699524	-0.000760498
271.413	-0.699585	-0.000760193
271.613	-0.699188	-0.000759583
271.813	-0.699005	-0.000758972
272.013	-0.699127	-0.000758362
272.213	-0.699341	-0.000757751
272.413	-0.699493	-0.000757141
272.613	-0.699463	-0.000756531
272.813	-0.699554	-0.00075592
273.013	-0.699402	-0.00075531
273.213	-0.699066	-0.000755005
273.413	-0.699005	-0.000754089
273.613	-0.698975	-0.000753784
273.813	-0.699188	-0.000752869
274.013	-0.698914	-0.000752563
274.213	-0.699493	-0.000751953
274.413	-0.699554	-0.000751343
274.613	-0.699188	-0.000750732
274.813	-0.699554	-0.000750122
275.013	-0.699524	-0.000749512
275.213	-0.699005	-0.000748901
275.413	-0.699066	-0.000748291
275.613	-0.699066	-0.000747681
275.813	-0.699066	-0.000747375
276.013	-0.699524	-0.000746765
276.213	-0.699249	-0.000746155
276.413	-0.699371	-0.000745544
276.613	-0.699341	-0.000745239
276.813	-0.699585	-0.000744629
277.013	-0.699554	-0.000744324
277.213	-0.699005	-0.000743408
277.413	-0.698883	-0.000742798
277.613	-0.699097	-0.000742493
277.813	-0.699005	-0.000741577
278.013	-0.699371	-0.000741272
278.213	-0.699158	-0.000740662
278.413	-0.699493	-0.000740051
278.613	-0.699066	-0.000739441
278.813	-0.699554	-0.000739136
279.013	-0.699554	-0.00073822
279.213	-0.698944	-0.000737915
279.413	-0.699615	-0.000737305
279.613	-0.699127	-0.000736694
279.813	-0.699127	-0.000736084
280.013	-0.699463	-0.000735474
280.213	-0.699005	-0.000735168
280.413	-0.699432	-0.000734558
280.613	-0.699005	-0.000733948
280.813	-0.699524	-0.000733643
281.013	-0.699554	-0.000733032
281.213	-0.699036	-0.000732422
281.413	-0.699615	-0.000732117
281.613	-0.699402	-0.000731506
281.813	-0.698944	-0.000730896
282.013	-0.698944	-0.000730286
282.213	-0.698975	-0.00072998
282.413	-0.69931	-0.00072937
282.613	-0.699158	-0.00072876
282.813	-0.699371	-0.000728455
283.013	-0.699554	-0.000727844
283.213	-0.699097	-0.000727234
283.413	-0.699554	-0.000726624
283.613	-0.699554	-0.000726318
283.813	-0.699005	-0.000725708
284.013	-0.698944	-0.000725098
284.213	-0.699127	-0.000724792
284.413	-0.699097	-0.000724182
284.613	-0.699005	-0.000723572
284.813	-0.698975	-0.000722961
285.013	-0.699371	-0.000722351
285.213	-0.699402	-0.000721436
285.413	-0.699249	-0.00072113
285.613	-0.699493	-0.000720825
285.813	-0.699158	-0.00072052
286.013	-0.699036	-0.00071991
286.213	-0.699524	-0.000719299
286.413	-0.698944	-0.000718994
286.613	-0.698883	-0.000718384
286.813	-0.699036	-0.000718079
287.013	-0.699188	-0.000717468
287.213	-0.699463	-0.000716858
287.413	-0.699188	-0.000716553
287.613	-0.699524	-0.000715942
287.813	-0.698975	-0.000715332
288.013	-0.69928	-0.000715027
288.213	-0.699005	-0.000714417
288.413	-0.699554	-0.000713806
288.613	-0.699005	-0.000713196
288.813	-0.699493	-0.000712891
289.013	-0.699066	-0.000712585
289.213	-0.699341	-0.000711975
289.413	-0.699493	-0.000711365
289.613	-0.699036	-0.00071106
289.813	-0.699554	-0.000710449
290.013	-0.699005	-0.000709534
290.213	-0.699066	-0.000709229
290.413	-0.699615	-0.000708923
290.613	-0.69931	-0.000708313
290.813	-0.698944	-0.000707703
291.013	-0.699493	-0.000707397
291.213	-0.699554	-0.000706787
291.413	-0.699005	-0.000706482
291.613	-0.699432	-0.000705872
291.813	-0.699188	-0.000705261
292.013	-0.698883	-0.000704956
292.213	-0.699463	-0.000704346
292.413	-0.699432	-0.000704041
292.613	-0.699585	-0.00070343
292.813	-0.699188	-0.000703125
293.013	-0.699524	-0.000702515
293.213	-0.699493	-0.000701904
293.413	-0.699219	-0.000701599
293.613	-0.699493	-0.000700989
293.813	-0.699036	-0.000700684
294.013	-0.699005	-0.000700073
294.213	-0.699585	-0.000699768
294.413	-0.699036	-0.000699158
294.613	-0.699615	-0.000698853
294.813	-0.699493	-0.000698242
295.013	-0.699158	-0.000697937
295.213	-0.699585	-0.000697327
295.413	-0.699585	-0.000696716
295.613	-0.699158	-0.000696106
295.813	-0.69928	-0.000695801
296.013	-0.699524	-0.00069519
296.213	-0.699127	-0.000694885
296.413	-0.699341	-0.000694275
296.613	-0.699524	-0.00069397
296.813	-0.699371	-0.000693359
297.013	-0.699036	-0.000693054
297.213	-0.699585	-0.000692444
297.413	-0.699402	-0.000692139
297.613	-0.699066	-0.000691528
297.813	-0.699554	-0.000691223
298.013	-0.699432	-0.000690613
298.213	-0.699036	-0.000690002
298.413	-0.699432	-0.000689697
298.613	-0.699127	-0.000689087
298.813	-0.699158	-0.000688782
299.013	-0.69931	-0.000688171
299.213	-0.699188	-0.000687866
299.413	-0.699585	-0.000687256
299.613	-0.699066	-0.000686951
299.813	-0.698975	-0.00068634
300.013	-0.699463	-0.00068573
300.213	-0.699127	-0.000685425
300.413	-0.699371	-0.000684814
300.613	-0.699188	-0.000684509
300.813	-0.69928	-0.000683899
301.013	-0.699188	-0.000683594
301.213	-0.699219	-0.000683289
301.413	-0.699585	-0.000682678
301.613	-0.699005	-0.000682068
301.813	-0.699005	-0.000681763
302.013	-0.69931	-0.000681152
302.213	-0.699158	-0.000680847
302.413	-0.699066	-0.000680542
302.613	-0.699005	-0.000679932
302.813	-0.699615	-0.000679626
303.013	-0.699066	-0.000679321
303.213	-0.699127	-0.000678711
303.413	-0.699249	-0.000678101
303.613	-0.699524	-0.000677795
303.813	-0.699036	-0.000677185
304.013	-0.699341	-0.000676575
304.213	-0.699097	-0.00067627
304.413	-0.699615	-0.000675964
304.613	-0.699432	-0.000675354
304.813	-0.69928	-0.000675049
305.013	-0.699036	-0.000674438
305.213	-0.699402	-0.000674133
305.413	-0.699463	-0.000673828
305.613	-0.699524	-0.000673218
305.813	-0.698975	-0.000672607
306.013	-0.699249	-0.000672607
306.213	-0.699158	-0.000671997
306.413	-0.699341	-0.000671692
306.613	-0.699371	-0.000671082
306.813	-0.699402	-0.000670776
307.013	-0.699005	-0.000670166
307.213	-0.699249	-0.000669861
307.413	-0.699249	-0.000669556
307.613	-0.699615	-0.000668945
307.813	-0.69931	-0.00066864
308.013	-0.699493	-0.000668335
308.213	-0.698975	-0.000667725
308.413	-0.699127	-0.000667419
308.613	-0.699066	-0.000667114
308.813	-0.699585	-0.000666504
309.013	-0.699219	-0.000666199
309.213	-0.699554	-0.000665588
309.413	-0.698944	-0.000665283
309.613	-0.699432	-0.000664978
309.813	-0.699463	-0.000664368
310.013	-0.699554	-0.0006640625
310.213	-0.699005	-0.000663757
310.413	-0.699066	-0.000663147
310.613	-0.698944	-0.000662842
310.813	-0.699615	-0.000662231
311.013	-0.699005	-0.000661926
311.213	-0.699585	-0.000661621
311.413	-0.698883	-0.000661316
311.613	-0.699615	-0.000661011
311.813	-0.699554	-0.0006604
312.013	-0.699615	-0.000660095
312.213	-0.698975	-0.00065979
312.413	-0.699158	-0.000659485
312.613	-0.698975	-0.00065918
312.813	-0.699463	-0.000658569
313.013	-0.698975	-0.000658264
313.213	-0.699554	-0.000657959
313.413	-0.699005	-0.000657349
313.613	-0.699615	-0.000657043
313.813	-0.699066	-0.000656738
314.013	-0.699554	-0.000656128
314.213	-0.699005	-0.000655823
314.413	-0.699646	-0.000655518
314.613	-0.699066	-0.000654907
314.813	-0.699615	-0.000654602
315.013	-0.699005	-0.000654297
315.213	-0.699524	-0.000653992
315.413	-0.699036	-0.000653381
315.613	-0.699554	-0.000653076
315.813	-0.699005	-0.000652771
316.013	-0.699585	-0.000652466
316.213	-0.699005	-0.000651855
316.413	-0.699097	-0.00065155
316.613	-0.699066	-0.000651245
316.813	-0.699615	-0.00065094
317.013	-0.699554	-0.000650635
317.213	-0.699493	-0.000650024
317.413	-0.699005	-0.000649719
317.613	-0.699585	-0.000649414
317.813	-0.699432	-0.000649109
318.013	-0.699585	-0.000648499
318.213	-0.699036	-0.000648193
318.413	-0.698944	-0.000647888
318.613	-0.699005	-0.000647278
318.813	-0.699585	-0.000646973
319.013	-0.699554	-0.000646667
319.213	-0.699493	-0.000646362
319.413	-0.699036	-0.000645752
319.613	-0.699524	-0.000645752
319.813	-0.699432	-0.000645142
320.013	-0.699585	-0.000644836
320.213	-0.699127	-0.000644531
320.413	-0.699066	-0.000643616
320.613	-0.698975	-0.000643311
320.813	-0.699371	-0.000643005
321.013	-0.699615	-0.0006427
321.213	-0.699585	-0.000642395
321.413	-0.699341	-0.00064209
321.613	-0.699219	-0.000641785
321.813	-0.699066	-0.000641174
322.013	-0.699097	-0.000640869
322.213	-0.699615	-0.000640564
322.413	-0.698944	-0.000640259
322.613	-0.699402	-0.000639954
322.813	-0.699097	-0.000639343
323.013	-0.699585	-0.000639038
323.213	-0.699249	-0.000638733
323.413	-0.699524	-0.000638428
323.613	-0.698975	-0.000638123
323.813	-0.699402	-0.000637817
324.013	-0.699036	-0.000637207
324.213	-0.69928	-0.000636902
324.413	-0.698944	-0.000636597
324.613	-0.699585	-0.000636292
324.813	-0.699677	-0.000635986
325.013	-0.699432	-0.000635681
325.213	-0.699036	-0.000635071
325.413	-0.699036	-0.000634766
325.613	-0.699524	-0.00063446
325.813	-0.699463	-0.00063385
326.013	-0.699615	-0.000633545
326.213	-0.699036	-0.00063324
326.413	-0.699066	-0.000632935
326.613	-0.699341	-0.000632629
326.813	-0.699615	-0.000632324
327.013	-0.699585	-0.000631714
327.213	-0.699066	-0.000631409
327.413	-0.698975	-0.000631104
327.613	-0.699219	-0.000630798
327.813	-0.699493	-0.000630493
328.013	-0.699615	-0.000630188
328.213	-0.699066	-0.000629883
328.413	-0.699036	-0.000629578
328.613	-0.699066	-0.000629272
328.813	-0.699463	-0.000628662
329.013	-0.699646	-0.000628357
329.213	-0.699402	-0.000628052
329.413	-0.699066	-0.000627747
329.613	-0.698975	-0.000627136
329.813	-0.699432	-0.000627136
330.013	-0.699677	-0.000626831
330.213	-0.698944	-0.000626526
330.413	-0.698975	-0.000625916
330.613	-0.699188	-0.00062561
330.813	-0.699615	-0.000625305
331.013	-0.699036	-0.000625
331.213	-0.699036	-0.000624695
331.413	-0.699005	-0.00062439
331.613	-0.699554	-0.000623169
331.813	-0.699646	-0.000623169
332.013	-0.699554	-0.000623169
332.213	-0.699005	-0.000622864
332.413	-0.699005	-0.000622253
332.613	-0.699402	-0.000622253
332.813	-0.699554	-0.000621643
333.013	-0.699066	-0.000621338
333.213	-0.699005	-0.000621033
333.413	-0.699188	-0.000620728
333.613	-0.69931	-0.000620422
333.813	-0.699554	-0.000620117
334.013	-0.699219	-0.000619812
334.213	-0.699585	-0.000619202
334.313	-0.699524	-0.000619202