File: Edgar/20230810 (1)/WO3_ITO_20230717_G/OCP_3
Time (s)	WE(1).Potential (V)
335.324	-0.583191
336.324	-0.552673
337.324	-0.531311
338.324	-0.513916
339.324	-0.499023
340.324	-0.485596
341.324	-0.473206
342.324	-0.461578
343.324	-0.450714
344.324	-0.440735
345.324	-0.431702
346.324	-0.423676
347.324	-0.416382
348.324	-0.409729
349.324	-0.403473
350.324	-0.397583
351.324	-0.391968
352.324	-0.386658
353.324	-0.381592
354.324	-0.376709
355.324	-0.37207
356.324	-0.367554
357.324	-0.36322
358.324	-0.359039
359.324	-0.355011
360.324	-0.351074
361.324	-0.34726
362.324	-0.343506
363.324	-0.339874
364.324	-0.336243
365.324	-0.332733
366.324	-0.329254
367.324	-0.325867
368.324	-0.322479
369.324	-0.319183
370.324	-0.315948
371.324	-0.312714
372.324	-0.30957
373.324	-0.306458
374.324	-0.303406
375.324	-0.300354
376.324	-0.297363
377.324	-0.294403
378.324	-0.291473
379.324	-0.288605
380.324	-0.285767
381.324	-0.282959
382.324	-0.280212
383.324	-0.277466
384.324	-0.27478
385.324	-0.272156
386.324	-0.269562
387.324	-0.266998
388.324	-0.264496
389.324	-0.262054
390.324	-0.259583
391.324	-0.257172
392.324	-0.254791
393.324	-0.252502
394.324	-0.250214
395.324	-0.247955
396.324	-0.245728
397.324	-0.243561
398.324	-0.241425
399.324	-0.239319
400.324	-0.237183
401.324	-0.235107
402.324	-0.233063
403.324	-0.231049
404.324	-0.229065
405.324	-0.227081
406.324	-0.225159
407.324	-0.223206
408.324	-0.221313
409.324	-0.219421
410.324	-0.21756
411.324	-0.215698
412.324	-0.213837
413.324	-0.211975
414.324	-0.210114
415.324	-0.208282
416.324	-0.206451
417.324	-0.20462
418.324	-0.20282
419.324	-0.200958
420.324	-0.199097
421.324	-0.197174
422.324	-0.195251
423.324	-0.193329
424.324	-0.191376
425.324	-0.189453
426.324	-0.187469
427.324	-0.185455
428.324	-0.18338
429.324	-0.181274
430.324	-0.179108
431.324	-0.17691
432.324	-0.174652
433.324	-0.172394
434.324	-0.170044
435.324	-0.167694
436.324	-0.165253
437.324	-0.162781
438.324	-0.160248
439.324	-0.157623
440.324	-0.154968
441.324	-0.152252
442.324	-0.149506
443.324	-0.146698
444.324	-0.143829
445.324	-0.1409
446.324	-0.137939
447.324	-0.134888
448.324	-0.131775
449.324	-0.128601
450.324	-0.125366
451.324	-0.122101
452.324	-0.118774
453.324	-0.115417
454.324	-0.112
455.324	-0.108551
456.324	-0.105072
457.324	-0.1015625
458.324	-0.098053
459.324	-0.0945435
460.324	-0.0910339
461.324	-0.0875854
462.324	-0.0841064
463.324	-0.080658
464.324	-0.0772705
465.324	-0.0738831
466.324	-0.0705566
467.324	-0.0672607
468.324	-0.0640259
469.324	-0.0608215
470.324	-0.0576477
471.324	-0.0545959
472.324	-0.0515442
473.324	-0.0485779
474.324	-0.0456635
475.324	-0.0427887
476.324	-0.0399811
477.324	-0.037207
478.324	-0.0344727
479.324	-0.0317749
480.324	-0.0290955
481.324	-0.0264496
482.324	-0.0238342
483.324	-0.0212341
484.324	-0.0186768
485.324	-0.0161469
486.324	-0.0136719
487.324	-0.0112152
488.324	-0.00881042
489.324	-0.00645447
490.324	-0.00415344
491.324	-0.0019104
492.324	0.000259399
493.324	0.00236511
494.324	0.00433044
495.324	0.00635071
496.324	0.00821228
497.324	0.010022
498.324	0.0117432
499.324	0.013382
500.324	0.0149414
501.324	0.0164276
502.324	0.0178345
503.324	0.0191833
504.324	0.020459
505.324	0.0216492
506.324	0.0228149
507.324	0.0238922
508.324	0.0249084
509.324	0.0258698
510.324	0.026767
511.324	0.0276276
512.324	0.0284424
513.324	0.0292023
514.324	0.0299255
515.324	0.0306244
516.324	0.0312775
517.324	0.0318878
518.324	0.032486
519.324	0.0330627
520.324	0.0336151
521.324	0.0341553
522.324	0.0346771
523.324	0.0351746
524.324	0.035672
525.324	0.0361389
526.324	0.0366272
527.324	0.0371033
528.324	0.0375916
529.324	0.0380798
530.324	0.0385834
531.324	0.0390869
532.324	0.0396179
533.324	0.0401489
534.324	0.0406921
535.324	0.0412537
536.324	0.0418365
537.324	0.0424164
538.324	0.0430573
539.324	0.0436951
540.324	0.0443542
541.324	0.0450195
542.324	0.0456909
543.324	0.046463
544.324	0.0472046
545.324	0.0480194
546.324	0.0488342
547.324	0.0496826
548.324	0.0505676
549.324	0.0514221
550.324	0.0523071
551.324	0.0532227
552.324	0.0541687
553.324	0.0550842
554.324	0.0560303
555.324	0.0570374
556.324	0.0580444
557.324	0.059082
558.324	0.0601196
559.324	0.0611572
560.324	0.0622559
561.324	0.063324
562.324	0.0644226
563.324	0.0655212
564.324	0.0666504
565.324	0.0677795
566.324	0.0689087
567.324	0.0700684
568.324	0.071228
569.324	0.0723572
570.324	0.0735168
571.324	0.0746765
572.324	0.0758667
573.324	0.0770264
574.324	0.0782166
575.324	0.0793762
576.324	0.0805359
577.324	0.0816956
578.324	0.0828552
579.324	0.0840454
580.324	0.0851746
581.324	0.0863342
582.324	0.0874939
583.324	0.088623
584.324	0.0897827
585.324	0.0909119
586.324	0.092041
587.324	0.0931396
588.324	0.0942688
589.324	0.0953369
590.324	0.0964355
591.324	0.0975037
592.324	0.0985718
593.324	0.0996399
594.324	0.100677
595.324	0.101715
596.324	0.102722
597.324	0.10376
598.324	0.104767
599.324	0.105743
600.324	0.10672
601.324	0.107697
602.324	0.108673
603.324	0.109589
604.324	0.110535
605.324	0.11145
606.324	0.112335
607.324	0.11322
608.324	0.114136
609.324	0.11499
610.324	0.115875
611.324	0.116699
612.324	0.117493
613.324	0.118317
614.324	0.119141
615.324	0.119934
616.324	0.120697
617.324	0.12146
618.324	0.122192
619.324	0.122955
620.324	0.123688
621.324	0.12442
622.324	0.125122
623.324	0.125763
624.324	0.126465
625.324	0.127136
626.324	0.127808
627.324	0.128479
628.324	0.12912
629.324	0.129761
630.324	0.130188
631.324	0.130798
632.324	0.1315
633.324	0.132202
634.324	0.1328125
635.324	0.133392
636.324	0.134003
637.324	0.134552
638.324	0.135132
639.324	0.135681
640.324	0.1362
641.324	0.136719
642.324	0.137238
643.324	0.137726
644.324	0.138245
645.324	0.138733
646.324	0.139221
647.324	0.139679
648.324	0.140167
649.324	0.140625
650.324	0.141083
651.324	0.141541
652.324	0.141968
653.324	0.142395
654.324	0.142853
655.324	0.14328
656.324	0.143707
657.324	0.144135
658.324	0.144531
659.324	0.144928
660.324	0.145325
661.324	0.145691
662.324	0.146088
663.324	0.146454
664.324	0.14682
665.324	0.147217
666.324	0.147552
667.324	0.147949
668.324	0.148315
669.324	0.148651
670.324	0.148987
671.324	0.149323
672.324	0.149658
673.324	0.149963
674.324	0.150269
675.324	0.150574
676.324	0.150909
677.324	0.151215
678.324	0.15152
679.324	0.151733
680.324	0.15213
681.324	0.152435
682.324	0.15271
683.324	0.152985
684.324	0.15329
685.324	0.153534
686.324	0.153839
687.324	0.154114
688.324	0.154388
689.324	0.154663
690.324	0.154907
691.324	0.155182
692.324	0.155457
693.324	0.155701
694.324	0.155945
695.324	0.155975
696.324	0.15625
697.324	0.156494
698.324	0.156738
699.324	0.156982
700.324	0.157257
701.324	0.157501
702.324	0.157715
703.324	0.15799
704.324	0.158264
705.324	0.158508
706.324	0.158783
707.324	0.159027
708.324	0.159241
709.324	0.159485
710.324	0.159698
711.324	0.159973
712.324	0.160217
713.324	0.160461
714.324	0.160675
715.324	0.160919
716.324	0.161133
717.324	0.161346
718.324	0.16153
719.324	0.161743
720.324	0.161987
721.324	0.16214
722.324	0.162354
723.324	0.162537
724.324	0.162689
725.324	0.162872
726.324	0.163055
727.324	0.163208
728.324	0.163361
729.324	0.163513
730.324	0.163666
731.324	0.163818
732.324	0.163971
733.324	0.164154
734.324	0.164307
735.324	0.164429
736.324	0.164581
737.324	0.164703
738.324	0.164856
739.324	0.164978
740.324	0.1651
741.324	0.165253
742.324	0.165405
743.324	0.165527
744.324	0.16568
745.324	0.165833
746.324	0.165955
747.324	0.166107
748.324	0.16626
749.324	0.166382
750.324	0.166534
751.324	0.166656
752.324	0.166809
753.324	0.166931
754.324	0.167053