File: Edgar/20240424/20240424/CV/sample-20240417_B/CV_2
Time (s)	Scan	WE(1).Potential (V)	WE(1).Current (A)	External(1).External 2 (V)	Q+	Q-
429.616	1	0.0943298	9.47845e-07	3.42194
431.691	1	0.0675964	-1.73248e-05	3.43933
433.766	1	0.0290344	-3.12897e-05	3.42163
435.841	1	-0.0124451	-4.63531e-05	3.38287
437.916	1	-0.056488	-6.13403e-05	3.38257
439.992	1	-0.0978394	-7.421875E-05	3.32458
442.067	1	-0.139069	-8.5022e-05	3.28552
444.142	1	-0.180511	-9.61304e-05	3.24493
446.217	1	-0.221741	-0.000108887	3.18787
448.292	1	-0.263153	-0.000124786	3.12897
450.368	1	-0.304565	-0.000145203	3.05084
452.443	1	-0.345856	-0.000170929	2.95349
454.518	1	-0.387299	-0.000200775	2.87537
456.593	1	-0.42868	-0.000233307	2.75757
458.668	1	-0.46933	-0.000266113	2.62268
460.743	1	-0.49115	-0.000252441	2.49908
462.819	1	-0.449615	-0.000128754	2.38281
464.894	1	-0.40802	-3.57086e-05	2.32422
466.969	1	-0.366608	3.95752e-05	2.30469
469.044	1	-0.325256	0.000101654	2.32452
471.119	1	-0.283783	0.000153046	2.36298
473.195	1	-0.242523	0.000193329	2.42218
475.27	1	-0.201385	0.00022168	2.56348
477.345	1	-0.160278	0.000235992	2.67944
479.42	1	-0.119507	0.000235168	2.85553
481.495	1	-0.0782166	0.00022049	3.0127
483.571	1	-0.0343384	0.000194519	3.1485
485.646	1	0.00700378	0.000159546	3.24493
487.721	1	0.0484955	0.000120056	3.34351
489.796	1	0.0870667	8.13599e-05	3.40179
491.871	2	0.128418	4.84314e-05	3.4021
493.947	2	0.169769	2.36145e-05	3.44055
496.022	2	0.21106	9.96094e-06	3.44147
498.097	2	0.252411	5.63354e-06	3.44147
500.172	2	0.293701	4.08173e-06	3.44116
502.247	2	0.335114	3.19061e-06	3.46069
504.322	2	0.376434	2.65137e-06	3.44116
506.398	2	0.417694	2.23389e-06	3.43994
508.473	2	0.459106	1.89484e-06	3.44116
510.548	2	0.500488	1.66779e-06	3.44055
512.623	2	0.541718	1.49109e-06	3.461
514.698	2	0.58313	1.37573e-06	3.43964
516.774	2	0.62439	1.23779e-06	3.44025
518.849	2	0.665771	1.18805e-06	3.46039
520.924	2	0.707092	1.07971e-06	3.46069
522.999	2	0.748291	1.06201e-06	3.44055
525.074	2	0.788879	9.79919e-07	3.44025
527.15	2	0.830688	1.00128e-06	3.45978
529.225	2	0.872498	9.42688e-07	3.43964
531.3	2	0.913696	9.7168e-07	3.42072
533.375	2	0.954895	9.17358e-07	3.43933
535.45	2	0.991211	8.97827e-07	3.43994
537.526	2	0.950317	6.54297e-07	3.43933
539.601	2	0.908813	5.60608e-07	3.42041
541.676	2	0.86731	5.05676e-07	3.43994
543.751	2	0.8255	4.46472e-07	3.45947
545.826	2	0.784302	4.18701e-07	3.43994
547.901	2	0.743622	3.72009e-07	3.44055
549.977	2	0.702209	3.52478e-07	3.42133
552.052	2	0.660889	3.125E-07	3.45978
554.127	2	0.619568	2.98157e-07	3.43964
556.202	2	0.578278	2.56958e-07	3.44147
558.277	2	0.536896	2.5116e-07	3.4201
560.353	2	0.495575	2.16064e-07	3.44055
562.428	2	0.454285	1.99585e-07	3.44086
564.503	2	0.412964	1.68762e-07	3.44086
566.578	2	0.371613	1.45874e-07	3.40179
568.653	2	0.330261	9.82666e-08	3.42163
570.729	2	0.288879	4.46472e-08	3.43994
572.804	2	0.24762	-1.2851e-07	3.44055
574.879	2	0.206268	-8.29163e-07	3.42163
576.954	2	0.164856	-3.73383e-06	3.42194
579.029	2	0.123505	-1.05438e-05	3.4201
581.105	2	0.0822449	-2.01538e-05	3.44086
583.18	2	0.0436127	-3.1601e-05	3.4024
585.255	2	0.00214539	-4.52972e-05	3.40271
587.33	2	-0.0393097	-6.02112e-05	3.36426
589.405	2	-0.0831909	-7.30591e-05	3.30383
591.48	2	-0.124573	-8.33435e-05	3.2843
593.556	2	-0.165833	-9.33838e-05	3.24585
595.631	2	-0.207184	-0.000105103	3.18817
597.706	2	-0.248535	-0.000119568	3.12927
599.781	2	-0.289886	-0.000138336	3.05176
601.856	2	-0.331207	-0.000162109	2.97333
603.932	2	-0.37262	-0.000190674	2.87567
606.007	2	-0.414032	-0.000222382	2.75665
608.082	2	-0.454926	-0.000255096	2.6413
610.157	2	-0.496033	-0.000287384	2.49908
612.232	2	-0.464203	-0.000167755	2.40173
614.308	2	-0.422668	-6.5918e-05	2.32513
616.383	2	-0.381134	1.50909e-05	2.28577
618.458	2	-0.339813	8.1604e-05	2.28516
620.533	2	-0.298431	0.00013681	2.32422
622.608	2	-0.257019	0.000181274	2.38403
624.683	2	-0.215851	0.000214233	2.47986
626.759	2	-0.174713	0.000234009	2.60132
628.834	2	-0.133728	0.000238617	2.73865
630.909	2	-0.092804	0.000228668	2.91443
632.984	2	-0.0488647	0.000206329	3.09021
635.059	2	-0.00759888	0.000174103	3.2074
637.135	2	0.0338379	0.000135345	3.28339
639.21	2	0.0724792	9.56726e-05	3.36151
641.285	3	0.113831	6.03638e-05	3.40179
643.36	3	0.155121	3.22449e-05	3.42163
645.435	3	0.196533	1.32538e-05	3.40149
647.511	3	0.237793	6.66199e-06	3.42102
649.586	3	0.279114	4.44641e-06	3.42133
651.661	3	0.320526	3.4671e-06	3.42194
653.736	3	0.361847	2.78381e-06	3.40179
655.811	3	0.403137	2.36725e-06	3.42072
657.887	3	0.44455	1.93359e-06	3.42133
659.962	3	0.485962	1.75018e-06	3.44086
662.037	3	0.527191	1.48987e-06	3.42133
664.112	3	0.568481	1.40717e-06	3.4021
666.187	3	0.609833	1.20697e-06	3.41949
668.262	3	0.651245	1.1618e-06	3.40149
670.338	3	0.692535	1.03668e-06	3.42072
672.413	3	0.733887	9.75342e-07	3.42133
674.488	3	0.774231	9.18884e-07	3.44025
676.563	3	0.815735	8.66394e-07	3.44025
678.638	3	0.857849	8.36487e-07	3.42102
680.714	3	0.899048	7.91016e-07	3.43964
682.789	3	0.940247	8.13599e-07	3.42102
684.864	3	0.982361	7.49817e-07	3.40027
686.939	3	0.964355	6.64368e-07	3.4201
689.014	3	0.923157	5.02014e-07	3.42102
691.09	3	0.881958	4.72717e-07	3.42072
693.165	3	0.840454	4.24194e-07	3.42102
695.24	3	0.798645	3.79028e-07	3.40149
697.315	3	0.757141	3.60413e-07	3.40118
699.39	3	0.716888	3.08533e-07	3.40118
701.466	3	0.675537	3.31726e-07	3.42102
703.541	3	0.634125	2.34375E-07	3.44055
705.616	3	0.592865	2.88391e-07	3.40118
707.691	3	0.551514	2.14844e-07	3.40088
709.766	3	0.510132	2.12097e-07	3.4021
711.841	3	0.468811	1.89209e-07	3.44116
713.917	3	0.427429	1.60828e-07	3.4021
715.992	3	0.386139	1.49536e-07	3.42255
718.067	3	0.344788	8.66699e-08	3.40271
720.142	3	0.303497	9.97925e-08	3.40179
722.217	3	0.262207	-1.02356e-07	3.4021
724.293	3	0.220795	-4.39758e-07	3.42194
726.368	3	0.179596	-2.36725e-06	3.40302
728.443	3	0.138184	-7.85522e-06	3.42285
730.518	3	0.0967712	-1.69708e-05	3.4201
732.593	3	0.0554504	-2.78992e-05	3.40271
734.669	3	0.0168365	-4.08783e-05	3.38287
736.744	3	-0.0246368	-5.56946e-05	3.34473
738.819	3	-0.068573	-6.93359e-05	3.32458
740.894	3	-0.109985	-8.03528e-05	3.28491
742.969	3	-0.151245	-9.00879e-05	3.22723
745.045	3	-0.192596	-0.000101166	3.18787
747.12	3	-0.233948	-0.000114471	3.12866
749.195	3	-0.27533	-0.000131622	3.07037
751.27	3	-0.31665	-0.000153656	2.97363
753.345	3	-0.358032	-0.000180695	2.89612
755.42	3	-0.399414	-0.000211426	2.81738
757.496	3	-0.440155	-0.000243958	2.66144
759.571	3	-0.481476	-0.000276459	2.54486
761.646	3	-0.478851	-0.000211456	2.4234
763.721	3	-0.437225	-9.8877e-05	2.32544
765.796	3	-0.395813	-1.13556e-05	2.28546
767.872	3	-0.354401	5.98145e-05	2.26532
769.947	3	-0.313049	0.000118896	2.3056
772.022	3	-0.271667	0.000167206	2.34436
774.097	3	-0.230347	0.000204559	2.40356
776.172	3	-0.18927	0.000229218	2.54364
778.248	3	-0.148132	0.00023938	2.68097
780.323	3	-0.10733	0.000234375	2.85614
782.398	3	-0.0660706	0.000216156	3.01239
784.473	3	-0.0221649	0.000187195	3.16895
786.548	3	0.0193298	0.000150085	3.22723
788.624	3	0.0578918	0.000110138	3.30475
790.699	4	0.0992126	7.26624e-05	3.36334
792.774	4	0.140564	4.19739e-05	3.36334
794.849	4	0.181854	1.86279e-05	3.38318
796.924	4	0.223267	8.11462e-06	3.42316
798.999	4	0.264496	5.05066e-06	3.40057
801.075	4	0.305847	3.74969e-06	3.40118
803.15	4	0.347321	3.02917e-06	3.4021
805.225	4	0.38855	2.45209e-06	3.38287
807.3	4	0.429901	2.10571e-06	3.4024
809.375	4	0.471222	1.76056e-06	3.42224
811.451	4	0.512573	1.62445e-06	3.40271
813.526	4	0.553955	1.40076e-06	3.38165
815.601	4	0.595367	1.29456e-06	3.38196
817.676	4	0.636597	1.17065e-06	3.40149
819.751	4	0.677917	1.08307e-06	3.40118
821.827	4	0.719269	9.84192e-07	3.40118
823.902	4	0.759888	9.27734e-07	3.42133
825.977	4	0.801392	8.74329e-07	3.40088
828.052	4	0.84259	8.05664e-07	3.40057
830.127	4	0.884094	8.11157e-07	3.4024
832.202	4	0.925293	7.18689e-07	3.40057
834.278	4	0.967407	7.79419e-07	3.42072
836.353	4	0.979614	6.17981e-07	3.42041
838.428	4	0.93811	5.60913e-07	3.42072
840.503	4	0.896606	4.6051e-07	3.40149
842.578	4	0.854797	4.32739e-07	3.40118
844.654	4	0.813293	3.77502e-07	3.40118
846.729	4	0.772095	3.51868e-07	3.4021
848.804	4	0.731445	3.17383e-07	3.40118
850.879	4	0.690063	3.02734e-07	3.42102
852.954	4	0.648743	2.65503e-07	3.38196
855.03	4	0.607361	2.57263e-07	3.40302
857.105	4	0.566132	2.18506e-07	3.40271
859.18	4	0.52478	2.29492e-07	3.40149
861.255	4	0.48349	1.66321e-07	3.38226
863.33	4	0.442078	1.97754e-07	3.38226
865.406	4	0.400818	1.12e-07	3.38226
867.481	4	0.359406	1.48926e-07	3.40179
869.556	4	0.318054	3.69263e-08	3.4021
871.631	4	0.276703	2.99377e-08	3.38196
873.706	4	0.235382	-3.14697e-07	3.38287
875.781	4	0.194061	-1.3562e-06	3.38226
877.857	4	0.15274	-5.5542e-06	3.4021
879.932	4	0.111389	-1.36505e-05	3.38257
882.007	4	0.0701294	-2.42584e-05	3.40149
884.082	4	0.0313873	-3.6438e-05	3.38257
886.157	4	-0.010025	-5.08423e-05	3.36365
888.233	4	-0.0540771	-6.51245e-05	3.34381
890.308	4	-0.0953064	-7.69958e-05	3.26538
892.383	4	-0.136719	-8.68835e-05	3.22693
894.458	4	-0.177979	-9.71985e-05	3.18787
896.533	4	-0.21936	-0.000109741	3.1488
898.609	4	-0.260681	-0.000125244	3.09021
900.684	4	-0.302032	-0.000145538	3.0127
902.759	4	-0.343506	-0.000170807	2.91504
904.834	4	-0.384827	-0.00020047	2.87567
906.909	4	-0.425903	-0.000232483	2.73895
908.985	4	-0.466919	-0.000265106	2.62177
911.06	4	-0.508179	-0.000296814	2.5
913.135	4	-0.549408	-0.000327881	2.32452
915.21	4	-0.590698	-0.000356842	2.20673
917.285	4	-0.568634	-0.000248901	2.09167
919.36	4	-0.5271	-0.00013562	1.97296
921.436	4	-0.485657	-4.43665e-05	1.93359
923.511	4	-0.444153	3.06183e-05	1.89392
925.586	4	-0.40274	9.34448e-05	1.875
927.661	4	-0.361267	0.000146912	1.87439
929.736	4	-0.319855	0.000193115	1.91406
931.812	4	-0.278503	0.000232819	1.99249
933.887	4	-0.237213	0.000265625	2.09076
935.962	4	-0.195892	0.000289734	2.20612
938.037	4	-0.154663	0.000302521	2.30469
940.112	4	-0.113678	0.000301544	2.54395
942.188	4	-0.0732727	0.000286163	2.75818
944.263	4	-0.0293396	0.00025766	2.91504
946.338	4	0.0120117	0.000216736	3.09021
948.413	4	0.0506287	0.000164368	3.20618
950.488	4	0.09198	0.000108215	3.30383
952.564	5	0.13324	6.06689e-05	3.34351
954.639	5	0.174622	2.68158e-05	3.36304
956.714	5	0.215881	1.05072e-05	3.38257
958.789	5	0.257233	6.14319e-06	3.36212
960.864	5	0.298645	4.48303e-06	3.36243
962.939	5	0.339996	3.49304e-06	3.4024
965.015	5	0.381348	2.95593e-06	3.38226
967.09	5	0.422577	2.42889e-06	3.40179
969.165	5	0.463928	2.0929e-06	3.38226
971.24	5	0.505249	1.80847e-06	3.38196
973.315	5	0.546722	1.63513e-06	3.38226
975.391	5	0.587982	1.45416e-06	3.36243
977.466	5	0.629303	1.33881e-06	3.38196
979.541	5	0.670654	1.21735e-06	3.40149
981.616	5	0.712067	1.13678e-06	3.40118
983.691	5	0.752563	1.04614e-06	3.38165
985.767	5	0.794067	9.8999e-07	3.40057
987.842	5	0.835876	9.15222e-07	3.38104
989.917	5	0.87677	8.87756e-07	3.36182
991.992	5	0.918579	8.30688e-07	3.4198
994.067	5	0.959778	8.22449e-07	3.40118
996.143	5	0.986938	7.37305e-07	3.38135
998.218	5	0.945129	6.07605e-07	3.38104
1000.29	5	0.903625	5.23071e-07	3.38135
1002.37	5	0.862427	4.61731e-07	3.38165
1004.44	5	0.821228	4.40369e-07	3.38104
1006.52	5	0.779114	3.49121e-07	3.38165
1008.59	5	0.73877	3.92761e-07	3.36243
1010.67	5	0.697388	2.88086e-07	3.38226
1012.74	5	0.656006	3.17688e-07	3.38165
1014.82	5	0.614777	2.63367e-07	3.36243
1016.89	5	0.573425	2.53296e-07	3.38226
1018.97	5	0.532013	2.28577e-07	3.36243
1021.04	5	0.490753	1.80359e-07	3.40088
1023.12	5	0.44931	2.23999e-07	3.40149
1025.2	5	0.408051	1.24207e-07	3.40118
1027.27	5	0.366699	1.40991e-07	3.38226
1029.35	5	0.325409	8.23975e-08	3.38196
1031.42	5	0.284058	1.71204e-08	3.38226
1033.5	5	0.242676	-2.05322e-07	3.38226
1035.57	5	0.201416	-1.10535e-06	3.38257
1037.65	5	0.159973	-4.55627e-06	3.38226
1039.72	5	0.118683	-1.23505e-05	3.38257
1041.8	5	0.0773621	-2.26868e-05	3.36304
1043.87	5	0.0387817	-3.47168e-05	3.34381
1045.95	5	-0.00276489	-4.8819e-05	3.34381
1048.02	5	-0.044165	-6.32019e-05	3.30414
1050.1	5	-0.0881042	-7.55615e-05	3.28461
1052.17	5	-0.129364	-8.55408e-05	3.24554
1054.25	5	-0.170837	-9.57031e-05	3.20679
1056.32	5	-0.212036	-0.000107727	3.16803
1058.4	5	-0.253387	-0.000122864	3.10883
1060.47	5	-0.294769	-0.00014212	3.03162
1062.55	5	-0.336121	-0.000166748	2.93365
1064.62	5	-0.377472	-0.000195557	2.81616
1066.7	5	-0.418549	-0.000227417	2.73895
1068.77	5	-0.459717	-0.000259857	2.62177
1070.85	5	-0.500824	-0.000291748	2.46063
1072.92	5	-0.542145	-0.000322662	2.36359
1075	5	-0.583344	-0.000351685	2.22687
1077.07	5	-0.575958	-0.000272064	2.09076
1079.15	5	-0.534332	-0.000153656	1.97296
1081.23	5	-0.492889	-5.92041e-05	1.91376
1083.3	5	-0.451447	1.81244e-05	1.87469
1085.38	5	-0.410004	8.27637e-05	1.85455
1087.45	5	-0.368561	0.000137726	1.87469
1089.53	5	-0.327209	0.000184937	1.89392
1091.6	5	-0.285767	0.000225952	1.97235
1093.68	5	-0.244415	0.000259979	2.07092
1095.75	5	-0.203217	0.000286163	2.16736
1097.83	5	-0.161926	0.000301208	2.30499
1099.9	5	-0.120728	0.000303406	2.42157
1101.98	5	-0.0798645	0.00029071	2.68005
1104.05	5	-0.0367767	0.000264832	2.87476
1106.13	5	0.00472412	0.00022641	3.03162
1108.2	5	0.0460632	0.000175964	3.18787
1110.28	5	0.0847473	0.000119751	3.2843
1112.35	6	0.125977	6.94885e-05	3.32336
1114.43	6	0.167267	3.25195e-05	3.3432
1116.5	6	0.208771	1.22528e-05	3.36273
1118.58	6	0.249939	6.74438e-06	3.36273
1120.65	6	0.29129	4.72107e-06	3.38196
1122.73	6	0.332733	3.76404e-06	3.36212
1124.8	6	0.373993	3.02155e-06	3.3429
1126.88	6	0.415405	2.56409e-06	3.36243
1128.95	6	0.456757	2.13135e-06	3.3429
1131.03	6	0.498047	1.87714e-06	3.36212
1133.11	6	0.539307	1.66107e-06	3.36212
1135.18	6	0.58078	1.49292e-06	3.3429
1137.26	6	0.62204	1.3562e-06	3.36151
1139.33	6	0.663361	1.24298e-06	3.36182
1141.41	6	0.704803	1.15509e-06	3.38196
1143.48	6	0.744934	1.05316e-06	3.36182
1145.56	6	0.786743	1.02905e-06	3.36182
1147.63	6	0.828247	9.03625e-07	3.38135
1149.71	6	0.869751	9.23462e-07	3.36182
1151.78	6	0.911255	8.08411e-07	3.36182
1153.86	6	0.952454	8.48999e-07	3.38104
1155.93	6	0.993958	7.65076e-07	3.36182
1158.01	6	0.952759	6.5033e-07	3.34229
1160.08	6	0.911255	5.22461e-07	3.36182
1162.16	6	0.869141	4.90723e-07	3.38226
1164.23	6	0.828247	4.21448e-07	3.36121
1166.31	6	0.786743	4.03442e-07	3.38135
1168.38	6	0.745239	3.48511e-07	3.38135
1170.46	6	0.704712	3.37219e-07	3.36212
1172.53	6	0.663391	2.91443e-07	3.38165
1174.61	6	0.621979	2.89612e-07	3.36243
1176.68	6	0.580688	2.20642e-07	3.38226
1178.76	6	0.539368	2.66724e-07	3.36212
1180.83	6	0.497986	1.67236e-07	3.36273
1182.91	6	0.456696	2.2583e-07	3.38165
1184.98	6	0.415405	1.25427e-07	3.36273
1187.06	6	0.374084	1.60522e-07	3.36243
1189.14	6	0.332764	6.83594e-08	3.36273
1191.21	6	0.291321	4.93774e-08	3.36243
1193.29	6	0.25	-1.76361e-07	3.36243
1195.36	6	0.20871	-8.34351e-07	3.36273
1197.44	6	0.167358	-3.75732e-06	3.36273
1199.51	6	0.126038	-1.08704e-05	3.34351
1201.59	6	0.0846863	-2.1109e-05	3.36273
1203.66	6	0.0460388	-3.28674e-05	3.34381
1205.74	6	0.00462341	-4.66278e-05	3.32428
1207.81	6	-0.0368408	-6.11877e-05	3.30383
1209.89	6	-0.0807495	-7.38525e-05	3.26477
1211.96	6	-0.122009	-8.42285e-05	3.24524
1214.04	6	-0.163422	-9.40857e-05	3.20679
1216.11	6	-0.204712	-0.000105804	3.12866
1218.19	6	-0.246124	-0.000120239	3.09052
1220.26	6	-0.287476	-0.000138794	3.03162
1222.34	6	-0.328827	-0.000162445	2.93335
1224.41	6	-0.370209	-0.000190613	2.836
1226.49	6	-0.411255	-0.000222107	2.73804
1228.56	6	-0.452515	-0.000254425	2.66052
1230.64	6	-0.493622	-0.000286469	2.54364
1232.71	6	-0.534821	-0.000317596	2.36359
1234.79	6	-0.575989	-0.000346588	2.24609
1236.86	6	-0.583282	-0.000296753	2.09045
1238.94	6	-0.541656	-0.000172424	1.99158
1241.01	6	-0.500153	-7.51038e-05	1.91406
1243.09	6	-0.458649	5.2887e-06	1.85455
1245.17	6	-0.417267	7.19604e-05	1.83563
1247.24	6	-0.375885	0.000128448	1.87469
1249.32	6	-0.334442	0.000176849	1.89362
1251.39	6	-0.29303	0.000219025	1.95251
1253.47	6	-0.25174	0.000254333	2.03094
1255.54	6	-0.210419	0.000282227	2.12799
1257.62	6	-0.169281	0.000299866	2.28455
1259.69	6	-0.128021	0.000304504	2.42157
1261.77	6	-0.0870667	0.000294464	2.60223
1263.84	6	-0.044043	0.000271088	2.79663
1265.92	6	-0.00264282	0.000234955	3.05084
1267.99	6	0.0388184	0.000186615	3.16772
1270.07	6	0.0774536	0.000130554	3.24554
1272.14	7	0.118652	7.83997e-05	3.30353
1274.22	7	0.160034	3.84888e-05	3.32367
1276.29	7	0.201385	1.45569e-05	3.3429
1278.37	7	0.242615	7.27844e-06	3.36212
1280.44	7	0.284027	5.08423e-06	3.36273
1282.52	7	0.325409	3.85162e-06	3.34351
1284.59	7	0.366791	3.20465e-06	3.3429
1286.67	7	0.408203	2.58698e-06	3.3432
1288.74	7	0.449432	2.2226e-06	3.36243
1290.82	7	0.490723	1.91284e-06	3.36273
1292.89	7	0.532135	1.69556e-06	3.36334
1294.97	7	0.573456	1.54816e-06	3.36243
1297.05	7	0.614746	1.3504e-06	3.34259
1299.12	7	0.656067	1.30951e-06	3.36212
1301.2	7	0.697418	1.14685e-06	3.3429
1303.27	7	0.738739	1.08398e-06	3.36212
1305.35	7	0.778809	1.015625E-06	3.3429
1307.42	7	0.820618	9.2926e-07	3.3432
1309.5	7	0.862427	9.24683e-07	3.34259
1311.57	7	0.904236	8.078e-07	3.36151
1313.65	7	0.945129	8.47778e-07	3.36182
1315.72	7	0.986633	7.58972e-07	3.36182
1317.8	7	0.960083	6.53687e-07	3.34229
1319.87	7	0.918579	5.35889e-07	3.36212
1321.95	7	0.877075	4.93469e-07	3.32245
1324.02	7	0.835571	4.33044e-07	3.34229
1326.1	7	0.793762	4.00085e-07	3.36243
1328.17	7	0.752869	3.5614e-07	3.36182
1330.25	7	0.711975	3.36609e-07	3.36243
1332.32	7	0.670685	2.88696e-07	3.36243
1334.4	7	0.629272	2.90833e-07	3.36243
1336.47	7	0.588013	2.31628e-07	3.36243
1338.55	7	0.546661	2.50854e-07	3.36243
1340.62	7	0.505341	1.96533e-07	3.3429
1342.7	7	0.463989	1.90125e-07	3.36243
1344.77	7	0.422638	1.66016e-07	3.36212
1346.85	7	0.381317	1.34888e-07	3.3432
1348.92	7	0.339996	1.05286e-07	3.3429
1351	7	0.298737	4.63562e-08	3.3429
1353.08	7	0.257233	-1.14777e-07	3.34167
1355.15	7	0.215973	-6.57043e-07	3.36212
1357.23	7	0.174652	-2.99469e-06	3.36243
1359.3	7	0.133331	-9.48181e-06	3.36304
1361.38	7	0.09198	-1.94489e-05	3.36304
1363.45	7	0.0506287	-3.09967e-05	3.3432
1365.53	7	0.0118958	-4.44397e-05	3.32367
1367.6	7	-0.0295135	-5.896e-05	3.30475
1369.68	7	-0.0734863	-7.2113e-05	3.26508
1371.75	7	-0.114716	-8.27026e-05	3.22693
1373.83	7	-0.156158	-9.25598e-05	3.18726
1375.9	7	-0.197388	-0.00010379	3.12866
1377.98	7	-0.2388	-0.000117798	3.08929
1380.05	7	-0.280182	-0.000135468	2.99225
1382.13	7	-0.321594	-0.000158295	2.95258
1384.2	7	-0.362946	-0.00018576	2.83508
1386.28	7	-0.403992	-0.000216736	2.73834
1388.35	7	-0.445129	-0.000249146	2.6416
1390.43	7	-0.486237	-0.000281128	2.49939
1392.5	7	-0.527588	-0.000312622	2.40326
1394.58	7	-0.568848	-0.000341675	2.28546
1396.65	7	-0.610077	-0.000369629	2.1106
1398.73	7	-0.651428	-0.000396973	2.03125
1400.8	7	-0.692719	-0.00042511	1.8161
1402.88	7	-0.665894	-0.000305786	1.71844
1404.95	7	-0.62442	-0.000189148	1.64093
1407.03	7	-0.582947	-9.30786e-05	1.56128
1409.11	7	-0.541443	-1.14685e-05	1.54175
1411.18	7	-0.500092	5.79224e-05	1.52283
1413.26	7	-0.458557	0.000117432	1.54205
1415.33	7	-0.417084	0.000168793	1.56219
1417.41	7	-0.375641	0.000213013	1.60095
1419.48	7	-0.334198	0.000251099	1.65955
1421.56	7	-0.292786	0.000284332	1.73737
1423.63	7	-0.251404	0.000312592	1.81641
1425.71	7	-0.210144	0.000335999	1.95282
1427.78	7	-0.168823	0.00035202	2.09015
1429.86	7	-0.127625	0.000358063	2.22717
1431.93	7	-0.086731	0.000350555	2.46033
1434.01	7	-0.044043	0.000329407	2.71942
1436.08	7	-0.00260925	0.000295319	2.95288
1438.16	7	0.0388123	0.000247284	3.10974
1440.23	7	0.0775146	0.000183044	3.18756
1442.31	8	0.118774	0.000111176	3.26477
1444.38	8	0.160065	5.22461e-05	3.30353
1446.46	8	0.201263	1.80695e-05	3.3432
1448.53	8	0.242615	8.63342e-06	3.34351
1450.61	8	0.284088	5.97229e-06	3.3432
1452.68	8	0.325439	4.61426e-06	3.32306
1454.76	8	0.366791	3.75122e-06	3.34351
1456.83	8	0.408081	3.13507e-06	3.3429
1458.91	8	0.449463	2.68158e-06	3.32367
1460.99	8	0.490723	2.27051e-06	3.34259
1463.06	8	0.532104	2.02972e-06	3.3432
1465.14	8	0.573425	1.76056e-06	3.3432
1467.21	8	0.614685	1.64246e-06	3.3432
1469.29	8	0.656158	1.4444e-06	3.32336
1471.36	8	0.697449	1.41235e-06	3.34259
1473.44	8	0.73877	1.2381e-06	3.34259
1475.51	8	0.779114	1.22192e-06	3.34259
1477.59	8	0.820923	1.07697e-06	3.34259
1479.66	8	0.862732	1.06567e-06	3.3429
1481.74	8	0.904236	9.68933e-07	3.34259
1483.81	8	0.944824	9.42993e-07	3.34259
1485.89	8	0.986633	9.12476e-07	3.34198
1487.96	8	0.960083	7.43408e-07	3.34259
1490.04	8	0.918579	6.5033e-07	3.3429
1492.11	8	0.877075	5.70374e-07	3.3429
1494.19	8	0.835571	5.23682e-07	3.34229
1496.26	8	0.794067	4.55627e-07	3.3429
1498.34	8	0.752563	4.48303e-07	3.34259
1500.41	8	0.712128	3.48816e-07	3.32336
1502.49	8	0.670685	3.89099e-07	3.3429
1504.56	8	0.629364	2.98462e-07	3.3429
1506.64	8	0.588043	3.0365e-07	3.32367
1508.71	8	0.546722	2.61536e-07	3.3432
1510.79	8	0.50528	2.40784e-07	3.3432
1512.86	8	0.46405	2.23389e-07	3.3429
1514.94	8	0.422668	1.80969e-07	3.3429
1517.02	8	0.381378	1.9043e-07	3.3432
1519.09	8	0.340149	8.11768e-08	3.32489
1521.17	8	0.298492	9.18579e-08	3.3432
1523.24	8	0.257294	-1.18988e-07	3.3432
1525.32	8	0.216034	-6.6925e-07	3.32367
1527.39	8	0.174591	-3.06641e-06	3.32336
1529.47	8	0.133331	-9.729e-06	3.32397
1531.54	8	0.092041	-1.97937e-05	3.32428
1533.62	8	0.0505981	-3.15887e-05	3.32397
1535.69	8	0.0119446	-4.4986e-05	3.30414
1537.77	8	-0.0295441	-5.96008e-05	3.28491
1539.84	8	-0.0733643	-7.25708e-05	3.24585
1541.92	8	-0.114777	-8.32825e-05	3.20679
1543.99	8	-0.156067	-9.31091e-05	3.16833
1546.07	8	-0.197418	-0.000104492	3.10944
1548.14	8	-0.2388	-0.00011853	3.09021
1550.22	8	-0.280121	-0.000136383	3.03131
1552.29	8	-0.321503	-0.000159332	2.95319
1554.37	8	-0.363007	-0.000186859	2.85583
1556.44	8	-0.404266	-0.000218018	2.7774
1558.52	8	-0.445038	-0.000250366	2.62146
1560.59	8	-0.486328	-0.000282562	2.49939
1562.67	8	-0.527496	-0.000313904	2.36359
1564.74	8	-0.568756	-0.000343109	2.24701
1566.82	8	-0.610107	-0.00037085	2.10999
1568.89	8	-0.651367	-0.000398132	1.97296
1570.97	8	-0.692749	-0.000425812	1.83563
1573.05	8	-0.665863	-0.000306183	1.71844
1575.12	8	-0.624481	-0.000189178	1.6391
1577.2	8	-0.582947	-9.30176e-05	1.58173
1579.27	8	-0.541412	-1.12915e-05	1.50269
1581.35	8	-0.5	5.81665e-05	1.52283
1583.42	8	-0.458618	0.000117615	1.52252
1585.5	8	-0.417145	0.000169037	1.54236
1587.57	8	-0.37558	0.000213257	1.56097
1589.65	8	-0.33432	0.000251312	1.64032
1591.72	8	-0.292816	0.000284607	1.69861
1593.8	8	-0.251404	0.000312958	1.79657
1595.87	8	-0.210114	0.000336456	1.91345
1597.95	8	-0.168884	0.000352722	2.07031
1600.02	8	-0.127686	0.000359009	2.24701
1602.1	8	-0.0867615	0.000351868	2.46124
1604.17	8	-0.0439941	0.000330872	2.72003
1606.25	8	-0.0026062	0.000296875	2.9541
1608.32	8	0.0388214	0.000248901	3.11005
1610.4	8	0.0775452	0.00018454	3.20679
1612.47	9	0.118713	0.000112457	3.26538
1614.55	9	0.160156	5.31311e-05	3.30414
1616.62	9	0.201416	1.8338e-05	3.34381
1618.7	9	0.242828	8.69446e-06	3.32428
1620.77	9	0.284088	5.98145e-06	3.32428
1622.85	9	0.325378	4.66003e-06	3.3429
1624.93	9	0.366791	3.71552e-06	3.30444
1627	9	0.408112	3.15826e-06	3.32428
1629.08	9	0.449524	2.66083e-06	3.32397
1631.15	9	0.490753	2.28241e-06	3.32397
1633.23	9	0.532135	1.99554e-06	3.32397
1635.3	9	0.573486	1.76483e-06	3.32397
1637.38	9	0.614777	1.65558e-06	3.32428
1639.45	9	0.656128	1.4505e-06	3.32336
1641.53	9	0.697449	1.41418e-06	3.32458
1643.6	9	0.738861	1.25854e-06	3.32428
1645.68	9	0.779724	1.20178e-06	3.32367
1647.75	9	0.820923	1.1084e-06	3.34351
1649.83	9	0.862427	1.05957e-06	3.3432
1651.9	9	0.903931	9.8877e-07	3.3432
1653.98	9	0.945435	9.52454e-07	3.32458
1656.05	9	0.986633	9.13391e-07	3.34351
1658.13	9	0.960083	7.47375e-07	3.32397
1660.2	9	0.918579	6.65894e-07	3.30383
1662.28	9	0.87677	5.57556e-07	3.30383
1664.35	9	0.835571	5.42908e-07	3.34229
1666.43	9	0.794373	4.47693e-07	3.32458
1668.5	9	0.752258	4.43726e-07	3.32367
1670.58	9	0.712128	3.84827e-07	3.30383
1672.65	9	0.670715	3.54309e-07	3.34381
1674.73	9	0.629333	3.33557e-07	3.32397
1676.8	9	0.588043	2.85645e-07	3.32397
1678.88	9	0.546722	2.99988e-07	3.32367
1680.96	9	0.505341	2.09045e-07	3.32367
1683.03	9	0.46405	2.6123e-07	3.32428
1685.11	9	0.422791	1.68152e-07	3.34381
1687.18	9	0.381409	1.72119e-07	3.30353
1689.26	9	0.340057	1.24207e-07	3.34381
1691.33	9	0.298767	5.58472e-08	3.30444
1693.41	9	0.257416	-1.04584e-07	3.32397
1695.48	9	0.216003	-6.96716e-07	3.32428
1697.56	9	0.174713	-3.12469e-06	3.32489
1699.63	9	0.133301	-9.96094e-06	3.34381
1701.71	9	0.092041	-2.00928e-05	3.3252
1703.78	9	0.0506897	-3.19916e-05	3.3252
1705.86	9	0.0119904	-4.54987e-05	3.26599
1707.93	9	-0.0295471	-6.00281e-05	3.2663
1710.01	9	-0.0734558	-7.30286e-05	3.20648
1712.08	9	-0.114807	-8.37097e-05	3.18756
1714.16	9	-0.155975	-9.35974e-05	3.14819
1716.23	9	-0.197388	-0.000104919	3.0896
1718.31	9	-0.238708	-0.000119141	3.05115
1720.38	9	-0.28009	-0.000137024	2.97272
1722.46	9	-0.321472	-0.000160034	2.91504
1724.53	9	-0.362885	-0.000187714	2.81586
1726.61	9	-0.404327	-0.000218781	2.77802
1728.68	9	-0.445099	-0.000251373	2.64099
1730.76	9	-0.486359	-0.000283386	2.49969
1732.83	9	-0.527557	-0.00031488	2.36328
1734.91	9	-0.568817	-0.000343964	2.20703
1736.99	9	-0.610077	-0.000371704	2.14905
1739.06	9	-0.651398	-0.000398865	1.93359
1741.14	9	-0.69281	-0.0004263	1.87469
1743.21	9	-0.665924	-0.000306458	1.71844
1745.29	9	-0.62442	-0.000189117	1.64032
1747.36	9	-0.582977	-9.28955e-05	1.56189
1749.44	9	-0.541473	-1.10474e-05	1.54205
1751.51	9	-0.5	5.84106e-05	1.50269
1753.59	9	-0.458618	0.000117859	1.52252
1755.66	9	-0.417053	0.000169312	1.5036
1757.74	9	-0.37561	0.00021347	1.58081
1759.81	9	-0.334259	0.000251526	1.62079
1761.89	9	-0.292755	0.000284851	1.67908
1763.96	9	-0.251434	0.000313263	1.77734
1766.04	9	-0.210022	0.000336823	1.85516
1768.11	9	-0.168762	0.00035321	2.03125
1770.19	9	-0.127502	0.000359558	2.109375
1772.26	9	-0.0865173	0.000352539	2.32391
1774.34	9	-0.0440491	0.000331635	2.62146
1776.41	9	-0.00262451	0.000297668	2.87476
1778.49	9	0.0388733	0.000249542	3.03223
1780.56	9	0.0774841	0.000185181	3.12836
1782.64	10	0.118866	0.000112946	3.22662
1784.71	10	0.160034	5.35889e-05	3.2843
1786.79	10	0.201447	1.84723e-05	3.30383
1788.87	10	0.242676	8.77075e-06	3.30322
1790.94	10	0.283997	5.96924e-06	3.32336
1793.02	10	0.325409	4.66003e-06	3.30322
1795.09	10	0.366821	3.70758e-06	3.30292
1797.17	10	0.408173	3.14819e-06	3.30353
1799.24	10	0.449402	2.65289e-06	3.30353
1801.32	10	0.490814	2.26074e-06	3.30322
1803.39	10	0.532135	1.98853e-06	3.32306
1805.47	10	0.573456	1.77063e-06	3.32336
1807.54	10	0.614777	1.62842e-06	3.30322
1809.62	10	0.656067	1.45905e-06	3.30292
1811.69	10	0.697449	1.41571e-06	3.32336
1813.77	10	0.7388	1.24481e-06	3.3432
1815.84	10	0.779419	1.21338e-06	3.30322
1817.92	10	0.820923	1.1087e-06	3.30292
1819.99	10	0.862122	1.04523e-06	3.32275
1822.07	10	0.903931	9.96094e-07	3.32336
1824.14	10	0.945129	9.39331e-07	3.32306
1826.22	10	0.986633	9.23767e-07	3.32275
1828.29	10	0.960083	7.43103e-07	3.32214
1830.37	10	0.918274	6.67725e-07	3.34198
1832.44	10	0.877075	5.68848e-07	3.32306
1834.52	10	0.835571	5.35889e-07	3.302
1836.59	10	0.794373	4.6051e-07	3.32336
1838.67	10	0.752258	4.40063e-07	3.30353
1840.74	10	0.712036	3.85132e-07	3.32336
1842.82	10	0.670685	3.57361e-07	3.32336
1844.9	10	0.629364	3.30811e-07	3.30475
1846.97	10	0.588013	2.70996e-07	3.30322
1849.05	10	0.546722	3.14331e-07	3.30322
1851.12	10	0.505432	2.14539e-07	3.30353
1853.2	10	0.463989	2.36511e-07	3.30383
1855.27	10	0.422729	1.87988e-07	3.30383
1857.35	10	0.381409	1.6571e-07	3.32367
1859.42	10	0.340057	1.23291e-07	3.32367
1861.5	10	0.298676	5.34058e-08	3.30353
1863.57	10	0.257416	-1.05621e-07	3.32397
1865.65	10	0.216034	-7.36694e-07	3.32397
1867.72	10	0.174683	-3.15552e-06	3.32397
1869.8	10	0.133362	-1.01257e-05	3.34351
1871.87	10	0.092041	-2.03827e-05	3.30383
1873.95	10	0.0507507	-3.22845e-05	3.28461
1876.02	10	0.0119446	-4.59229e-05	3.28491
1878.1	10	-0.0295563	-6.03333e-05	3.26569
1880.17	10	-0.0734863	-7.33948e-05	3.22601
1882.25	10	-0.114746	-8.39844e-05	3.20709
1884.32	10	-0.156189	-9.39636e-05	3.16803
1886.4	10	-0.197418	-0.000105316	3.08929
1888.47	10	-0.2388	-0.000119598	3.03192
1890.55	10	-0.280182	-0.000137543	2.95319
1892.62	10	-0.321533	-0.000160675	2.87506
1894.7	10	-0.362885	-0.000188324	2.79724
1896.77	10	-0.404022	-0.000219482	2.73926
1898.85	10	-0.445038	-0.000252014	2.60284
1900.93	10	-0.486237	-0.00028418	2.46124
1903	10	-0.527435	-0.000315613	2.38312
1905.08	10	-0.568817	-0.000344666	2.2464
1907.15	10	-0.610046	-0.000372467	2.12921
1909.23	10	-0.651428	-0.000399414	1.99249
1911.3	10	-0.692719	-0.000426941	1.796875
1913.38	10	-0.7341	-0.000455627	1.67908
1915.45	10	-0.776062	-0.000486359	1.58112
1917.53	10	-0.783386	-0.000439026	1.5033
1919.6	10	-0.741425	-0.000308228	1.40442
1921.68	10	-0.699921	-0.000200775	1.30737
1923.75	10	-0.658447	-0.000108734	1.28784
1925.83	10	-0.617096	-2.78778e-05	1.26282
1927.9	10	-0.575562	4.29626e-05	1.24329
1929.98	10	-0.534119	0.000105682	1.26221
1932.05	10	-0.492615	0.000161285	1.26221
1934.13	10	-0.451202	0.000210236	1.30676
1936.2	10	-0.409668	0.000253174	1.34613
1938.28	10	-0.368317	0.000289978	1.38489
1940.35	10	-0.32666	0.000321625	1.4447
1942.43	10	-0.285278	0.000349121	1.52222
1944.5	10	-0.243866	0.000372711	1.62048
1946.58	10	-0.202515	0.000391998	1.71814
1948.65	10	-0.161285	0.000405945	1.83533
1950.73	10	-0.119965	0.000411896	1.97266
1952.81	10	-0.0790405	0.000406067	2.24609
1954.88	10	-0.0366516	0.000386322	2.49939
1956.96	10	0.004776	0.0003526	2.75757
1959.03	10	0.0461517	0.000304108	2.95349
1961.11	10	0.0847778	0.000235779	3.10883
1963.18	11	0.126099	0.000149445	3.20557
1965.26	11	0.16745	6.7688e-05	3.24524
1967.33	11	0.20871	2.08618e-05	3.28461
1969.41	11	0.250061	1.0321e-05	3.30353
1971.48	11	0.291382	7.28455e-06	3.284
1973.56	11	0.332764	5.62439e-06	3.26416
1975.63	11	0.374115	4.63257e-06	3.2843
1977.71	11	0.415405	3.88397e-06	3.284
1979.78	11	0.456726	3.36273e-06	3.30353
1981.86	11	0.498138	2.87506e-06	3.28369
1983.93	11	0.539398	2.5177e-06	3.30353
1986.01	11	0.580841	2.21527e-06	3.30353
1988.08	11	0.62207	2.05902e-06	3.30292
1990.16	11	0.663452	1.81763e-06	3.30292
1992.23	11	0.704834	1.7572e-06	3.28339
1994.31	11	0.744934	1.58691e-06	3.28339
1996.38	11	0.787048	1.50787e-06	3.28339
1998.46	11	0.827942	1.41113e-06	3.30261
2000.53	11	0.869751	1.32141e-06	3.30292
2002.61	11	0.91095	1.2616e-06	3.32245
2004.68	11	0.953064	1.1911e-06	3.30261
2006.76	11	0.993652	1.15326e-06	3.28278
2008.84	11	0.952454	9.28955e-07	3.30261
2010.91	11	0.91095	8.36487e-07	3.30292
2012.99	11	0.870056	7.29675e-07	3.30322
2015.06	11	0.828552	6.83899e-07	3.28369
2017.14	11	0.786438	5.83496e-07	3.28369
2019.21	11	0.745239	5.83496e-07	3.28369
2021.29	11	0.704834	4.70276e-07	3.284
2023.36	11	0.663391	5.00488e-07	3.30353
2025.44	11	0.62207	3.85437e-07	3.30383
2027.51	11	0.58078	4.23889e-07	3.30353
2029.59	11	0.539459	3.12805e-07	3.32367
2031.66	11	0.498047	3.54614e-07	3.284
2033.74	11	0.456787	2.62146e-07	3.28369
2035.81	11	0.415436	2.66113e-07	3.30383
2037.89	11	0.374176	2.03857e-07	3.284
2039.96	11	0.332764	1.74255e-07	3.284
2042.04	11	0.291443	7.78198e-08	3.30353
2044.11	11	0.250031	-1.32507e-07	3.284
2046.19	11	0.20871	-9.22852e-07	3.28461
2048.26	11	0.167389	-4.14825e-06	3.30383
2050.34	11	0.126129	-1.20148e-05	3.2843
2052.41	11	0.0847778	-2.27875e-05	3.2843
2054.49	11	0.0460846	-3.51105e-05	3.2843
2056.56	11	0.00463867	-4.90784e-05	3.26569
2058.64	11	-0.0367615	-6.3385e-05	3.22601
2060.71	11	-0.080719	-7.59888e-05	3.18726
2062.79	11	-0.122009	-8.63342e-05	3.16772
2064.87	11	-0.163391	-9.6405e-05	3.14819
2066.94	11	-0.204742	-0.000108459	3.09021
2069.02	11	-0.246063	-0.000123291	2.97302
2071.09	11	-0.287506	-0.000142334	2.93396
2073.17	11	-0.328857	-0.000166382	2.85583
2075.24	11	-0.370239	-0.000195038	2.81616
2077.32	11	-0.411072	-0.000226654	2.68005
2079.39	11	-0.452271	-0.000259277	2.56348
2081.47	11	-0.4935	-0.000291382	2.44141
2083.54	11	-0.53476	-0.000322479	2.32483
2085.62	11	-0.575989	-0.0003515625	2.16888
2087.69	11	-0.61734	-0.000379089	2.052
2089.77	11	-0.6586	-0.000406342	1.91437
2091.84	11	-0.700043	-0.000433838	1.75812
2093.92	11	-0.741486	-0.000462677	1.65955
2095.99	11	-0.783691	-0.000493286	1.56219
2098.07	11	-0.776062	-0.000414215	1.42426
2100.14	11	-0.7341	-0.000288116	1.36566
2102.22	11	-0.692627	-0.000183502	1.3269
2104.29	11	-0.651093	-9.36279e-05	1.26373
2106.37	11	-0.60968	-1.45325e-05	1.26251
2108.44	11	-0.568329	5.48706e-05	1.22375
2110.52	11	-0.526794	0.000116119	1.24329
2112.59	11	-0.485352	0.000170593	1.26282
2114.67	11	-0.443848	0.000218475	1.28693
2116.75	11	-0.402313	0.000260193	1.3266
2118.82	11	-0.360992	0.000296234	1.36505
2120.9	11	-0.319458	0.000326965	1.4444
2122.97	11	-0.277893	0.000353943	1.50391
2125.05	11	-0.236633	0.00037677	1.62048
2127.12	11	-0.195282	0.000395538	1.75812
2129.2	11	-0.153961	0.000408325	1.89392
2131.27	11	-0.112885	0.000412781	2.07092
2133.35	11	-0.0717163	0.000404785	2.20642
2135.42	11	-0.0292816	0.00038269	2.4411
2137.5	11	0.0121246	0.000346619	2.71942
2139.57	11	0.0508118	0.000294861	2.93335
2141.65	11	0.0921326	0.000222809	3.08929
2143.72	12	0.133453	0.000134644	3.18726
2145.8	12	0.174713	5.70374e-05	3.26477
2147.87	12	0.216095	1.76758e-05	3.26477
2149.95	12	0.257355	9.61304e-06	3.26447
2152.02	12	0.298676	6.86035e-06	3.28491
2154.1	12	0.340027	5.42908e-06	3.2843
2156.17	12	0.381409	4.46472e-06	3.2843
2158.25	12	0.42276	3.79059e-06	3.2843
2160.32	12	0.46405	3.24493e-06	3.284
2162.4	12	0.505402	2.78046e-06	3.284
2164.47	12	0.546722	2.42767e-06	3.28369
2166.55	12	0.588074	2.18781e-06	3.30322
2168.62	12	0.629333	1.98761e-06	3.284
2170.7	12	0.670715	1.8335e-06	3.28369
2172.78	12	0.712097	1.70074e-06	3.28339
2174.85	12	0.752869	1.60004e-06	3.28369
2176.93	12	0.794067	1.48712e-06	3.28339
2179	12	0.835571	1.41113e-06	3.30322
2181.08	12	0.877075	1.30096e-06	3.284
2183.15	12	0.918274	1.29608e-06	3.30261
2185.23	12	0.959778	1.16272e-06	3.28308
2187.3	12	0.986633	1.138e-06	3.28339
2189.38	12	0.945129	8.92029e-07	3.28369
2191.45	12	0.904236	8.46863e-07	3.284
2193.53	12	0.862122	7.15027e-07	3.2843
2195.6	12	0.821228	6.65894e-07	3.2843
2197.68	12	0.779724	6.04248e-07	3.30292
2199.75	12	0.738861	5.45349e-07	3.28369
2201.83	12	0.697418	5.1178e-07	3.26477
2203.9	12	0.656097	4.48608e-07	3.284
2205.98	12	0.614777	4.41589e-07	3.26447
2208.05	12	0.573456	3.55225e-07	3.28369
2210.13	12	0.532074	3.88794e-07	3.30292
2212.2	12	0.490814	2.77405e-07	3.28369
2214.28	12	0.449402	3.17993e-07	3.2843
2216.35	12	0.408203	2.32849e-07	3.26447
2218.43	12	0.366821	2.15149e-07	3.2843
2220.5	12	0.325195	1.63879e-07	3.28369
2222.58	12	0.284149	5.859375E-08	3.284
2224.65	12	0.243439	-2.13623e-07	3.28339
2226.73	12	0.202087	-1.24603e-06	3.2843
2228.81	12	0.160706	-5.32532e-06	3.30353
2230.88	12	0.118286	-1.40228e-05	3.28461
2232.96	12	0.0768738	-2.5235e-05	3.26477
2235.03	12	0.0388092	-3.78479e-05	3.28491
2237.11	12	-0.00240784	-5.22156e-05	3.24615
2239.18	12	-0.0447235	-6.61316e-05	3.22693
2241.26	12	-0.0882568	-7.84302e-05	3.18817
2243.33	12	-0.129944	-8.85315e-05	3.14789
2245.41	12	-0.170441	-9.89075e-05	3.10913
2247.48	12	-0.211334	-0.000111481	3.05084
2249.56	12	-0.252747	-0.000127014	2.99255
2251.63	12	-0.295197	-0.000147064	2.95319
2253.71	12	-0.336151	-0.000172119	2.87537
2255.78	12	-0.37793	-0.000201447	2.7774
2257.86	12	-0.417908	-0.000233521	2.68036
2259.93	12	-0.459198	-0.000266174	2.5827
2262.01	12	-0.5	-0.000298126	2.36359
2264.08	12	-0.542145	-0.00032901	2.26624
2266.16	12	-0.582703	-0.000357819	2.13013
2268.23	12	-0.625305	-0.000385315	2.03094
2270.31	12	-0.666229	-0.000412476	1.89392
2272.38	12	-0.707031	-0.000440186	1.75781
2274.46	12	-0.748566	-0.000469116	1.65985
2276.53	12	-0.789795	-0.000500183	1.54205
2278.61	12	-0.768433	-0.00039035	1.4444
2280.69	12	-0.727356	-0.000268555	1.34583
2282.76	12	-0.684723	-0.000166473	1.28754
2284.84	12	-0.644501	-7.87659e-05	1.26251
2286.91	12	-0.602478	-1.22833e-06	1.24298
2288.99	12	-0.560699	6.66199e-05	1.24359
2291.06	12	-0.519257	0.000126709	1.24359
2293.14	12	-0.477692	0.00017984	1.26251
2295.21	12	-0.437134	0.000226746	1.30707
2297.29	12	-0.395813	0.000267273	1.32568
2299.36	12	-0.354004	0.000302124	1.3855
2301.44	12	-0.312897	0.000332367	1.46393
2303.51	12	-0.269897	0.000358673	1.56158
2305.59	12	-0.228638	0.00038089	1.640625
2307.66	12	-0.188171	0.000398743	1.75812
2309.74	12	-0.1474	0.0004104	1.91406
2311.81	12	-0.10556	0.000412781	2.09045
2313.89	12	-0.065094	0.000402374	2.28516
2315.96	12	-0.0218414	0.000377563	2.49969
2318.04	12	0.0196381	0.000338867	2.79694
2320.11	12	0.0583801	0.000283508	2.99194
2322.19	13	0.098877	0.000207458	3.0899
2324.26	13	0.14032	0.000118713	3.20648
2326.34	13	0.182434	4.65271e-05	3.24585
2328.41	13	0.222717	1.52771e-05	3.26599
2330.49	13	0.264038	8.8623e-06	3.24554
2332.56	13	0.305328	6.53076e-06	3.26508
2334.64	13	0.347382	5.2124e-06	3.26477
2336.72	13	0.388153	4.28375e-06	3.26477
2338.79	13	0.430237	3.6853e-06	3.26447
2340.87	13	0.472076	3.08563e-06	3.24493
2342.94	13	0.513428	2.71088e-06	3.26416
2345.02	13	0.554718	2.33398e-06	3.26447
2347.09	13	0.59494	2.14203e-06	3.28461
2349.17	13	0.636322	1.94061e-06	3.26538
2351.24	13	0.677551	1.80298e-06	3.26477
2353.32	13	0.719299	1.68182e-06	3.24524
2355.39	13	0.761108	1.56616e-06	3.284
2357.47	13	0.802002	1.48651e-06	3.28369
2359.54	13	0.842896	1.36963e-06	3.26416
2361.62	13	0.885315	1.34827e-06	3.26508
2363.69	13	0.926514	1.20941e-06	3.26416
2365.77	13	0.967712	1.20941e-06	3.26324
2367.84	13	0.979919	1.05499e-06	3.26416
2369.92	13	0.93811	8.98132e-07	3.26385
2371.99	13	0.896301	8.3252e-07	3.26355
2374.07	13	0.854492	6.88477e-07	3.26447
2376.14	13	0.812683	6.90308e-07	3.24463
2378.22	13	0.772705	5.85632e-07	3.26477
2380.29	13	0.732361	5.3894e-07	3.24493
2382.37	13	0.689667	5.09338e-07	3.28369
2384.44	13	0.648743	4.40979e-07	3.26477
2386.52	13	0.606934	4.50439e-07	3.26447
2388.59	13	0.566925	3.40271e-07	3.24524
2390.67	13	0.524506	3.58582e-07	3.28369
2392.75	13	0.483337	3.14636e-07	3.28369
2394.82	13	0.442505	2.75879e-07	3.2843
2396.9	13	0.400177	2.57568e-07	3.2843
2398.97	13	0.360229	1.89819e-07	3.24463
2401.05	13	0.317871	1.84021e-07	3.26416
2403.12	13	0.276276	-1.07117e-08	3.2843
2405.2	13	0.234924	-2.80579e-07	3.26508
2407.27	13	0.194794	-1.69891e-06	3.26538
2409.35	13	0.152924	-6.67419e-06	3.26477
2411.42	13	0.111145	-1.61438e-05	3.24646
2413.5	13	0.0695496	-2.76672e-05	3.26538
2415.57	13	0.0313354	-4.07043e-05	3.24707
2417.65	13	-0.0107178	-5.51453e-05	3.22632
2419.72	13	-0.0534363	-6.88171e-05	3.2077
2421.8	13	-0.0960083	-8.07495e-05	3.14789
2423.87	13	-0.136108	-9.06067e-05	3.12805
2425.95	13	-0.178101	-0.000101471	3.05084
2428.02	13	-0.219635	-0.00011441	3.05145
2430.1	13	-0.261139	-0.000130829	2.95349
2432.17	13	-0.302429	-0.000151611	2.8949
2434.25	13	-0.342743	-0.000177643	2.83569
2436.32	13	-0.384796	-0.00020752	2.73895
2438.4	13	-0.425781	-0.000239899	2.6413
2440.47	13	-0.466309	-0.0002724	2.54425
2442.55	13	-0.507355	-0.0003046875	2.40295
2444.63	13	-0.548645	-0.000334656	2.26624
2446.7	13	-0.59024	-0.000363098	2.14844
2448.78	13	-0.63147	-0.000390503	2.01172
2450.85	13	-0.673279	-0.000417633	1.89453
2452.93	13	-0.713959	-0.000445465	1.73828
2455	13	-0.757751	-0.000474518	1.6217
2457.08	13	-0.799255	-0.000505981	1.50299
2459.15	13	-0.840149	-0.000539856	1.40503
2461.23	13	-0.880737	-0.000577087	1.30737
2463.3	13	-0.877686	-0.000513916	1.22375
2465.38	13	-0.835571	-0.000385986	1.14563
2467.45	13	-0.794678	-0.000277618	1.10596
2469.53	13	-0.752869	-0.000182617	1.08673
2471.6	13	-0.71167	-9.80835e-05	1.04767
2473.68	13	-0.670685	-2.1283e-05	1.04797
2475.75	13	-0.62854	4.7348e-05	1.04767
2477.83	13	-0.588379	0.000109894	1.0675
2479.9	13	-0.546417	0.000166473	1.06689
2481.98	13	-0.50412	0.000217834	1.08673
2484.05	13	-0.463989	0.000263977	1.1264
2486.13	13	-0.421204	0.000304291	1.16486
2488.2	13	-0.379639	0.000340363	1.20392
2490.28	13	-0.338806	0.000371429	1.2616
2492.35	13	-0.297058	0.000398193	1.34583
2494.43	13	-0.256104	0.000420715	1.42395
2496.5	13	-0.215057	0.000439941	1.54205
2498.58	13	-0.173492	0.000455505	1.64032
2500.66	13	-0.132446	0.000466614	1.77704
2502.73	13	-0.09021	0.000470581	1.95282
2504.81	13	-0.0482971	0.000463745	2.14844
2506.88	13	-0.00674438	0.000442902	2.40295
2508.96	13	0.0334961	0.000405212	2.68036
2511.03	13	0.0730896	0.000347809	2.91443
2513.11	14	0.114685	0.000265259	3.07037
2515.18	14	0.156006	0.000158661	3.18787
2517.26	14	0.196472	5.66406e-05	3.22571
2519.33	14	0.237732	1.83502e-05	3.24585
2521.41	14	0.279938	1.1615e-05	3.24554
2523.48	14	0.319946	8.76465e-06	3.24554
2525.56	14	0.361481	7.08923e-06	3.24524
2527.63	14	0.402679	5.88074e-06	3.24493
2529.71	14	0.445221	5.078125E-06	3.26416
2531.78	14	0.485809	4.30603e-06	3.26447
2533.86	14	0.526886	3.79547e-06	3.24493
2535.93	14	0.567993	3.27606e-06	3.26416
2538.01	14	0.610504	3.02185e-06	3.26447
2540.08	14	0.651428	2.68951e-06	3.24524
2542.16	14	0.693146	2.55524e-06	3.26477
2544.23	14	0.734192	2.30927e-06	3.24463
2546.31	14	0.774231	2.23816e-06	3.24432
2548.38	14	0.81604	2.02515e-06	3.26385
2550.46	14	0.858459	1.9754e-06	3.24524
2552.53	14	0.899353	1.80328e-06	3.24493
2554.61	14	0.940247	1.74072e-06	3.22479
2556.69	14	0.98114	1.64246e-06	3.22479
2558.76	14	0.964355	1.41937e-06	3.24402
2560.84	14	0.923157	1.26923e-06	3.24432
2562.91	14	0.882263	1.07269e-06	3.24402
2564.99	14	0.841064	1.03668e-06	3.24463
2567.06	14	0.798645	9.1217e-07	3.2251
2569.14	14	0.757751	8.58765e-07	3.24524
2571.21	14	0.716522	7.74536e-07	3.24493
2573.29	14	0.675262	7.15332e-07	3.24493
2575.36	14	0.633728	6.64368e-07	3.24524
2577.44	14	0.592316	5.87463e-07	3.26447
2579.51	14	0.552216	5.85327e-07	3.24524
2581.59	14	0.510223	4.73328e-07	3.26477
2583.66	14	0.469574	5.078125E-07	3.24493
2585.74	14	0.427734	3.97949e-07	3.22571
2587.81	14	0.386749	3.9093e-07	3.22571
2589.89	14	0.345428	3.16162e-07	3.24493
2591.96	14	0.302979	2.5238e-07	3.24493
2594.04	14	0.261688	6.37817e-08	3.26508
2596.11	14	0.221588	-4.93469e-07	3.24493
2598.19	14	0.179047	-2.83295e-06	3.24554
2600.26	14	0.137817	-9.77783e-06	3.24524
2602.34	14	0.097229	-2.03339e-05	3.22601
2604.41	14	0.0549622	-3.2608e-05	3.22601
2606.49	14	0.0162018	-4.61761e-05	3.20679
2608.57	14	-0.025058	-6.06079e-05	3.18756
2610.64	14	-0.0678406	-7.3761e-05	3.16803
2612.72	14	-0.109436	-8.48389e-05	3.12836
2614.79	14	-0.151794	-9.47876e-05	3.10913
2616.87	14	-0.193024	-0.000106445	3.03162
2618.94	14	-0.234344	-0.000120544	2.97272
2621.02	14	-0.274597	-0.000138489	2.89459
2623.09	14	-0.316498	-0.000161377	2.83539
2625.17	14	-0.358459	-0.000188904	2.75818
2627.24	14	-0.399139	-0.000220032	2.68036
2629.32	14	-0.440643	-0.000252594	2.54425
2631.39	14	-0.480743	-0.000285126	2.44171
2633.47	14	-0.522949	-0.000316742	2.28546
2635.54	14	-0.56366	-0.000346375	2.1875
2637.62	14	-0.604614	-0.00037442	2.05109
2639.69	14	-0.645905	-0.000401825	1.91406
2641.77	14	-0.688385	-0.00042926	1.796875
2643.84	14	-0.72934	-0.000457581	1.66016
2645.92	14	-0.770264	-0.000487396	1.54175
2647.99	14	-0.812988	-0.000519409	1.42426
2650.07	14	-0.854492	-0.000553894	1.34644
2652.14	14	-0.894775	-0.000591736	1.28754
2654.22	14	-0.863953	-0.000465851	1.20453
2656.29	14	-0.822144	-0.000345734	1.1261
2658.37	14	-0.779419	-0.000242554	1.08704
2660.44	14	-0.739227	-0.000151428	1.08734
2662.52	14	-0.697845	-6.94885e-05	1.04828
2664.6	14	-0.656616	3.72528e-06	1.02814
2666.67	14	-0.614838	7.00684e-05	1.02814
2668.75	14	-0.5737	0.000130157	1.0672
2670.82	14	-0.531769	0.000184814	1.06689
2672.9	14	-0.489502	0.0002341	1.08704
2674.97	14	-0.448944	0.000278381	1.12671
2677.05	14	-0.406494	0.000316925	1.16547
2679.12	14	-0.366058	0.000351318	1.20422
2681.2	14	-0.324738	0.000380829	1.26221
2683.27	14	-0.282501	0.000406128	1.36536
2685.35	14	-0.240784	0.000427643	1.44379
2687.42	14	-0.19928	0.000445648	1.54236
2689.5	14	-0.159302	0.000460144	1.69891
2691.57	14	-0.118042	0.000469269	1.83533
2693.65	14	-0.0765076	0.000470245	2.03094
2695.72	14	-0.0343567	0.000459137	2.2467
2697.8	14	0.00651245	0.000433075	2.54364
2699.87	14	0.0490997	0.000389282	2.77771
2701.95	14	0.0872803	0.000324066	2.95319
2704.02	15	0.12796	0.000233032	3.09021
2706.1	15	0.170471	0.000122406	3.16772
2708.17	15	0.211182	3.50525e-05	3.2254
2710.25	15	0.252167	1.51733e-05	3.22571
2712.32	15	0.294434	1.04156e-05	3.22662
2714.4	15	0.335846	8.08105e-06	3.20648
2716.48	15	0.376129	6.63147e-06	3.22632
2718.55	15	0.417328	5.57861e-06	3.22601
2720.63	15	0.458832	4.76074e-06	3.2254
2722.7	15	0.50061	4.12964e-06	3.22571
2724.78	15	0.541351	3.57941e-06	3.24493
2726.85	15	0.582642	3.25043e-06	3.22571
2728.93	15	0.625122	2.87567e-06	3.24493
2731	15	0.66568	2.70447e-06	3.2251
2733.08	15	0.707794	2.43713e-06	3.2254
2735.15	15	0.748291	2.3468e-06	3.2251
2737.23	15	0.787964	2.13928e-06	3.2254
2739.3	15	0.831604	2.05933e-06	3.24524
2741.38	15	0.871582	1.9046e-06	3.22479
2743.45	15	0.912781	1.81976e-06	3.22571
2745.53	15	0.955505	1.71478e-06	3.22479
2747.6	15	0.991821	1.62201e-06	3.2251
2749.68	15	0.950317	1.37573e-06	3.2254
2751.75	15	0.909119	1.19965e-06	3.20526
2753.83	15	0.866394	1.11084e-06	3.2251
2755.9	15	0.826111	9.46045e-07	3.24554
2757.98	15	0.783386	9.50928e-07	3.26416
2760.05	15	0.743225	8.04443e-07	3.22479
2762.13	15	0.701721	7.83997e-07	3.22571
2764.2	15	0.661011	6.96411e-07	3.20679
2766.28	15	0.620087	6.61316e-07	3.22571
2768.35	15	0.578552	5.95093e-07	3.24585
2770.43	15	0.537567	5.49011e-07	3.24524
2772.51	15	0.496552	5.18494e-07	3.2074
2774.58	15	0.453827	4.23889e-07	3.22662
2776.66	15	0.412598	4.59595e-07	3.22662
2778.73	15	0.371521	3.32947e-07	3.20709
2780.81	15	0.330139	3.33862e-07	3.2074
2782.88	15	0.28949	1.96533e-07	3.22662
2784.96	15	0.247681	-5.11169e-08	3.24615
2787.03	15	0.206299	-9.86938e-07	3.22601
2789.11	15	0.165283	-4.82178e-06	3.22601
2791.18	15	0.12326	-1.35071e-05	3.22662
2793.26	15	0.0825806	-2.49298e-05	3.20709
2795.33	15	0.0443329	-3.76831e-05	3.18817
2797.41	15	0.00157471	-5.19409e-05	3.18695
2799.48	15	-0.0398468	-6.58264e-05	3.1488
2801.56	15	-0.0826721	-7.85522e-05	3.10852
2803.63	15	-0.124023	-8.87756e-05	3.07037
2805.71	15	-0.166443	-9.93652e-05	3.03253
2807.78	15	-0.207794	-0.000111694	2.99286
2809.86	15	-0.247833	-0.000127228	2.91443
2811.93	15	-0.289398	-0.00014679	2.8363
2814.01	15	-0.330994	-0.00017157	2.77802
2816.08	15	-0.371765	-0.000200562	2.68097
2818.16	15	-0.412872	-0.000232574	2.5824
2820.23	15	-0.454437	-0.000265259	2.4408
2822.31	15	-0.496094	-0.000297424	2.34436
2824.38	15	-0.537567	-0.000328583	2.18719
2826.46	15	-0.578827	-0.000357666	2.09106
2828.54	15	-0.619507	-0.000385406	1.91406
2830.61	15	-0.660736	-0.000412903	1.79749
2832.69	15	-0.702881	-0.000440552	1.67847
2834.76	15	-0.744019	-0.000469421	1.5625
2836.84	15	-0.785828	-0.000499878	1.44531
2838.91	15	-0.827332	-0.000532837	1.34644
2840.99	15	-0.86792	-0.000568237	1.26251
2843.06	15	-0.889587	-0.000558777	1.20514
2845.14	15	-0.849304	-0.000421509	1.1264
2847.21	15	-0.806885	-0.000307709	1.08795
2849.29	15	-0.766907	-0.000208893	1.06812
2851.36	15	-0.724854	-0.000121277	1.04828
2853.44	15	-0.683014	-4.22485e-05	1.02875
2855.51	15	-0.641754	2.85858e-05	1.02936
2857.59	15	-0.599243	9.25598e-05	1.04858
2859.66	15	-0.558899	0.000150665	1.06781
2861.74	15	-0.517487	0.000203308	1.08673
2863.81	15	-0.475555	0.000250885	1.10687
2865.89	15	-0.433502	0.000292999	1.14655
2867.96	15	-0.39209	0.000329987	1.18439
2870.04	15	-0.3508	0.000362579	1.25885
2872.11	15	-0.310272	0.000390533	1.32721
2874.19	15	-0.268829	0.000414429	1.40533
2876.26	15	-0.227234	0.000434723	1.5033
2878.34	15	-0.184692	0.000451721	1.640625
2880.42	15	-0.144562	0.000464508	1.77795
2882.49	15	-0.103638	0.000471344	1.93359
2884.57	15	-0.0613098	0.000468414	2.14844
2886.64	15	-0.0197327	0.00045224	2.40387
2888.72	15	0.0213287	0.000419983	2.68097
2890.79	15	0.0611572	0.000368683	2.91443
2892.87	16	0.102142	0.000294128	3.03223
2894.94	16	0.142578	0.000194031	3.14819
2897.02	16	0.184753	8.48083e-05	3.18787
2899.09	16	0.225403	2.31018e-05	3.2074
2901.17	16	0.267792	1.29303e-05	3.22662
2903.24	16	0.307892	9.24072e-06	3.18817
2905.32	16	0.350372	7.4585e-06	3.22662
2907.39	16	0.391052	6.12488e-06	3.18756
2909.47	16	0.432495	5.2002e-06	3.20587
2911.54	16	0.474152	4.44336e-06	3.22601
2913.62	16	0.514679	3.84155e-06	3.22601
2915.69	16	0.556152	3.39722e-06	3.22662
2917.77	16	0.597168	3.05023e-06	3.22632
2919.84	16	0.639374	2.78137e-06	3.18726
2921.92	16	0.680267	2.56927e-06	3.20648
2923.99	16	0.722198	2.40265e-06	3.20618
2926.07	16	0.762329	2.24335e-06	3.20557
2928.14	16	0.803223	2.12372e-06	3.20648
2930.22	16	0.845032	1.97693e-06	3.18695
2932.29	16	0.887756	1.88751e-06	3.20557
2934.37	16	0.92804	1.77734e-06	3.20618
2936.45	16	0.970764	1.68823e-06	3.22601
2938.03	16	0.987549	1.54358e-06	3.20618