File: Edgar/20230810 (1)/WO3_ITO_20230717_H/CA_2
Time (s)	WE(1).Potential (V)	WE(1).Current (A)
41.0452	-0.699799	-0.00271912
41.2452	-0.698883	-0.00239471
41.4452	-0.698975	-0.00244659
41.6452	-0.698822	-0.00255768
41.8452	-0.698975	-0.00266022
42.0452	-0.698761	-0.00274078
42.2452	-0.698883	-0.00279846
42.4452	-0.698608	-0.00283691
42.6452	-0.698608	-0.00286011
42.8452	-0.698578	-0.00287201
43.0452	-0.699005	-0.00287537
43.2452	-0.6987	-0.00287262
43.4452	-0.699005	-0.0028653
43.6452	-0.6987	-0.00285522
43.8452	-0.698944	-0.00284302
44.0452	-0.698669	-0.00282959
44.2452	-0.699005	-0.00281616
44.4452	-0.698608	-0.00280243
44.6452	-0.698792	-0.0027887
44.8452	-0.6987	-0.00277557
45.0452	-0.698853	-0.00276245
45.2452	-0.698639	-0.00274963
45.4452	-0.698944	-0.00273682
45.6452	-0.698639	-0.00272461
45.8452	-0.698944	-0.0027121
46.0452	-0.699036	-0.00269989
46.2452	-0.698883	-0.00268738
46.4452	-0.6987	-0.00267517
46.6452	-0.698975	-0.00266327
46.8452	-0.698944	-0.00265106
47.0452	-0.698975	-0.00263885
47.2452	-0.698669	-0.00262665
47.4452	-0.698944	-0.00261536
47.6452	-0.698669	-0.00260345
47.8452	-0.698914	-0.00259155
48.0452	-0.6987	-0.00257996
48.2452	-0.698944	-0.00256836
48.4452	-0.698944	-0.00255707
48.6452	-0.698944	-0.00254547
48.8452	-0.699066	-0.00253387
49.0452	-0.698822	-0.00252228
49.2452	-0.699066	-0.00251129
49.4452	-0.699127	-0.00250031
49.6452	-0.699036	-0.00248901
49.8452	-0.69873	-0.00247803
50.0452	-0.699005	-0.00246735
50.2452	-0.698639	-0.00245636
50.4452	-0.698975	-0.00244537
50.6452	-0.699219	-0.002435
50.8452	-0.699066	-0.00242432
51.0452	-0.698883	-0.00241394
51.2452	-0.699066	-0.00240295
51.4452	-0.69873	-0.00239258
51.6452	-0.698883	-0.00238281
51.8452	-0.699188	-0.00237274
52.0452	-0.698853	-0.00236237
52.2452	-0.69873	-0.00235229
52.4452	-0.699066	-0.00234253
52.6452	-0.699036	-0.00233276
52.8452	-0.698944	-0.002323
53.0452	-0.699097	-0.00231323
53.2452	-0.699005	-0.00230347
53.4452	-0.698761	-0.00229401
53.6452	-0.698792	-0.00228455
53.8452	-0.699188	-0.00227509
54.0452	-0.698944	-0.00226593
54.2452	-0.699005	-0.00225647
54.4452	-0.698975	-0.00224731
54.6452	-0.699097	-0.00223846
54.8452	-0.698822	-0.00222961
55.0452	-0.698975	-0.00222076
55.2452	-0.699219	-0.00221191
55.4452	-0.698914	-0.00220306
55.6452	-0.699219	-0.00219421
55.8452	-0.698853	-0.00218597
56.0452	-0.699188	-0.00217773
56.2452	-0.698883	-0.00216949
56.4452	-0.699097	-0.00216125
56.6452	-0.699036	-0.00215271
56.8452	-0.699127	-0.00214478
57.0452	-0.698822	-0.00213654
57.2452	-0.698975	-0.0021286
57.4452	-0.699158	-0.00212067
57.6452	-0.698853	-0.00211273
57.8452	-0.698761	-0.0021051
58.0452	-0.699036	-0.00209747
58.2452	-0.699158	-0.00208984
58.4452	-0.699249	-0.00208221
58.6452	-0.698761	-0.00207458
58.8452	-0.698914	-0.00206696
59.0452	-0.698792	-0.00205963
59.2452	-0.699036	-0.00205261
59.4452	-0.698853	-0.00201447
59.6452	-0.699127	-0.00202209
59.8452	-0.698761	-0.00201904
60.0452	-0.698944	-0.00201416
60.2452	-0.698822	-0.00200836
60.4452	-0.699127	-0.00200287
60.6452	-0.699127	-0.00199707
60.8452	-0.699005	-0.00199127
61.0452	-0.699005	-0.00198486
61.2452	-0.699097	-0.00197937
61.4452	-0.699219	-0.00197327
61.6452	-0.698975	-0.00196716
61.8452	-0.699005	-0.00196136
62.0452	-0.699158	-0.00195557
62.2452	-0.699188	-0.00194946
62.4452	-0.698944	-0.00194366
62.6452	-0.698853	-0.00193817
62.8452	-0.699097	-0.00193207
63.0452	-0.699005	-0.00192627
63.2452	-0.699158	-0.00192047
63.4452	-0.698914	-0.00191437
63.6452	-0.699219	-0.00190857
63.8452	-0.698944	-0.00190308
64.0452	-0.698914	-0.00189758
64.2452	-0.698975	-0.00189117
64.4452	-0.699005	-0.00188599
64.6452	-0.699066	-0.00187958
64.8452	-0.698914	-0.00187439
65.0452	-0.699219	-0.0018689
65.2452	-0.699219	-0.0018634
65.4452	-0.698792	-0.00185791
65.6452	-0.699219	-0.00185242
65.8452	-0.698822	-0.00184692
66.0452	-0.698853	-0.00184174
66.2452	-0.699127	-0.00183655
66.4452	-0.698883	-0.00183105
66.6452	-0.698883	-0.00182587
66.8452	-0.699005	-0.00182068
67.0452	-0.698975	-0.00181549
67.2452	-0.699066	-0.00180756
67.4452	-0.699066	-0.00180298
67.6452	-0.699005	-0.00179871
67.8452	-0.699249	-0.00179413
68.0452	-0.698822	-0.00178925
68.2452	-0.698883	-0.00178467
68.4452	-0.69928	-0.00177979
68.6452	-0.698883	-0.00177521
68.8452	-0.698822	-0.00177063
69.0452	-0.69928	-0.00176361
69.2452	-0.698975	-0.00175903
69.4452	-0.699127	-0.00175476
69.6452	-0.698975	-0.00175079
69.8452	-0.699219	-0.00174652
70.0452	-0.699036	-0.00174225
70.2452	-0.698853	-0.00173798
70.4452	-0.699036	-0.0017334
70.6452	-0.699249	-0.00172943
70.8452	-0.69931	-0.00172516
71.0452	-0.698883	-0.00172058
71.2452	-0.699158	-0.00171631
71.4452	-0.698822	-0.00171204
71.6452	-0.699249	-0.00170776
71.8452	-0.698853	-0.00170349
72.0452	-0.699005	-0.00169922
72.2452	-0.69928	-0.00169159
72.4452	-0.699036	-0.00168854
72.6452	-0.69928	-0.00168518
72.8452	-0.69931	-0.00168152
73.0452	-0.699249	-0.00167786
73.2452	-0.698883	-0.00167389
73.4452	-0.69931	-0.00167023
73.6452	-0.699036	-0.00166626
73.8452	-0.699249	-0.00166229
74.0452	-0.698975	-0.00165863
74.2452	-0.698944	-0.00165466
74.4452	-0.699158	-0.001651
74.6452	-0.699005	-0.00164703
74.8452	-0.698944	-0.00164337
75.0452	-0.698822	-0.00163971
75.2452	-0.699371	-0.00163055
75.4452	-0.698975	-0.00162872
75.6452	-0.699249	-0.00162628
75.8452	-0.698944	-0.00162354
76.0452	-0.699097	-0.00162079
76.2452	-0.698853	-0.00161804
76.4452	-0.699036	-0.00161469
76.6452	-0.699249	-0.00161133
76.8452	-0.698883	-0.00160797
77.0452	-0.69928	-0.00160431
77.2452	-0.698883	-0.00160095
77.4452	-0.69931	-0.0015976
77.6452	-0.699188	-0.00159424
77.8452	-0.699188	-0.00159119
78.0452	-0.699066	-0.00158722
78.2452	-0.699249	-0.00158417
78.4452	-0.69928	-0.00158112
78.6452	-0.698853	-0.00157776
78.8452	-0.699158	-0.00157471
79.0452	-0.698944	-0.00157166
79.2452	-0.699097	-0.0015683
79.4452	-0.699158	-0.00156555
79.6452	-0.699158	-0.0015625
79.8452	-0.69931	-0.00155426
80.0452	-0.699005	-0.00155548
80.2452	-0.698944	-0.00155243
80.4452	-0.69931	-0.00154968
80.6452	-0.699066	-0.00154633
80.8452	-0.699371	-0.00154358
81.0452	-0.699097	-0.00154083
81.2452	-0.699005	-0.00153778
81.4452	-0.699249	-0.00153473
81.6452	-0.699158	-0.00153198
81.8452	-0.699036	-0.00152924
82.0452	-0.699036	-0.00152618
82.2452	-0.699005	-0.00152344
82.4452	-0.699066	-0.00152039
82.6452	-0.698944	-0.00151367
82.8452	-0.69931	-0.00151398
83.0452	-0.69928	-0.00151184
83.2452	-0.698883	-0.00150909
83.4452	-0.69928	-0.00150665
83.6452	-0.699005	-0.00150391
83.8452	-0.699158	-0.00150116
84.0452	-0.698883	-0.00149841
84.2452	-0.699188	-0.00149597
84.4452	-0.698883	-0.00149323
84.6452	-0.698914	-0.00148621
84.8452	-0.69931	-0.0014856
85.0452	-0.699402	-0.00148407
85.2452	-0.699249	-0.00148224
85.4452	-0.699036	-0.0014798
85.6452	-0.699249	-0.00147705
85.8452	-0.69931	-0.00147461
86.0452	-0.698944	-0.00147217
86.2452	-0.699341	-0.00146942
86.4452	-0.698883	-0.00146729
86.6452	-0.699371	-0.00146454
86.8452	-0.698944	-0.0014621
87.0452	-0.699371	-0.00145966
87.2452	-0.699127	-0.00145721
87.4452	-0.699341	-0.00145477
87.6452	-0.699066	-0.00145233
87.8452	-0.698914	-0.0014502
88.0452	-0.699005	-0.00144775
88.2452	-0.699127	-0.00144501
88.4452	-0.69931	-0.00144287
88.6452	-0.698914	-0.00144043
88.8452	-0.69928	-0.00143799
89.0452	-0.699066	-0.0014325
89.2452	-0.69928	-0.0014328
89.4452	-0.698975	-0.00143066
89.6452	-0.69931	-0.00142853
89.8452	-0.699097	-0.00142639
90.0452	-0.699341	-0.00142395
90.2452	-0.698944	-0.00142151
90.4452	-0.699402	-0.00141937
90.6452	-0.699371	-0.00141724
90.8452	-0.699127	-0.0014151
91.0452	-0.699127	-0.00141266
91.2452	-0.698944	-0.00141052
91.4452	-0.699371	-0.00140808
91.6452	-0.699036	-0.00140594
91.8452	-0.69931	-0.00140381
92.0452	-0.699005	-0.00140167
92.2452	-0.69931	-0.00139954
92.4452	-0.699097	-0.00139709
92.6452	-0.698883	-0.00139496
92.8452	-0.699005	-0.00139313
93.0452	-0.69931	-0.00139069
93.2452	-0.699371	-0.00138458
93.4452	-0.699371	-0.00138489
93.6452	-0.699036	-0.00138275
93.8452	-0.699432	-0.00138123
94.0452	-0.69928	-0.00137939
94.2452	-0.699005	-0.00137726
94.4452	-0.69928	-0.00137543
94.6452	-0.699066	-0.0013736
94.8452	-0.699402	-0.00137146
95.0452	-0.699188	-0.00136932
95.2452	-0.699219	-0.00136749
95.4452	-0.699371	-0.00136536
95.6452	-0.699127	-0.00136292
95.8452	-0.699188	-0.00136139
96.0452	-0.699036	-0.00135895
96.2452	-0.699158	-0.00135712
96.4452	-0.699066	-0.00134644
96.6452	-0.699371	-0.00134674
96.8452	-0.69928	-0.00134674
97.0452	-0.699036	-0.00134613
97.2452	-0.699402	-0.00134491
97.4452	-0.69931	-0.00134308
97.6452	-0.699219	-0.00134186
97.8452	-0.698975	-0.00134003
98.0452	-0.699341	-0.0013385
98.2452	-0.699371	-0.00133667
98.4452	-0.69931	-0.00133484
98.6452	-0.698944	-0.00133301
98.8452	-0.698944	-0.00133118
99.0452	-0.699341	-0.00132935
99.2452	-0.699341	-0.00132751
99.4452	-0.699432	-0.00132568
99.6452	-0.699005	-0.00132385
99.8452	-0.699249	-0.00132202
100.045	-0.699371	-0.00131989
100.245	-0.69931	-0.00131805
100.445	-0.698975	-0.00131653
100.645	-0.699432	-0.0013147
100.845	-0.698883	-0.00131287
101.045	-0.699127	-0.00131104
101.245	-0.698944	-0.0013092
101.445	-0.698914	-0.00130737
101.645	-0.699371	-0.00130554
101.845	-0.699158	-0.00130371
102.045	-0.699066	-0.00130188
102.245	-0.699371	-0.00130005
102.445	-0.699371	-0.00129822
102.645	-0.699066	-0.00129578
102.845	-0.69931	-0.00128876
103.045	-0.699249	-0.00128693
103.245	-0.699463	-0.00128784
103.445	-0.698975	-0.00128693
103.645	-0.699005	-0.00128571
103.845	-0.699249	-0.00128418
104.045	-0.699371	-0.00128265
104.245	-0.699402	-0.00128082
104.445	-0.699097	-0.0012793
104.645	-0.699432	-0.00127777
104.845	-0.69931	-0.00127594
105.045	-0.699097	-0.00127441
105.245	-0.699371	-0.00127289
105.445	-0.699188	-0.00126495
105.645	-0.699097	-0.00126526
105.845	-0.699341	-0.00126434
106.045	-0.69931	-0.00126343
106.245	-0.699341	-0.00126221
106.445	-0.699066	-0.00126099
106.645	-0.69931	-0.00125977
106.845	-0.698944	-0.00125854
107.045	-0.699066	-0.00125732
107.245	-0.699158	-0.0012561
107.445	-0.699188	-0.00125458
107.645	-0.699341	-0.00125305
107.845	-0.699097	-0.00125122
108.045	-0.69931	-0.00124969
108.245	-0.699219	-0.00124817
108.445	-0.699005	-0.00124634
108.645	-0.699402	-0.00124481
108.845	-0.699005	-0.00124329
109.045	-0.699432	-0.00124146
109.245	-0.699341	-0.00123993
109.445	-0.699158	-0.0012384
109.645	-0.698975	-0.00123688
109.845	-0.699249	-0.00123535
110.045	-0.69931	-0.00123352
110.245	-0.699127	-0.00123199
110.445	-0.699097	-0.00123016
110.645	-0.699402	-0.00122864
110.845	-0.699036	-0.00122681
111.045	-0.699341	-0.00122559
111.245	-0.699432	-0.00122314
111.445	-0.699219	-0.00122162
111.645	-0.699097	-0.00121735
111.845	-0.699005	-0.00121887
112.045	-0.699371	-0.00121765
112.245	-0.699188	-0.00121613
112.445	-0.699158	-0.0012146
112.645	-0.699097	-0.00121277
112.845	-0.699402	-0.00121155
113.045	-0.699463	-0.00120972
113.245	-0.699066	-0.0012085
113.445	-0.699036	-0.00120667
113.645	-0.699402	-0.00120514
113.845	-0.699463	-0.00120331
114.045	-0.699097	-0.00120209
114.245	-0.699188	-0.00120056
114.445	-0.699066	-0.00119812
114.645	-0.699158	-0.0011972
114.845	-0.699432	-0.00119598
115.045	-0.699066	-0.00119446
115.245	-0.699005	-0.00119324
115.445	-0.699158	-0.00119171
115.645	-0.699432	-0.00119019
115.845	-0.699432	-0.00118866
116.045	-0.699219	-0.00118713
116.245	-0.698975	-0.00118561
116.445	-0.699188	-0.00118439
116.645	-0.699463	-0.00118286
116.845	-0.699371	-0.00118134
117.045	-0.699097	-0.00118011
117.245	-0.699402	-0.00117859
117.445	-0.699127	-0.00117371
117.645	-0.699432	-0.00116943
117.845	-0.699158	-0.001171875
118.045	-0.699066	-0.00117157
118.245	-0.699097	-0.00117035
118.445	-0.699402	-0.00116394
118.645	-0.699371	-0.00116486
118.845	-0.699371	-0.00116486
119.045	-0.699127	-0.00116455
119.245	-0.699005	-0.00116333
119.445	-0.699188	-0.00116211
119.645	-0.699402	-0.00116058
119.845	-0.699249	-0.00115936
120.045	-0.699127	-0.00115814
120.245	-0.699127	-0.00115662
120.445	-0.699402	-0.00115509
120.645	-0.699005	-0.00115387
120.845	-0.699249	-0.00115265
121.045	-0.699097	-0.00115143
121.245	-0.69928	-0.00114807
121.445	-0.69931	-0.00114807
121.645	-0.69928	-0.00114716
121.845	-0.699158	-0.00114563
122.045	-0.699005	-0.00114471
122.245	-0.699036	-0.00114319
122.445	-0.699371	-0.00114197
122.645	-0.69928	-0.00114075
122.845	-0.699341	-0.00113922
123.045	-0.699158	-0.001138
123.245	-0.69931	-0.00113647
123.445	-0.699219	-0.00113525
123.645	-0.699097	-0.00113403
123.845	-0.699402	-0.00113159
124.045	-0.699341	-0.00113098
124.245	-0.699249	-0.00112976
124.445	-0.69928	-0.00112823
124.645	-0.699005	-0.00112701
124.845	-0.699402	-0.00112549
125.045	-0.699249	-0.00112427
125.245	-0.699371	-0.00112305
125.445	-0.699341	-0.00112183
125.645	-0.699097	-0.0011203
125.845	-0.699341	-0.00111786
126.045	-0.699097	-0.00111755
126.245	-0.699249	-0.00111603
126.445	-0.699036	-0.00111511
126.645	-0.699341	-0.00111359
126.845	-0.699402	-0.00111267
127.045	-0.698975	-0.00110992
127.245	-0.699432	-0.00110962
127.445	-0.699402	-0.0011084
127.645	-0.699371	-0.00110718
127.845	-0.699249	-0.00110596
128.045	-0.699432	-0.00110474
128.245	-0.699463	-0.00110321
128.445	-0.699036	-0.00110229
128.645	-0.699432	-0.00110077
128.845	-0.699463	-0.00109955
129.045	-0.699432	-0.00109833
129.245	-0.699066	-0.00109711
129.445	-0.69931	-0.00109589
129.645	-0.699036	-0.00109436
129.845	-0.699432	-0.00109314
130.045	-0.699097	-0.00109192
130.245	-0.699158	-0.001091
130.445	-0.699097	-0.00108917
130.645	-0.699341	-0.00108795
130.845	-0.699341	-0.00108704
131.045	-0.699371	-0.00108582
131.245	-0.69931	-0.00108429
131.445	-0.699432	-0.00108337
131.645	-0.69928	-0.00108185
131.845	-0.699127	-0.00108093
132.045	-0.69928	-0.00107971
132.245	-0.699188	-0.0010788
132.445	-0.699463	-0.00107758
132.645	-0.699097	-0.00107635
132.845	-0.699005	-0.00107513
133.045	-0.699249	-0.00107361
133.245	-0.699097	-0.00107269
133.445	-0.699158	-0.00107086
133.645	-0.699463	-0.00107025
133.845	-0.699402	-0.00106903
134.045	-0.699066	-0.0010675
134.245	-0.699432	-0.00106628
134.445	-0.69931	-0.00106537
134.645	-0.699219	-0.00106384
134.845	-0.699127	-0.00106293
135.045	-0.699066	-0.00106171
135.245	-0.699371	-0.00105896
135.445	-0.699066	-0.00105957
135.645	-0.699005	-0.00105835
135.845	-0.699402	-0.00105713
136.045	-0.699036	-0.00105591
136.245	-0.699219	-0.00105499
136.445	-0.699432	-0.00105377
136.645	-0.699036	-0.00105255
136.845	-0.699463	-0.00105133
137.045	-0.699188	-0.00105011
137.245	-0.699036	-0.00104889
137.445	-0.699463	-0.00104797
137.645	-0.699097	-0.00104675
137.845	-0.69931	-0.00104584
138.045	-0.699127	-0.00104462
138.245	-0.69928	-0.0010434
138.445	-0.699463	-0.00104126
138.645	-0.699036	-0.00104065
138.845	-0.699432	-0.00103943
139.045	-0.699432	-0.00103851
139.245	-0.699249	-0.00103729
139.445	-0.699341	-0.00103638
139.645	-0.699066	-0.00103546
139.845	-0.699463	-0.00103424
140.045	-0.699036	-0.00103333
140.245	-0.699371	-0.0010318
140.445	-0.699158	-0.00102661
140.645	-0.699371	-0.00102722
140.845	-0.699066	-0.00102722
141.045	-0.699249	-0.00102661
141.245	-0.699219	-0.0010257
141.445	-0.699219	-0.00102509
141.645	-0.699005	-0.00102417
141.845	-0.699066	-0.00102356
142.045	-0.699432	-0.00102234
142.245	-0.699219	-0.00102081
142.445	-0.699371	-0.0010199
142.645	-0.69928	-0.00101898
142.845	-0.699432	-0.00101807
143.045	-0.699097	-0.00101715
143.245	-0.699402	-0.00101593
143.445	-0.699066	-0.00101501
143.645	-0.69928	-0.0010141
143.845	-0.699402	-0.00101318
144.045	-0.699432	-0.00101196
144.245	-0.699097	-0.00101105
144.445	-0.699066	-0.00100983
144.645	-0.69931	-0.00100922
144.845	-0.69931	-0.001008
145.045	-0.699036	-0.00100677
145.245	-0.699188	-0.00100281
145.445	-0.699341	-0.00100403
145.645	-0.699493	-0.00100342
145.845	-0.698975	-0.0010025
146.045	-0.699158	-0.00100128
146.245	-0.699097	-0.00100037
146.445	-0.699463	-0.000999451
146.645	-0.699493	-0.000998535
146.845	-0.69931	-0.00099762
147.045	-0.699036	-0.000996399
147.245	-0.699249	-0.000994263
147.445	-0.699463	-0.000994263
147.645	-0.699341	-0.000993347
147.845	-0.699432	-0.000992432
148.045	-0.699158	-0.000991516
148.245	-0.699249	-0.000990601
148.445	-0.699463	-0.000989685
148.645	-0.699158	-0.000988464
148.845	-0.699219	-0.000987549
149.045	-0.699127	-0.000986633
149.245	-0.699188	-0.000985413
149.445	-0.69931	-0.000984497
149.645	-0.699463	-0.000983582
149.845	-0.699127	-0.000982666
150.045	-0.699127	-0.000977783
150.245	-0.699097	-0.000977783
150.445	-0.699371	-0.000976868
150.645	-0.699463	-0.0009765625
150.845	-0.699127	-0.000975952
151.045	-0.699066	-0.000975342
151.245	-0.69928	-0.000974426
151.445	-0.699402	-0.000973816
151.645	-0.699158	-0.00097229
151.845	-0.699371	-0.000971985
152.045	-0.699188	-0.000971375
152.245	-0.699341	-0.000970459
152.445	-0.699097	-0.000969543
152.645	-0.699341	-0.000968628
152.845	-0.699371	-0.000967712
153.045	-0.699066	-0.000967102
153.245	-0.699341	-0.000966187
153.445	-0.699341	-0.000964966
153.645	-0.699158	-0.00096405
153.845	-0.699341	-0.000963135
154.045	-0.69931	-0.000961609
154.245	-0.699158	-0.000960999
154.445	-0.699402	-0.000960083
154.645	-0.699341	-0.000959167
154.845	-0.699219	-0.000958252
155.045	-0.699341	-0.000957336
155.245	-0.699188	-0.000956421
155.445	-0.699341	-0.000955505
155.645	-0.699127	-0.00095459
155.845	-0.69931	-0.000953674
156.045	-0.699432	-0.000952759
156.245	-0.699249	-0.000950928
156.445	-0.699371	-0.000950623
156.645	-0.69931	-0.000949707
156.845	-0.699371	-0.000949097
157.045	-0.699158	-0.000948181
157.245	-0.699463	-0.000947266
157.445	-0.699402	-0.00094635
157.645	-0.699341	-0.000943604
157.845	-0.699158	-0.000943604
158.045	-0.699402	-0.000942993
158.245	-0.699158	-0.000942383
158.445	-0.699249	-0.000941467
158.645	-0.699249	-0.000940857
158.845	-0.699127	-0.000939941
159.045	-0.69931	-0.000939026
159.245	-0.699158	-0.000938416
159.445	-0.699127	-0.000937195
159.645	-0.699127	-0.000936279
159.845	-0.699371	-0.000935669
160.045	-0.699219	-0.000934753
160.245	-0.699432	-0.000933838
160.445	-0.699341	-0.000932922
160.645	-0.699158	-0.000932007
160.845	-0.699341	-0.000931091
161.045	-0.69931	-0.000930176
161.245	-0.699127	-0.000929565
161.445	-0.699432	-0.000926819
161.645	-0.699188	-0.000927429
161.845	-0.699402	-0.000926514
162.045	-0.699249	-0.000925598
162.245	-0.69928	-0.000919495
162.445	-0.699432	-0.000921021
162.645	-0.699158	-0.000921021
162.845	-0.699402	-0.00092041
163.045	-0.699432	-0.0009198
163.245	-0.699127	-0.000916443
163.445	-0.699371	-0.000918884
163.645	-0.699097	-0.000918274
163.845	-0.699066	-0.000917664
164.045	-0.699432	-0.000917358
164.245	-0.699432	-0.000916443
164.445	-0.699097	-0.000915833
164.645	-0.699341	-0.000914917
164.845	-0.699127	-0.000910339
165.045	-0.699249	-0.000911255
165.245	-0.699432	-0.000910645
165.445	-0.699188	-0.000910645
165.645	-0.699402	-0.000910034
165.845	-0.699341	-0.000909424
166.045	-0.699097	-0.000908813
166.245	-0.699371	-0.000908203
166.445	-0.699158	-0.000907288
166.645	-0.69931	-0.000906677
166.845	-0.69928	-0.000903931
167.045	-0.69928	-0.000904541
167.245	-0.699402	-0.000903931
167.445	-0.699097	-0.000902405
167.645	-0.699188	-0.000902405
167.845	-0.699219	-0.000901489
168.045	-0.699371	-0.000900879
168.245	-0.699127	-0.000900269
168.445	-0.699402	-0.000899658
168.645	-0.699402	-0.000899048
168.845	-0.699188	-0.000898132
169.045	-0.699341	-0.000897217
169.245	-0.699158	-0.000896606
169.445	-0.699463	-0.000895996
169.645	-0.699158	-0.000894775
169.845	-0.699219	-0.000894165
170.045	-0.699188	-0.000893555
170.245	-0.69931	-0.000892944
170.445	-0.699402	-0.000892029
170.645	-0.699127	-0.000888977
170.845	-0.699249	-0.000889893
171.045	-0.699127	-0.000887451
171.245	-0.699371	-0.000888672
171.445	-0.69928	-0.000887756
171.645	-0.699371	-0.000887451
171.845	-0.699188	-0.000886536
172.045	-0.699432	-0.000885925
172.245	-0.699249	-0.00088501
172.445	-0.699158	-0.000884094
172.645	-0.699036	-0.000883484
172.845	-0.699371	-0.000882874
173.045	-0.699188	-0.000881348
173.245	-0.69931	-0.000880737
173.445	-0.699158	-0.000880127
173.645	-0.699219	-0.000879517
173.845	-0.699249	-0.000878906
174.045	-0.699463	-0.000877991
174.245	-0.699188	-0.00087738
174.445	-0.699402	-0.000876465
174.645	-0.699219	-0.000871582
174.845	-0.699371	-0.000872192
175.045	-0.699371	-0.000871887
175.245	-0.69928	-0.000871277
175.445	-0.699188	-0.000870972
175.645	-0.699097	-0.000870361
175.845	-0.699158	-0.000869751
176.045	-0.699463	-0.000869141
176.245	-0.699432	-0.000868225
176.445	-0.699219	-0.000867615
176.645	-0.699158	-0.000867004
176.845	-0.699097	-0.000866394
177.045	-0.699341	-0.000863037
177.245	-0.699036	-0.000864868
177.445	-0.699432	-0.000864258
177.645	-0.699341	-0.000863647
177.845	-0.699127	-0.000863037
178.045	-0.699097	-0.000862427
178.245	-0.699341	-0.000861511
178.445	-0.699371	-0.00085968
178.645	-0.699066	-0.000860291
178.845	-0.699249	-0.00085968
179.045	-0.699188	-0.000858765
179.245	-0.699341	-0.000857544
179.445	-0.699463	-0.000857239
179.645	-0.699158	-0.000856628
179.845	-0.699158	-0.000855408
180.045	-0.699097	-0.000855103
180.245	-0.699493	-0.000854492
180.445	-0.699219	-0.000853882
180.645	-0.699493	-0.000853271
180.845	-0.69931	-0.000852661
181.045	-0.699432	-0.000851746
181.245	-0.699097	-0.00085083
181.445	-0.699127	-0.00085022
181.645	-0.699432	-0.000849609
181.845	-0.699188	-0.000848999
182.045	-0.69928	-0.000848083
182.245	-0.699432	-0.000847473
182.445	-0.699158	-0.000846863
182.645	-0.699158	-0.000845947
182.845	-0.699402	-0.000845337
183.045	-0.699127	-0.000844727
183.245	-0.699402	-0.000843811
183.445	-0.699402	-0.000843201
183.645	-0.699188	-0.000842285
183.845	-0.699432	-0.000841675
184.045	-0.699493	-0.000840759
184.245	-0.699371	-0.000840149
184.445	-0.699066	-0.000839539
184.645	-0.699463	-0.000838623
184.845	-0.699463	-0.000838013
185.045	-0.699249	-0.000837402
185.245	-0.699402	-0.000836792
185.445	-0.69931	-0.000836182
185.645	-0.699493	-0.000835571
185.845	-0.699127	-0.000834656
186.045	-0.699158	-0.000834351
186.245	-0.699402	-0.00083374
186.445	-0.699371	-0.00083313
186.645	-0.699066	-0.00083252
186.845	-0.699127	-0.000831909
187.045	-0.699341	-0.000830688
187.245	-0.699371	-0.000830383
187.445	-0.699097	-0.000829468
187.645	-0.699127	-0.000828857
187.845	-0.699493	-0.000826111
188.045	-0.69931	-0.000826416
188.245	-0.699249	-0.000825806
188.445	-0.699127	-0.000825195
188.645	-0.699463	-0.00082489
188.845	-0.699463	-0.00082428
189.045	-0.699127	-0.000823364
189.245	-0.699219	-0.000823059
189.445	-0.699371	-0.000822449
189.645	-0.699341	-0.000821838
189.845	-0.699127	-0.000821228
190.045	-0.69928	-0.000820923
190.245	-0.69931	-0.000820007
190.445	-0.699219	-0.000819397
190.645	-0.699249	-0.000818787
190.845	-0.699219	-0.000818176
191.045	-0.699402	-0.000817871
191.245	-0.699066	-0.000817261
191.445	-0.699371	-0.000816345
191.645	-0.699402	-0.000813904
191.845	-0.699066	-0.000815125
192.045	-0.699219	-0.000814514
192.245	-0.699463	-0.000813599
192.445	-0.699188	-0.000812988
192.645	-0.69931	-0.000812073
192.845	-0.699463	-0.000811462
193.045	-0.699341	-0.000810852
193.245	-0.699341	-0.000810242
193.445	-0.699341	-0.000809326
193.645	-0.699341	-0.000803833
193.845	-0.699341	-0.000805054
194.045	-0.699188	-0.000805054
194.245	-0.699249	-0.000804749
194.445	-0.699371	-0.000804443
194.645	-0.699127	-0.000803833
194.845	-0.699432	-0.000803223
195.045	-0.699432	-0.000802917
195.245	-0.699188	-0.000802307
195.445	-0.699188	-0.000801697
195.645	-0.699097	-0.000799255
195.845	-0.69931	-0.000800476
196.045	-0.699127	-0.000799866
196.245	-0.699402	-0.000799255
196.445	-0.699463	-0.000798645
196.645	-0.699127	-0.00079834
196.845	-0.699219	-0.000797729
197.045	-0.699341	-0.000797119
197.245	-0.699127	-0.000796509
197.445	-0.699127	-0.000796204
197.645	-0.699097	-0.000795593
197.845	-0.699341	-0.000794678
198.045	-0.699127	-0.000794373
198.245	-0.699371	-0.000793762
198.445	-0.699249	-0.000793457
198.645	-0.699158	-0.000792847
198.845	-0.699249	-0.000792236
199.045	-0.699432	-0.000791931
199.245	-0.699432	-0.000791321
199.445	-0.699127	-0.000791016
199.645	-0.699371	-0.000790405
199.845	-0.699249	-0.000789795
200.045	-0.69928	-0.000789185
200.245	-0.699127	-0.000788879
200.445	-0.699219	-0.000787964
200.645	-0.699463	-0.000787659
200.845	-0.699188	-0.000787048
201.045	-0.699524	-0.000786438
201.245	-0.699127	-0.000785828
201.445	-0.699463	-0.000785522
201.645	-0.699097	-0.000784912
201.845	-0.699493	-0.000784302
202.045	-0.699127	-0.00078125
202.245	-0.699432	-0.000782166
202.445	-0.699097	-0.00078186
202.645	-0.69928	-0.00078125
202.845	-0.699219	-0.000780334
203.045	-0.69928	-0.00078064
203.245	-0.699463	-0.000780029
203.445	-0.699127	-0.000779419
203.645	-0.699463	-0.000779114
203.845	-0.699371	-0.000778503
204.045	-0.699402	-0.000777893
204.245	-0.699097	-0.000777283
204.445	-0.699371	-0.000776672
204.645	-0.699432	-0.000776367
204.845	-0.699432	-0.000775757
205.045	-0.699127	-0.000775146
205.245	-0.699463	-0.000774841
205.445	-0.699341	-0.000774231
205.645	-0.699432	-0.000773621
205.845	-0.69928	-0.00077301
206.045	-0.699127	-0.000772705
206.245	-0.699402	-0.000772095
206.445	-0.69928	-0.000771484
206.645	-0.699341	-0.000770874
206.845	-0.699097	-0.000770264
207.045	-0.699402	-0.000769348
207.245	-0.699158	-0.000769348
207.445	-0.699249	-0.000768433
207.645	-0.699188	-0.000768127
207.845	-0.699463	-0.000767517
208.045	-0.699432	-0.000766907
208.245	-0.699249	-0.000766602
208.445	-0.699219	-0.000765991
208.645	-0.699463	-0.000765381
208.845	-0.69928	-0.000764771
209.045	-0.699097	-0.000764465
209.245	-0.699127	-0.000763855
209.445	-0.699463	-0.000763245
209.645	-0.699158	-0.000762939
209.845	-0.699341	-0.000762329
210.045	-0.69928	-0.000761719
210.245	-0.699127	-0.000761108
210.445	-0.699463	-0.000760498
210.645	-0.699158	-0.000759888
210.845	-0.699219	-0.000759583
211.045	-0.699341	-0.000758972
211.245	-0.699249	-0.000751343
211.445	-0.699219	-0.000755005
211.645	-0.699158	-0.00075531
211.845	-0.699432	-0.00075531
212.045	-0.699432	-0.000755005
212.245	-0.699219	-0.0007547
212.445	-0.699249	-0.000754089
212.645	-0.699432	-0.000754395
212.845	-0.699463	-0.000753479
213.045	-0.699127	-0.000753479
213.245	-0.699371	-0.000753174
213.445	-0.699493	-0.000752563
213.645	-0.699432	-0.000752258
213.845	-0.699219	-0.000751648
214.045	-0.699371	-0.000751343
214.245	-0.699219	-0.000750732
214.445	-0.699432	-0.000750122
214.645	-0.699371	-0.000749207
214.845	-0.699371	-0.000749207
215.045	-0.699127	-0.000748596
215.245	-0.699463	-0.000748291
215.445	-0.699463	-0.000747681
215.645	-0.699249	-0.000747375
215.845	-0.699188	-0.00074646
216.045	-0.699188	-0.000746155
216.245	-0.699371	-0.000745544
216.445	-0.69931	-0.000745239
216.645	-0.699097	-0.000744324
216.845	-0.699341	-0.000744019
217.045	-0.699463	-0.000743713
217.245	-0.699249	-0.000743103
217.445	-0.699402	-0.000742798
217.645	-0.699158	-0.0007421875
217.845	-0.699371	-0.000741577
218.045	-0.69931	-0.000740967
218.245	-0.699432	-0.000740662
218.445	-0.699371	-0.000740051
218.645	-0.699463	-0.000739441
218.845	-0.699463	-0.000739136
219.045	-0.699188	-0.000738525
219.245	-0.699463	-0.00073822
219.445	-0.699463	-0.000737305
219.645	-0.699432	-0.000737
219.845	-0.69931	-0.000734863
220.045	-0.699341	-0.000735474
220.245	-0.699249	-0.000735168
220.445	-0.699219	-0.000734558
220.645	-0.699402	-0.000734253
220.845	-0.699188	-0.000733948
221.045	-0.69931	-0.000733643
221.245	-0.699341	-0.000733032
221.445	-0.699249	-0.000732422
221.645	-0.699493	-0.000732117
221.845	-0.699249	-0.000731812
222.045	-0.699402	-0.000731201
222.245	-0.699371	-0.000730896
222.445	-0.699188	-0.000730286
222.645	-0.69931	-0.000729675
222.845	-0.699127	-0.000728149
223.045	-0.699127	-0.00072876
223.245	-0.699463	-0.000728455
223.445	-0.699219	-0.000727844
223.645	-0.699371	-0.000727234
223.845	-0.699463	-0.000726929
224.045	-0.699158	-0.000726318
224.245	-0.699127	-0.000726013
224.445	-0.699402	-0.000725403
224.645	-0.699127	-0.000725098
224.845	-0.699463	-0.000724487
225.045	-0.699371	-0.000724182
225.245	-0.699158	-0.000723572
225.445	-0.699432	-0.000722961
225.645	-0.699249	-0.000721741
225.845	-0.699188	-0.000721436
226.045	-0.699402	-0.000721436
226.245	-0.699127	-0.000720825
226.445	-0.699188	-0.00072052
226.645	-0.699432	-0.000720215
226.845	-0.699249	-0.000719604
227.045	-0.699188	-0.000719299
227.245	-0.699249	-0.000718689
227.445	-0.699249	-0.000718384
227.645	-0.699249	-0.000717773
227.845	-0.699188	-0.000717163
228.045	-0.699341	-0.000716858
228.245	-0.69931	-0.000716553
228.445	-0.699066	-0.000715942
228.645	-0.699432	-0.000715332
228.845	-0.699188	-0.000715027
229.045	-0.699463	-0.000714722
229.245	-0.699402	-0.000714111
229.445	-0.699341	-0.000713806
229.645	-0.699463	-0.000713501
229.845	-0.699341	-0.000712891
230.045	-0.699493	-0.00071228
230.245	-0.699219	-0.000711975
230.445	-0.699371	-0.00071167
230.645	-0.699432	-0.000710754
230.845	-0.699249	-0.000710754
231.045	-0.699493	-0.000710144
231.245	-0.699188	-0.000709839
231.445	-0.699432	-0.000709229
231.645	-0.699188	-0.000707397
231.845	-0.699463	-0.000708008
232.045	-0.69931	-0.000707703
232.245	-0.699432	-0.000707397
232.445	-0.699158	-0.000706787
232.645	-0.699127	-0.000706482
232.845	-0.69931	-0.000706177
233.045	-0.69928	-0.000705566
233.245	-0.699341	-0.000705261
233.445	-0.699219	-0.000704651
233.645	-0.69931	-0.000704346
233.845	-0.699402	-0.000703735
234.045	-0.69931	-0.00070343
234.245	-0.699188	-0.000703125
234.445	-0.699432	-0.000702515
234.645	-0.699463	-0.000701904
234.845	-0.699432	-0.000701599
235.045	-0.699158	-0.000701294
235.245	-0.699402	-0.000700684
235.445	-0.699432	-0.000700378
235.645	-0.69931	-0.000699768
235.845	-0.699371	-0.000699463
236.045	-0.699158	-0.000698853
236.245	-0.699463	-0.000698547
236.445	-0.69931	-0.000697327
236.645	-0.699463	-0.000697327
236.845	-0.699219	-0.000697021
237.045	-0.699402	-0.000696716
237.245	-0.699097	-0.000696411
237.445	-0.699219	-0.000695801
237.645	-0.699432	-0.000695496
237.845	-0.69928	-0.000694885
238.045	-0.69931	-0.00069458
238.245	-0.699371	-0.000687256
238.445	-0.699463	-0.000689087
238.645	-0.69928	-0.000689392
238.845	-0.699219	-0.000690002
239.045	-0.699493	-0.000690308
239.245	-0.699371	-0.000690308
239.445	-0.699188	-0.000690002
239.645	-0.699493	-0.000689697
239.845	-0.699249	-0.000689697
240.045	-0.699371	-0.000689392
240.245	-0.699249	-0.000689087
240.445	-0.699371	-0.000688477
240.645	-0.699188	-0.000688477
240.845	-0.699188	-0.000687866
241.045	-0.699371	-0.000687866
241.245	-0.699219	-0.000687561
241.445	-0.699158	-0.000687256
241.645	-0.699432	-0.000686951
241.845	-0.69931	-0.000686646
242.045	-0.699219	-0.00068634
242.245	-0.69931	-0.000686035
242.445	-0.699493	-0.00068573
242.645	-0.699402	-0.00068573
242.845	-0.699158	-0.000684814
243.045	-0.699402	-0.000684814
243.245	-0.699341	-0.000684509
243.445	-0.699066	-0.000684204
243.645	-0.699158	-0.000683594
243.845	-0.699432	-0.000683594
244.045	-0.699158	-0.000682983
244.245	-0.69931	-0.000682678
244.445	-0.699219	-0.000682373
244.645	-0.699463	-0.000681763
244.845	-0.699463	-0.000681152
245.045	-0.69928	-0.000681152
245.245	-0.699158	-0.000680542
245.445	-0.699188	-0.000680237
245.645	-0.699463	-0.000679932
245.845	-0.699188	-0.000679626
246.045	-0.699188	-0.000679016
246.245	-0.69931	-0.000678711
246.445	-0.699341	-0.000678406
246.645	-0.699219	-0.000677795
246.845	-0.699402	-0.00067749
247.045	-0.699463	-0.000677185
247.245	-0.699219	-0.00067688
247.445	-0.699524	-0.000676575
247.645	-0.69931	-0.00067627
247.845	-0.699341	-0.000675964
248.045	-0.699219	-0.000675354
248.245	-0.699219	-0.000675049
248.445	-0.699463	-0.000674744
248.645	-0.699158	-0.000674133
248.845	-0.699188	-0.000673828
249.045	-0.699371	-0.000673523
249.245	-0.699249	-0.000673218
249.445	-0.699188	-0.000672607
249.645	-0.699188	-0.000672302
249.845	-0.699371	-0.000671997
250.045	-0.699371	-0.000671387
250.245	-0.69928	-0.000671082
250.445	-0.699402	-0.000670471
250.645	-0.699371	-0.000670166
250.845	-0.699249	-0.000669861
251.045	-0.699432	-0.00066864
251.245	-0.699341	-0.000668945
251.445	-0.69928	-0.00066864
251.645	-0.699524	-0.000668335
251.845	-0.699371	-0.00066803
252.045	-0.699219	-0.000667725
252.245	-0.699219	-0.000667419
252.445	-0.699219	-0.000667114
252.645	-0.699219	-0.000666809
252.845	-0.699219	-0.000666199
253.045	-0.69931	-0.000665894
253.245	-0.699249	-0.000665588
253.445	-0.699432	-0.000664978
253.645	-0.699158	-0.000664673
253.845	-0.699219	-0.000664368
254.045	-0.699432	-0.000663757
254.245	-0.699463	-0.000663757
254.445	-0.699219	-0.000663452
254.645	-0.699463	-0.000663147
254.845	-0.699127	-0.000662537
255.045	-0.699158	-0.000662537
255.245	-0.699463	-0.000661926
255.445	-0.699188	-0.000661621
255.645	-0.69931	-0.000661316
255.845	-0.699463	-0.000660706
256.045	-0.699219	-0.000660706
256.245	-0.699432	-0.000660095
256.445	-0.699371	-0.00065979
256.645	-0.69931	-0.000659485
256.845	-0.699188	-0.00065918
257.045	-0.699493	-0.000658569
257.245	-0.699493	-0.000658264
257.445	-0.699158	-0.000657959
257.645	-0.699097	-0.000657654
257.845	-0.699341	-0.000657349
258.045	-0.699341	-0.000657043
258.245	-0.699219	-0.000656738
258.445	-0.699188	-0.000656433
258.645	-0.699341	-0.000656128
258.845	-0.699432	-0.000655518
259.045	-0.699432	-0.000654907
259.245	-0.699249	-0.000654602
259.445	-0.699371	-0.000654297
259.645	-0.699493	-0.000653992
259.845	-0.699463	-0.000653687
260.045	-0.699402	-0.000653381
260.245	-0.69928	-0.000653076
260.445	-0.69928	-0.000652466
260.645	-0.69931	-0.000652466
260.845	-0.699432	-0.000652161
261.045	-0.699493	-0.000651855
261.245	-0.69928	-0.000651245
261.445	-0.699249	-0.00065094
261.645	-0.699402	-0.000648193
261.845	-0.699249	-0.000648499
262.045	-0.699402	-0.000648804
262.245	-0.699249	-0.000647888
262.445	-0.699524	-0.000648499
262.645	-0.69931	-0.000648499
262.845	-0.699432	-0.000647888
263.045	-0.699127	-0.000647888
263.245	-0.69931	-0.000647583
263.445	-0.699158	-0.000647278
263.645	-0.699463	-0.000647278
263.845	-0.699371	-0.000646973
264.045	-0.699493	-0.000646667
264.245	-0.699158	-0.000646362
264.445	-0.699463	-0.000646362
264.645	-0.699249	-0.000645752
264.845	-0.699432	-0.000645447
265.045	-0.699158	-0.000645447
265.245	-0.699188	-0.000645142
265.445	-0.699188	-0.000644531
265.645	-0.69931	-0.000644531
265.845	-0.699432	-0.000643921
266.045	-0.699402	-0.000643616
266.245	-0.699432	-0.000643311
266.445	-0.69928	-0.000642395
266.645	-0.699188	-0.0006427
266.845	-0.699158	-0.000642395
267.045	-0.699524	-0.00064209
267.245	-0.699493	-0.000641785
267.445	-0.699341	-0.000641479
267.645	-0.699158	-0.000641174
267.845	-0.699432	-0.000640869
268.045	-0.699432	-0.000640259
268.245	-0.699432	-0.000640259
268.445	-0.69928	-0.000639954
268.645	-0.699432	-0.000639343
268.845	-0.699524	-0.000639038
269.045	-0.699188	-0.000638733
269.245	-0.699127	-0.000638428
269.445	-0.699554	-0.000638123
269.645	-0.69931	-0.000637817
269.845	-0.699432	-0.000637512
270.045	-0.69931	-0.000637207
270.245	-0.69931	-0.000636902
270.445	-0.699219	-0.000636597
270.645	-0.699097	-0.000635681
270.845	-0.699371	-0.000635986
271.045	-0.699219	-0.000635681
271.245	-0.699249	-0.000635376
271.445	-0.699219	-0.000635071
271.645	-0.699341	-0.000634766
271.845	-0.699371	-0.00063385
272.045	-0.699402	-0.000634155
272.245	-0.699432	-0.00063385
272.445	-0.699341	-0.000633545
272.645	-0.699249	-0.00063324
272.845	-0.699493	-0.000632935
273.045	-0.699188	-0.000632629
273.245	-0.699493	-0.000632324
273.445	-0.699493	-0.000632019
273.645	-0.699127	-0.000631714
273.845	-0.699493	-0.000631409
274.045	-0.699188	-0.000629578
274.245	-0.69931	-0.000630493
274.445	-0.699371	-0.000630188
274.645	-0.699371	-0.000630188
274.845	-0.699463	-0.000629883
275.045	-0.699188	-0.000629578
275.245	-0.699341	-0.000629272
275.445	-0.699463	-0.000628967
275.645	-0.699127	-0.000628662
275.845	-0.699463	-0.000628357
276.045	-0.699341	-0.000628052
276.245	-0.69931	-0.000627747
276.445	-0.699432	-0.000627441
276.645	-0.699158	-0.000627136
276.845	-0.699188	-0.000626831
277.045	-0.699249	-0.000626526
277.245	-0.699402	-0.000626221
277.445	-0.699371	-0.000625
277.645	-0.699188	-0.000625916
277.845	-0.699493	-0.000623474
278.045	-0.699249	-0.000624084
278.245	-0.699219	-0.000624084
278.445	-0.699493	-0.000623779
278.645	-0.699188	-0.000623779
278.845	-0.699158	-0.000623779
279.045	-0.699432	-0.000623779
279.245	-0.699158	-0.000623474
279.445	-0.69931	-0.000623474
279.645	-0.699402	-0.000623169
279.845	-0.699219	-0.000622864
280.045	-0.699463	-0.000622559
280.245	-0.699219	-0.000622253
280.445	-0.699127	-0.000622253
280.645	-0.699432	-0.000621948
280.845	-0.69928	-0.000621643
281.045	-0.699188	-0.000621338
281.245	-0.699432	-0.000621033
281.445	-0.699249	-0.000620728
281.645	-0.69931	-0.000620422
281.845	-0.699432	-0.000620422
282.045	-0.699432	-0.000619812
282.245	-0.699402	-0.000619812
282.445	-0.699158	-0.000619507
282.645	-0.699493	-0.000619202
282.845	-0.699219	-0.000618896
283.045	-0.699371	-0.000618896
283.245	-0.699402	-0.000618286
283.445	-0.699341	-0.000618286
283.645	-0.699402	-0.000617676
283.845	-0.699188	-0.000617676
284.045	-0.699493	-0.000617371
284.245	-0.69928	-0.000617065
284.445	-0.699371	-0.000617065
284.645	-0.69928	-0.00061676
284.845	-0.699463	-0.000616455
285.045	-0.699341	-0.00061615
285.245	-0.699371	-0.000615234
285.445	-0.699249	-0.00061554
285.645	-0.699127	-0.000615234
285.845	-0.699432	-0.000614929
286.045	-0.699371	-0.000614929
286.245	-0.699524	-0.000614624
286.445	-0.699249	-0.000614319
286.645	-0.699341	-0.000614014
286.845	-0.699432	-0.000614014
287.045	-0.699219	-0.000613403
287.245	-0.699341	-0.000613403
287.445	-0.69928	-0.000613098
287.645	-0.699493	-0.000612793
287.845	-0.699249	-0.000612488
288.045	-0.699432	-0.000612183
288.245	-0.69931	-0.000611877
288.445	-0.699219	-0.000611877
288.645	-0.699341	-0.000611267
288.845	-0.699371	-0.000610962
289.045	-0.699371	-0.000610657
289.245	-0.69931	-0.000610352
289.445	-0.699249	-0.000610046
289.645	-0.699219	-0.000610046
289.845	-0.699402	-0.000609741
290.045	-0.699402	-0.000609131
290.245	-0.699249	-0.000608215
290.445	-0.699493	-0.000606995
290.645	-0.699249	-0.000606384
290.845	-0.699402	-0.000606079
291.045	-0.699219	-0.000606079
291.245	-0.699371	-0.000603638
291.445	-0.699188	-0.000604248
291.645	-0.699493	-0.000604553
291.845	-0.699402	-0.000604553
292.045	-0.699493	-0.000604858
292.245	-0.699188	-0.000605164
292.445	-0.699371	-0.000605164
292.645	-0.699158	-0.000604858
292.845	-0.699432	-0.000604858
293.045	-0.699158	-0.000604858
293.245	-0.699524	-0.000604858
293.445	-0.699371	-0.000604553
293.645	-0.699341	-0.000604248
293.845	-0.699493	-0.000604248
294.045	-0.699432	-0.000603943
294.245	-0.699341	-0.000603638
294.445	-0.699188	-0.000603638
294.645	-0.699249	-0.000603027
294.845	-0.699188	-0.000603027
295.045	-0.699402	-0.000602722
295.245	-0.699493	-0.000602417
295.445	-0.699432	-0.000602112
295.645	-0.699249	-0.000602112
295.845	-0.699249	-0.000601807
296.045	-0.69928	-0.000601501
296.245	-0.699463	-0.000600891
296.445	-0.699524	-0.000600891
296.645	-0.699219	-0.000600586
296.845	-0.699341	-0.000600281
297.045	-0.699402	-0.000599976
297.245	-0.699402	-0.000599976
297.445	-0.699249	-0.00059967
297.645	-0.699402	-0.000599365
297.845	-0.699249	-0.00059906
298.045	-0.699493	-0.000598755
298.245	-0.699219	-0.00059845
298.445	-0.699402	-0.00059845
298.645	-0.699463	-0.000598145
298.845	-0.699249	-0.000597534
299.045	-0.699402	-0.000597534
299.245	-0.699432	-0.000597229
299.445	-0.699524	-0.000597229
299.645	-0.699188	-0.000596924
299.845	-0.699249	-0.000596619
300.045	-0.699493	-0.000596313
300.245	-0.699127	-0.000596008
300.445	-0.699463	-0.000595703
300.645	-0.699158	-0.000595398
300.845	-0.699158	-0.000595398
301.045	-0.699402	-0.000595093
301.245	-0.699127	-0.000594788
301.445	-0.699188	-0.000594788
301.645	-0.699249	-0.000594482
301.845	-0.699493	-0.000594177
302.045	-0.699341	-0.000593872
302.245	-0.699249	-0.000593567
302.445	-0.699463	-0.000593567
302.645	-0.699463	-0.000593262
302.845	-0.699341	-0.000592651
303.045	-0.699493	-0.000592651
303.245	-0.69928	-0.000592651
303.445	-0.699188	-0.000592346
303.645	-0.699463	-0.000592346
303.845	-0.699249	-0.000591736
304.045	-0.699402	-0.000591125
304.245	-0.699463	-0.000591431
304.445	-0.699432	-0.000591125
304.645	-0.699371	-0.00059082
304.845	-0.69931	-0.000590515
305.045	-0.699493	-0.000590515
305.245	-0.699219	-0.00059021
305.445	-0.69931	-0.000589905
305.645	-0.699463	-0.0005896
305.845	-0.69928	-0.0005896
306.045	-0.699219	-0.000589294
306.245	-0.699463	-0.000588989
306.445	-0.699371	-0.000588684
306.645	-0.699188	-0.000588684
306.845	-0.69931	-0.000588379
307.045	-0.699524	-0.000588074
307.245	-0.699188	-0.000587769
307.445	-0.699432	-0.000587769
307.645	-0.699493	-0.000587463
307.845	-0.699341	-0.000587158
308.045	-0.699249	-0.000586853
308.245	-0.699371	-0.000586853
308.445	-0.699432	-0.00057312
308.645	-0.699219	-0.000577087
308.845	-0.699524	-0.000578003
309.045	-0.699371	-0.000578308
309.245	-0.699371	-0.000578613
309.445	-0.699371	-0.000578918
309.645	-0.699188	-0.000578918
309.845	-0.69931	-0.000579224
310.045	-0.69931	-0.000579224
310.245	-0.699158	-0.000579224
310.445	-0.699432	-0.000578918
310.645	-0.699341	-0.000579224
310.845	-0.699493	-0.000579224
311.045	-0.699463	-0.000578918
311.245	-0.69931	-0.000579224
311.445	-0.699097	-0.000579224
311.645	-0.699524	-0.000578918
311.845	-0.699188	-0.000579224
312.045	-0.699493	-0.000579224
312.245	-0.699158	-0.000577698
312.445	-0.699341	-0.000578613
312.645	-0.699463	-0.000578613
312.845	-0.699402	-0.000578918
313.045	-0.699493	-0.000578613
313.245	-0.699249	-0.000578613
313.445	-0.699371	-0.000578613
313.645	-0.699432	-0.000578308
313.845	-0.699188	-0.000578308
314.045	-0.699554	-0.000578308
314.245	-0.69931	-0.000578308
314.445	-0.699493	-0.000578003
314.645	-0.699219	-0.000577698
314.845	-0.699493	-0.000577698
315.045	-0.699219	-0.000577393
315.245	-0.699432	-0.000577087
315.445	-0.699219	-0.000577087
315.645	-0.699524	-0.000577087
315.845	-0.699371	-0.000576782
316.045	-0.69928	-0.000576782
316.245	-0.699249	-0.000576782
316.445	-0.69928	-0.000576477
316.645	-0.699341	-0.000576172
316.845	-0.699371	-0.000576172
317.045	-0.699463	-0.000575867
317.245	-0.699371	-0.000575562
317.445	-0.699341	-0.000575562
317.645	-0.699127	-0.000575256
317.845	-0.699402	-0.000574646
318.045	-0.69928	-0.000574951
318.245	-0.699493	-0.000574951
318.445	-0.699219	-0.000574646
318.645	-0.69931	-0.000574646
318.845	-0.69928	-0.000574646
319.045	-0.699341	-0.000574341
319.245	-0.69928	-0.000574341
319.445	-0.699249	-0.000574036
319.645	-0.699463	-0.000574036
319.845	-0.699371	-0.00057373
320.045	-0.699463	-0.00057373
320.245	-0.699188	-0.000573425
320.445	-0.699402	-0.000573425
320.645	-0.69928	-0.00057312
320.845	-0.69931	-0.00057312
321.045	-0.699402	-0.000572815
321.245	-0.69931	-0.00057251
321.445	-0.699432	-0.00057251
321.645	-0.699219	-0.000572205
321.845	-0.699463	-0.000571899
322.045	-0.699188	-0.000571899
322.245	-0.699249	-0.000571594
322.445	-0.699249	-0.000571594
322.645	-0.699463	-0.000571289
322.845	-0.699493	-0.000570984
323.045	-0.699158	-0.000570984
323.245	-0.699188	-0.000570679
323.445	-0.699219	-0.000570374
323.645	-0.699493	-0.000570374
323.845	-0.699493	-0.000570068
324.045	-0.699432	-0.000569763
324.245	-0.699219	-0.000569763
324.445	-0.699127	-0.000569458
324.645	-0.69928	-0.000568848
324.845	-0.699463	-0.000569153
325.045	-0.699188	-0.000568848
325.245	-0.699371	-0.000568542
325.445	-0.699158	-0.000568542
325.645	-0.699371	-0.000568237
325.845	-0.699219	-0.000567932
326.045	-0.699402	-0.000567627
326.245	-0.699249	-0.000567627
326.445	-0.699219	-0.000567627
326.645	-0.699158	-0.000567322
326.845	-0.699463	-0.000567017
327.045	-0.699249	-0.000567017
327.245	-0.699371	-0.000566711
327.445	-0.699432	-0.000566406
327.645	-0.699463	-0.000566406
327.845	-0.699463	-0.000566101
328.045	-0.699249	-0.000565796
328.245	-0.699341	-0.000565491
328.445	-0.699158	-0.000562134
328.645	-0.699463	-0.000563049
328.845	-0.699188	-0.000563354
329.045	-0.699463	-0.000563354
329.245	-0.699249	-0.000563354
329.445	-0.699249	-0.000563049
329.645	-0.699432	-0.000563049
329.845	-0.699371	-0.000563049
330.045	-0.699493	-0.000563049
330.245	-0.699188	-0.000562744
330.445	-0.699432	-0.000562744
330.645	-0.699402	-0.000562439
330.845	-0.699249	-0.000562439
331.045	-0.699493	-0.000562439
331.245	-0.699493	-0.000562439
331.445	-0.699402	-0.000561829
331.645	-0.699341	-0.000562134
331.845	-0.699158	-0.000561829
332.045	-0.699432	-0.000561523
332.245	-0.69931	-0.000561523
332.445	-0.699249	-0.000561218
332.645	-0.699463	-0.000561523
332.845	-0.699371	-0.000561218
333.045	-0.699249	-0.000560913
333.245	-0.699524	-0.000560913
333.445	-0.699463	-0.000560608
333.645	-0.69928	-0.000560303
333.845	-0.699463	-0.000559692
334.045	-0.699463	-0.000559998
334.245	-0.699188	-0.000559998
334.445	-0.699341	-0.000559692
334.645	-0.699158	-0.000559387
334.845	-0.699249	-0.000559387
335.045	-0.69931	-0.000559082
335.245	-0.699432	-0.000558777
335.445	-0.699402	-0.000558777
335.645	-0.69931	-0.000558777
335.845	-0.699463	-0.000558472
336.045	-0.699188	-0.000558167
336.245	-0.699188	-0.000558167
336.445	-0.699524	-0.000557861
336.645	-0.699249	-0.000557861
336.845	-0.699371	-0.000557861
337.045	-0.699493	-0.000557556
337.245	-0.69931	-0.000557251
337.445	-0.699493	-0.000557251
337.645	-0.69931	-0.000556946
337.845	-0.69928	-0.000556641
338.045	-0.699432	-0.000556641
338.245	-0.699219	-0.000556335
338.445	-0.699493	-0.00055603
338.645	-0.69928	-0.00055603
338.845	-0.69928	-0.000555725
339.045	-0.699524	-0.00055542
339.245	-0.699097	-0.00055542
339.445	-0.699463	-0.000555115
339.645	-0.69931	-0.000555115
339.845	-0.699371	-0.000555115
340.045	-0.699432	-0.00055481
340.245	-0.699158	-0.000554504
340.445	-0.699432	-0.000554504
340.645	-0.699249	-0.000554199
340.845	-0.699097	-0.000554199
340.945	-0.699341	-0.000553894