File: Edgar/20230810 (1)/WO3_ITO_20230717_H/OCP_3
Time (s)	WE(1).Potential (V)
341.956	-0.526428
342.956	-0.48172
343.956	-0.448792
344.956	-0.426636
345.956	-0.413727
346.956	-0.403412
347.956	-0.393616
348.956	-0.384338
349.956	-0.375641
350.956	-0.367554
351.956	-0.360077
352.956	-0.353058
353.956	-0.346497
354.956	-0.340332
355.956	-0.334503
356.956	-0.328979
357.956	-0.323792
358.956	-0.318817
359.956	-0.314117
360.956	-0.309662
361.956	-0.305389
362.956	-0.301392
363.956	-0.297516
364.956	-0.293793
365.956	-0.291016
366.956	-0.287994
367.956	-0.284729
368.956	-0.281525
369.956	-0.278473
370.956	-0.275482
371.956	-0.272705
372.956	-0.27005
373.956	-0.267517
374.956	-0.265045
375.956	-0.262726
376.956	-0.260437
377.956	-0.258301
378.956	-0.256226
379.956	-0.254242
380.956	-0.252258
381.956	-0.250366
382.956	-0.248505
383.956	-0.246674
384.956	-0.244843
385.956	-0.243073
386.956	-0.241364
387.956	-0.239655
388.956	-0.238007
389.956	-0.236328
390.956	-0.234619
391.956	-0.232971
392.956	-0.231262
393.956	-0.229584
394.956	-0.227875
395.956	-0.226105
396.956	-0.224274
397.956	-0.222412
398.956	-0.220459
399.956	-0.218597
400.956	-0.216583
401.956	-0.21463
402.956	-0.212677
403.956	-0.210693
404.956	-0.20871
405.956	-0.206635
406.956	-0.205597
407.956	-0.203308
408.956	-0.200989
409.956	-0.198639
410.956	-0.196381
411.956	-0.194122
412.956	-0.191833
413.956	-0.189575
414.956	-0.187378
415.956	-0.185211
416.956	-0.183105
417.956	-0.181
418.956	-0.178894
419.956	-0.176819
420.956	-0.174805
421.956	-0.172882
422.956	-0.170868
423.956	-0.168884
424.956	-0.166901
425.956	-0.164978
426.956	-0.163086
427.956	-0.161163
428.956	-0.159454
429.956	-0.15744
430.956	-0.155579
431.956	-0.153839
432.956	-0.151917
433.956	-0.150116
434.956	-0.148346
435.956	-0.146606
436.956	-0.144867
437.956	-0.143188
438.956	-0.141479
439.956	-0.139771
440.956	-0.138092
441.956	-0.136444
442.956	-0.134796
443.956	-0.133179
444.956	-0.131531
445.956	-0.129913
446.956	-0.128296
447.956	-0.126709
448.956	-0.125092
449.956	-0.123535
450.956	-0.121979
451.956	-0.120422
452.956	-0.118866
453.956	-0.117371
454.956	-0.115845
455.956	-0.114258
456.956	-0.112732
457.956	-0.111237
458.956	-0.109772
459.956	-0.108307
460.956	-0.106842
461.956	-0.105347
462.956	-0.103912
463.956	-0.102509
464.956	-0.101074
465.956	-0.0996704
466.956	-0.0982666
467.956	-0.0968933
468.956	-0.0954895
469.956	-0.0941162
470.956	-0.0927734
471.956	-0.0914001
472.956	-0.0900879
473.956	-0.0887451
474.956	-0.0874023
475.956	-0.0861206
476.956	-0.0848389
477.956	-0.0835571
478.956	-0.0822754
479.956	-0.0809937
480.956	-0.0797729
481.956	-0.0787964
482.956	-0.0774841
483.956	-0.0761414
484.956	-0.0749207
485.956	-0.0736694
486.956	-0.0726624
487.956	-0.0713806
488.956	-0.0702209
489.956	-0.0690308
490.956	-0.0678711
491.956	-0.0667419
492.956	-0.0655823
493.956	-0.0645142
494.956	-0.0634155
495.956	-0.0623169
496.956	-0.0612488
497.956	-0.0602112
498.956	-0.0591431
499.956	-0.0581055
500.956	-0.0570374
501.956	-0.0559998
502.956	-0.0549927
503.956	-0.0539551
504.956	-0.052948
505.956	-0.0519409
506.956	-0.0509644
507.956	-0.0499878
508.956	-0.0491211
509.956	-0.0481049
510.956	-0.0471344
511.956	-0.0463196
512.956	-0.0452393
513.956	-0.0442688
514.956	-0.0433167
515.956	-0.0423798
516.956	-0.0414917
517.956	-0.0406067
518.956	-0.0397156
519.956	-0.0388306
520.956	-0.0379425
521.956	-0.0371002
522.956	-0.0361877
523.956	-0.0356293
524.956	-0.0345215
525.956	-0.0336639
526.956	-0.0328156
527.956	-0.0319855
528.956	-0.0311462
529.956	-0.030307
530.956	-0.0294861
531.956	-0.0286835
532.956	-0.0282623
533.956	-0.0271332
534.956	-0.0263153
535.956	-0.0255249
536.956	-0.0247498
537.956	-0.0240875
538.956	-0.0231384
539.956	-0.0223602
540.956	-0.0216278
541.956	-0.0208801
542.956	-0.0201324
543.956	-0.0194122
544.956	-0.0186676
545.956	-0.0179169
546.956	-0.0171478
547.956	-0.0163574
548.956	-0.0156036
549.956	-0.0148865
550.956	-0.0141785
551.956	-0.0134613
552.956	-0.012854
553.956	-0.0121063
554.956	-0.0114258
555.956	-0.010788
556.956	-0.0101318
557.956	-0.00949402
558.956	-0.00884094
559.956	-0.0081665
560.956	-0.00751953
561.956	-0.0068634
562.956	-0.00625305
563.956	-0.00561829
564.956	-0.00498352
565.956	-0.00436401
566.956	-0.00376282
567.956	-0.00315247
568.956	-0.00256958
569.956	-0.00197144
570.956	-0.00138855
571.956	-0.000817871
572.956	-0.000534058
573.956	0.000216675
574.956	0.000836182
575.956	0.00139771
576.956	0.00194702
577.956	0.00247803
578.956	0.00300293
579.956	0.00348511
580.956	0.00390625
581.956	0.00446472
582.956	0.00502319
583.956	0.00553589
584.956	0.0059906
585.956	0.00647278
586.956	0.0069458
587.956	0.00740051
588.956	0.00763245
589.956	0.00823669
590.956	0.00872192
591.956	0.00917664
592.956	0.00962219
593.956	0.0100464
594.956	0.0104645
595.956	0.0108856
596.956	0.0112823
597.956	0.0116791
598.956	0.012085
599.956	0.0124603
600.956	0.012851
601.956	0.0132538
602.956	0.0136383
603.956	0.0139465
604.956	0.014389
605.956	0.0147491
606.956	0.0151398
607.956	0.0155151
608.956	0.0158783
609.956	0.0162262
610.956	0.0165924
611.956	0.0169403
612.956	0.0172852
613.956	0.0176331
614.956	0.0179779
615.956	0.0183105
616.956	0.0186707
617.956	0.0189819
618.956	0.0193146
619.956	0.0196411
620.956	0.0199829
621.956	0.0203186
622.956	0.0206512
623.956	0.0209778
624.956	0.0212891
625.956	0.0216217
626.956	0.021933
627.956	0.0222473
628.956	0.0222168
629.956	0.0227997
630.956	0.0231903
631.956	0.0235474
632.956	0.0239227
633.956	0.0243134
634.956	0.0246857
635.956	0.0250763
636.956	0.0254639
637.956	0.0257782
638.956	0.0261719
639.956	0.0264526
640.956	0.0267731
641.956	0.0271545
642.956	0.0275238
643.956	0.0278809
644.956	0.0282379
645.956	0.028595
646.956	0.0289459
647.956	0.0293091
648.956	0.0296539
649.956	0.0299866
650.956	0.0301788
651.956	0.030603
652.956	0.0310394
653.956	0.031601
654.956	0.032132
655.956	0.0325989
656.956	0.0330505
657.956	0.0334991
658.956	0.0339203
659.956	0.0343292
660.956	0.034726
661.956	0.0350861
662.956	0.0354767
663.956	0.0358978
664.956	0.0363037
665.956	0.0367218
666.956	0.0371216
667.956	0.0375244
668.956	0.0379578
669.956	0.0383636
670.956	0.0387634
671.956	0.0391876
672.956	0.0395874
673.956	0.0400085
674.956	0.0404358
675.956	0.0408508
676.956	0.0412781
677.956	0.0416992
678.956	0.0421356
679.956	0.0425415
680.956	0.0429779
681.956	0.0433929
682.956	0.0438507
683.956	0.0442657
684.956	0.0446991
685.956	0.0451385
686.956	0.0456024
687.956	0.0460724
688.956	0.0465424
689.956	0.046994
690.956	0.0474487
691.956	0.0479126
692.956	0.0483765
693.956	0.0488464
694.956	0.0493134
695.956	0.0497742
696.956	0.0502625
697.956	0.0507507
698.956	0.0512085
699.956	0.0515747
700.956	0.0519409
701.956	0.0522766
702.956	0.0526428
703.956	0.0530701
704.956	0.0535278
705.956	0.0540161
706.956	0.0544739
707.956	0.0549316
708.956	0.0554199
709.956	0.0558777
710.956	0.056366
711.956	0.0568542
712.956	0.0573425
713.956	0.0578308
714.956	0.0583191
715.956	0.0587769
716.956	0.0592651
717.956	0.0597229
718.956	0.0602112
719.956	0.0606995
720.956	0.0611572
721.956	0.0616455
722.956	0.0621338
723.956	0.0625916
724.956	0.0630798
725.956	0.0636597
726.956	0.0642395
727.956	0.0647583
728.956	0.0652466
729.956	0.0657349
730.956	0.0662537
731.956	0.0667725
732.956	0.0672607
733.956	0.0678406
734.956	0.0684814
735.956	0.0690918
736.956	0.069519
737.956	0.0700684
738.956	0.0705566
739.956	0.0710449
740.956	0.0715027
741.956	0.0719604
742.956	0.0724182
743.956	0.0729065
744.956	0.0733643
745.956	0.0738831
746.956	0.0744324
747.956	0.0749512
748.956	0.07547
749.956	0.0759888
750.956	0.0765381
751.956	0.0770569
752.956	0.0775452
753.956	0.0780334
754.956	0.0784912
755.956	0.078949
756.956	0.0793762
757.956	0.0798035
758.956	0.0802612
759.956	0.080719
760.956	0.0811462