File: Edgar/20240529/20240529/electrodeposition_pulsed_potential_20240529_B/pulses_0_to_1000.txt
Time (s)	WE(1).Potential (V)	WE(1).Current (A)
181.699	-0.699615	-0.00446838
182.579	0.561401	-5.67627e-06
183.479	0.560394	2.53296e-06
184.339	-0.699646	-0.00345459
185.219	0.561554	-5.40161e-06
186.119	0.561249	-3.9978e-06
186.999	-0.000326538	0.000158142
187.859	0.560913	-1.00708e-06
188.759	0.560944	-1.34277e-06
189.639	0.000466919	3.01819e-05
190.499	0.560181	3.02124e-06
191.399	0.560272	2.31934e-06
192.299	0.560242	4.55322e-05
193.139	0.560547	1.83105e-07
194.039	0.560364	2.22778e-06
194.939	0.560272	1.44958e-05
195.779	0.561157	-3.69263e-06
196.679	0.560883	-1.25122e-06
197.579	0.560974	4.76074e-06
198.419	0.561249	-2.99072e-06
199.319	0.561523	-5.67627e-06
200.219	0.560028	6.01196e-06
201.059	0.560394	1.25122e-06
201.959	0.561554	-6.62231e-06
202.859	0.561493	-4.45557e-06
203.699	0.560181	3.23486e-06
204.599	0.560974	-2.41089e-06
205.499	0.560242	6.04248e-06
206.339	0.560486	7.62939e-07
207.239	0.560272	2.68555e-06
208.139	0.560272	5.52368e-06
208.999	-0.698822	-0.00524719
209.879	0.560272	3.57056e-06
210.779	0.560791	3.66211e-07
211.639	-0.699371	-0.00458649
212.519	0.560242	2.01416e-06
213.419	0.561249	-3.2959e-06
214.299	-1.2207e-05	0.000207581
215.159	0.561371	-2.53296e-06
216.059	0.560699	3.35693e-07
216.939	-0.000549316	-2.96021e-06
217.799	0.561005	-5.40161e-06
218.699	0.560181	3.69263e-06
219.599	0.560211	3.59497e-05
220.439	0.560028	4.3335e-06
221.339	0.561096	-3.78418e-06
222.239	0.56015	1.19934e-05
223.079	0.560577	7.93457e-07
223.979	0.56076	-2.01416e-06
224.879	0.561157	4.27246e-07
225.719	0.56134	-5.24902e-06
226.619	0.561401	-5.24902e-06
227.519	0.560303	5.46265e-06
228.359	0.561005	-1.52588e-06
229.259	0.560303	3.75366e-06
230.159	0.560364	3.20435e-06
230.999	0.560822	-2.01416e-06
231.899	0.56073	-4.88281e-07
232.799	0.560852	-1.89209e-06
233.639	0.560303	2.13623e-06
234.539	0.560883	-2.80762e-06
235.439	0.560852	-1.7395e-06
236.299	-0.698425	-0.00695984
237.179	0.560913	-2.22778e-06
238.079	0.560822	3.35693e-07
238.939	-0.699036	-0.00585175
239.819	0.56134	-4.69971e-06
240.719	0.561493	-4.57764e-06
241.599	-0.000149536	0.000419769
242.459	0.560272	2.89917e-06
243.359	0.560944	-2.22778e-06
244.239	0.000762939	-8.09631e-05
245.099	0.559998	3.84521e-06
245.999	0.560425	1.25122e-06
246.899	0.561218	2.28577e-05
247.739	0.560913	-1.52588e-07
248.639	0.561401	-4.42505e-06
249.539	0.560608	5.70679e-06
250.379	0.560577	2.96021e-06
251.279	0.56012	3.02124e-06
252.179	0.560547	4.3335e-06
253.019	0.560883	-2.16675e-06
253.919	0.561462	-6.43921e-06
254.819	0.561615	-5.43213e-06
255.659	0.56012	3.69263e-06
256.559	0.560089	3.93677e-06
257.459	0.561127	-1.25122e-06
258.299	0.561066	-3.63159e-06
259.199	0.561188	-3.44849e-06
260.099	0.561523	-5.92041e-06
260.939	0.560028	4.05884e-06
261.839	0.560211	3.60107e-06
262.739	0.561279	-3.93677e-06
263.599	-0.699432	-0.00832214
264.479	0.560944	-3.75366e-06
265.379	0.561462	-4.54712e-06
266.239	-0.698944	-0.00652802
267.119	0.560516	1.49536e-06
268.019	0.560272	1.83105e-07
268.899	-0.000289917	0.00129364
269.759	0.561584	-6.40869e-06
270.659	0.561218	-1.83105e-06
271.539	-0.000408936	-0.000104126
272.399	0.56134	-5.5542e-06
273.299	0.560547	6.10352e-07
274.199	0.560669	2.89917e-05
275.039	0.560394	2.38037e-06
275.939	0.560333	1.70898e-06
276.839	0.561096	3.9978e-06
277.679	0.560486	2.13623e-06
278.579	0.56134	-4.73022e-06
279.479	0.560211	6.5918e-06
280.319	0.56076	1.37329e-06
281.219	0.560547	1.34277e-06
282.119	0.560638	6.71387e-07
282.959	0.561066	-2.47192e-06
283.859	0.561127	-3.54004e-06
284.759	0.561401	-3.60107e-06
285.599	0.560242	1.61743e-06
286.499	0.560699	-9.15527e-08
287.399	0.561401	-4.05884e-06
288.239	0.560852	-1.37329e-06
289.139	0.561127	-3.96729e-06
290.039	0.561218	-2.92969e-06
290.899	-0.699402	-0.00932007
291.779	0.560791	-1.2207e-06
292.679	0.561462	-6.34766e-06
293.539	-0.698181	-0.00683319
294.419	0.560486	1.49536e-06
295.319	0.560089	4.48608e-06
296.199	0.000314331	0.00250732
297.059	0.560181	3.11279e-06
297.959	0.560822	-3.44849e-06
298.839	0.000585937	-0.000102203
299.699	0.561035	-2.41089e-06
300.599	0.560181	4.39453e-06
301.499	0.561249	2.96021e-05
302.339	0.560242	3.35693e-06
303.239	0.561554	-5.7373e-06
304.139	0.560364	9.91821e-06
304.979	0.560913	-1.52588e-07
305.879	0.56015	3.32642e-06
306.779	0.560181	7.44629e-06
307.619	0.56012	4.57764e-06
308.519	0.560303	1.80054e-06
309.419	0.561279	-5.79834e-07
310.259	0.560883	-1.25122e-06
311.159	0.560059	4.30298e-06
312.059	0.560913	5.18799e-07
312.899	0.560303	1.49536e-06
313.799	0.560272	2.56348e-06
314.699	0.560516	2.74658e-06
315.539	0.561401	-4.15039e-06
316.439	0.560638	-7.32422e-07
317.339	0.560883	-9.15527e-08
318.199	-0.699097	-0.0100372
319.079	0.56012	3.63159e-06
319.979	0.561554	-6.2561e-06
320.839	-0.698181	-0.00697479
321.719	0.561584	-7.84302e-06
322.619	0.560486	-8.8501e-07
323.499	0.000271606	0.00360016
324.359	0.560089	3.84521e-06
325.259	0.561371	-7.56836e-06
326.139	0.000527954	-6.01196e-05
326.999	0.56015	3.02124e-06
327.899	0.561707	-6.04248e-06
328.799	0.561401	3.37219e-05
329.639	0.560059	4.48608e-06
330.539	0.560883	-2.34985e-06
331.439	0.560272	1.25427e-05
332.279	0.561523	-4.27246e-06
333.179	0.561096	-3.57056e-06
334.079	0.561584	-2.01416e-06
334.919	0.559937	4.24194e-06
335.819	0.561584	-6.80542e-06
336.719	0.56015	6.34766e-06
337.559	0.561096	-7.01904e-07
338.459	0.561584	-7.23267e-06
339.359	0.560028	6.2561e-06
340.199	0.561554	-6.98853e-06
341.099	0.561462	-6.37817e-06
341.999	0.561493	-4.5166e-06
342.839	0.561493	-6.2561e-06
343.739	0.560059	3.35693e-06
344.639	0.56076	-9.46045e-07
345.499	-0.69928	-0.0106415
346.379	0.560211	2.50244e-06
347.279	0.560547	2.74658e-07
348.139	-0.69928	-0.00709045
349.019	0.561523	-6.5918e-06
349.919	0.559937	4.85229e-06
350.799	0.000689697	0.00444641
351.659	0.561432	-5.24902e-06
352.559	0.561462	-6.83594e-06
353.439	-0.000259399	9.79614e-06
354.299	0.560089	4.24194e-06
355.199	0.561676	-7.50732e-06
356.099	0.561462	4.03442e-05
356.939	0.561584	-7.01904e-06
357.839	0.56134	-4.5166e-06
358.739	0.560669	1.00098e-05
359.579	0.561523	-6.92749e-06
360.479	0.561157	-3.54004e-06
361.379	0.56015	1.01624e-05
362.219	0.559967	2.28882e-06
363.119	0.560181	2.28882e-06
364.019	0.561462	-1.80054e-06
364.859	0.560944	-1.80054e-06
365.759	0.560303	2.2583e-06
366.659	0.560059	6.65283e-06
367.499	0.561523	-6.89697e-06
368.399	0.561401	-5.52368e-06
369.299	0.561462	-5.0354e-06
370.139	0.560181	2.83813e-06
371.039	0.560364	1.49536e-06
371.939	0.561157	-2.99072e-06
372.799	-0.699097	-0.0111511
373.679	0.561249	-5.5542e-06
374.579	0.561401	-2.7771e-06
375.439	-0.698334	-0.007229
376.319	0.561401	-5.43213e-06
377.219	0.561005	-7.93457e-07
378.099	0.000357056	0.00509583
378.959	0.561188	-3.78418e-06
379.859	0.560791	-1.67847e-06
380.739	0.000756836	8.40454e-05
381.599	0.560272	2.89917e-06
382.499	0.561432	-5.52368e-06
383.399	0.560425	5.57251e-05
384.239	0.560089	2.2583e-06
385.139	0.561096	-2.2583e-06
386.039	0.561401	6.31714e-06
386.879	0.561127	-1.43433e-06
387.779	0.560852	-1.25122e-06
388.679	0.560181	8.94165e-06
389.519	0.561127	-8.23975e-07
390.419	0.560333	2.13623e-06
391.319	0.560059	7.72095e-06
392.159	0.560333	9.46045e-07
393.059	0.561493	-7.47681e-06
393.959	0.561584	-4.21143e-06
394.799	0.560242	3.11279e-06
395.699	0.56073	-1.19019e-06
396.599	0.560883	-1.31226e-06
397.439	0.56076	-2.16675e-06
398.339	0.560211	2.38037e-06
399.239	0.561127	-1.95313e-06
400.099	-0.699402	-0.0116302
400.979	0.560272	1.83105e-06
401.879	0.561279	-5.40161e-06
402.739	-0.698853	-0.0073587
403.619	0.560974	-3.11279e-06
404.519	0.561646	-3.75366e-06
405.399	0.000387573	0.00560272
406.259	0.561523	-6.19507e-06
407.159	0.56015	3.90625e-06
408.039	0.000500488	0.000183044
408.899	0.561005	-4.02832e-06
409.799	0.561401	-5.46265e-06
410.699	0.560272	6.38733e-05
411.539	0.560211	2.53296e-06
412.439	0.56131	-4.76074e-06
413.339	0.560364	1.53809e-05
414.179	0.561249	-3.35693e-06
415.079	0.560455	1.25122e-06
415.979	0.561462	1.2207e-06
416.819	0.56015	2.71606e-06
417.719	0.560486	8.54492e-07
418.619	0.56134	-8.8501e-07
419.459	0.561432	-5.40161e-06
420.359	0.560211	3.35693e-06
421.259	0.561371	-2.83813e-06
422.099	0.561188	-3.38745e-06
422.999	0.560669	-1.86157e-06
423.899	0.56131	-3.23486e-06
424.739	0.561462	-6.53076e-06
425.639	0.560425	9.15527e-07
426.539	0.56076	3.87573e-06
427.399	-0.69809	-0.0120972
428.279	0.561462	-5.85937e-06
429.179	0.560425	4.24194e-06
430.039	-0.699524	-0.00752563
430.919	0.560425	1.2207e-07
431.819	0.561401	-3.50952e-06
432.699	0.000790405	0.00601288
433.559	0.561554	-5.64575e-06
434.459	0.561462	-5.37109e-06
435.339	-0.000521851	0.000297028
436.199	0.560638	1.92261e-06
437.099	0.560486	1.70898e-06
437.999	0.56131	6.49719e-05
438.839	0.561401	-6.46973e-06
439.739	0.561005	-9.76562e-07
440.639	0.561615	7.78198e-06
441.479	0.560944	-2.89917e-06
442.379	0.560425	2.44141e-06
443.279	0.560272	1.03149e-05
444.119	0.56131	-6.13403e-06
445.019	0.560547	-4.88281e-07
445.919	0.561646	-1.2207e-06
446.759	0.560852	-3.35693e-06
447.659	0.560181	3.9978e-06
448.559	0.560577	7.93457e-07
449.399	0.560822	-2.53296e-06
450.299	0.560608	1.37329e-06
451.199	0.56015	5.79834e-06
452.039	0.561157	-5.43213e-06
452.939	0.561523	-7.26318e-06
453.839	0.561646	-4.79126e-06
454.699	-0.697968	-0.0125397
455.579	0.56134	-3.17383e-06
456.479	0.560211	5.12695e-06
457.339	-0.698395	-0.00771484
458.219	0.56015	4.60815e-06
459.119	0.561462	-5.06592e-06
459.999	-0.000384521	0.00636597
460.859	0.560211	3.2959e-06
461.759	0.561432	-4.97437e-06
462.639	0.000561523	0.000409698
463.499	0.560425	1.25122e-06
464.399	0.56012	3.69263e-06
465.299	0.560822	7.45544e-05
466.139	0.561462	-6.5918e-06
467.039	0.560211	4.5166e-06
467.939	0.560394	2.04468e-05
468.779	0.560272	2.22778e-06
469.679	0.561493	-3.54004e-06
470.579	0.561523	1.31226e-06
471.419	0.561401	-6.56128e-06
472.319	0.561646	-4.45557e-06
473.219	0.560883	2.65503e-06
474.059	0.561554	-7.14111e-06
474.959	0.561615	-6.13403e-06
475.859	0.561554	-1.98364e-06
476.699	0.561035	-2.13623e-06
477.599	0.560181	3.75366e-06
478.499	0.56073	1.46484e-06
479.339	0.561066	-1.58691e-06
480.239	0.560577	7.93457e-07
481.139	0.560638	1.2207e-06
481.999	-0.698059	-0.0129639
482.879	0.560669	-1.0376e-06
483.779	0.560333	3.78418e-06
484.639	-0.699615	-0.00787048
485.519	0.560883	-6.40869e-07
486.419	0.560272	3.63159e-06
487.299	-0.000424194	0.00665649
488.159	0.56134	-4.08936e-06
489.059	0.559998	5.00488e-06
489.939	0.00102234	0.000534058
490.799	0.561523	-6.46973e-06
491.699	0.559998	5.49316e-06
492.599	0.561584	8.19702e-05
493.439	0.560089	3.96729e-06
494.339	0.560028	5.49316e-06
495.239	0.560059	2.13928e-05
496.079	0.561462	-6.50024e-06
496.979	0.559998	5.43213e-06
497.879	0.560059	1.25427e-05
498.719	0.560242	1.25122e-06
499.619	0.560028	5.24902e-06
500.519	0.560669	5.64575e-06
501.359	0.56012	4.27246e-07
502.259	0.56012	5.0354e-06
503.159	0.56131	-5.18799e-07
503.999	0.560669	-1.40381e-06
504.899	0.560089	5.24902e-06
505.799	0.561249	-1.61743e-06
506.639	0.560822	-1.49536e-06
507.539	0.560455	2.59399e-06
508.439	0.560547	3.54004e-06
509.299	-0.699219	-0.0133728
510.179	0.561249	-2.59399e-06
511.079	0.560089	6.37817e-06
511.939	-0.699097	-0.00803223
512.819	0.560852	6.10352e-08
513.719	0.561676	-4.21143e-06
514.599	0.000793457	0.00692078
515.459	0.560577	5.49316e-07
516.359	0.560303	3.87573e-06
517.239	-4.88281e-05	0.000674133
518.099	0.561371	-4.24194e-06
518.999	0.560364	2.83813e-06
519.899	0.560181	0.000102081
520.739	0.560242	3.05176e-08
521.639	0.561432	-4.57764e-06
522.539	0.561066	1.57166e-05
523.379	0.561462	-6.01196e-06
524.279	0.561462	-6.16455e-06
525.179	0.561462	2.44141e-06
526.019	0.560333	2.38037e-06
526.919	0.560364	1.89209e-06
527.819	0.561584	9.15527e-08
528.659	0.560242	1.83105e-06
529.559	0.561432	-5.70679e-06
530.459	0.560364	3.93677e-06
531.299	0.561096	-3.2959e-06
532.199	0.560333	3.44849e-06
533.099	0.560211	4.02832e-06
533.939	0.56134	-5.43213e-06
534.839	0.561279	-4.66919e-06
535.739	0.561401	-3.93677e-06
536.599	-0.698517	-0.0137695
537.479	0.56012	3.17383e-06
538.379	0.561432	-4.66919e-06
539.239	-0.698212	-0.00821838
540.119	0.560852	-1.70898e-06
541.019	0.561554	-5.76782e-06
541.899	0.000946045	0.00715332
542.759	0.560547	-4.88281e-07
543.659	0.560059	5.52368e-06
544.539	0.000875854	0.000803833
545.399	0.560211	3.66211e-06
546.299	0.560242	4.05884e-06
547.199	0.561432	0.000106018
548.039	0.560852	-2.38037e-06
548.939	0.56076	3.35693e-07
549.839	0.561096	1.58691e-05
550.679	0.561462	-5.24902e-06
551.579	0.560852	-1.28174e-06
552.479	0.561127	5.61523e-06
553.319	0.561218	-3.60107e-06
554.219	0.560913	-4.57764e-07
555.119	0.560455	7.41577e-06
555.959	0.560577	-4.57764e-07
556.859	0.560608	1.43433e-06
557.759	0.561066	1.95313e-06
558.599	0.560547	9.46045e-07
559.499	0.560211	3.23486e-06
560.399	0.560455	3.9978e-06
561.239	0.560303	3.75366e-06
562.139	0.561401	-4.82178e-06
563.039	0.56015	5.37109e-06
563.899	-0.699158	-0.014151
564.779	0.560333	3.20435e-06
565.679	0.560577	1.15967e-06
566.539	-0.698639	-0.00838928
567.419	0.560394	1.06812e-06
568.319	0.561096	-2.99072e-06
569.199	-0.000512695	0.00735718
570.059	0.560699	5.79834e-07
570.959	0.56076	9.76562e-07
571.839	0.000802612	0.000935974
572.699	0.561523	-5.7373e-06
573.599	0.560913	1.89209e-06
574.499	0.561005	0.000119629
575.339	0.561554	-5.61523e-06
576.239	0.560242	4.66919e-06
577.139	0.560059	2.65503e-05
577.979	0.56015	4.69971e-06
578.879	0.56012	4.39453e-06
579.779	0.56134	5.98145e-06
580.619	0.559998	3.11279e-06
581.519	0.560303	1.77002e-06
582.419	0.561432	7.62939e-07
583.259	0.561157	-3.72314e-06
584.159	0.561584	-5.67627e-06
585.059	0.561005	1.37329e-06
585.899	0.561462	-4.69971e-06
586.799	0.560364	2.89917e-06
587.699	0.560669	4.18091e-06
588.539	0.560333	1.64795e-06
589.439	0.561493	-7.08008e-06
590.339	0.560638	4.73022e-06
591.199	-0.698792	-0.0145142
592.079	0.560669	4.57764e-07
592.979	0.56073	1.70898e-06
593.839	-0.698639	-0.00857544
594.719	0.560364	3.84521e-06
595.619	0.560181	2.89917e-06
596.499	0.000842285	0.00753479
597.359	0.561462	-7.38525e-06
598.259	0.561462	-5.58472e-06
599.139	-7.01904e-05	0.00107666
599.999	0.561188	-2.74658e-06
600.899	0.561188	-2.13623e-06
601.799	0.560669	0.000135315
602.639	0.561371	-4.88281e-06
603.539	0.560028	4.82178e-06
604.439	0.560059	2.91443e-05
605.279	0.560394	2.71606e-06
606.179	0.560608	-1.12915e-06
607.079	0.560303	1.55334e-05
607.919	0.561218	-4.24194e-06
608.819	0.56015	4.02832e-06
609.719	0.561554	1.67847e-06
610.559	0.56015	4.11987e-06
611.459	0.560333	3.63159e-06
612.359	0.561523	-1.70898e-06
613.199	0.561554	-5.98145e-06
614.099	0.560242	4.69971e-06
614.999	0.560089	7.90405e-06
615.839	0.560608	1.46484e-06
616.739	0.561523	-6.01196e-06
617.639	0.560608	3.08228e-06
618.499	-0.698395	-0.0148804
619.379	0.561371	-5.85937e-06
620.279	0.56012	6.46973e-06
621.139	-0.69928	-0.00872803
622.019	0.560089	4.82178e-06
622.919	0.561432	-3.11279e-06
623.799	-0.00045166	0.00771484
624.659	0.560089	2.68555e-06
625.559	0.560608	-1.52588e-07
626.439	0.000512695	0.00122284
627.299	0.561371	-4.91333e-06
628.199	0.561005	-2.13623e-07
629.099	0.561401	0.000146851
629.939	0.561279	-4.79126e-06
630.839	0.561218	-2.44141e-06
631.739	0.561279	2.27356e-05
632.579	0.561432	-2.0752e-06
633.479	0.560791	-1.12915e-06
634.379	0.560516	1.38245e-05
635.219	0.561523	-7.01904e-06
636.119	0.561371	-4.5166e-06
637.019	0.561188	2.7771e-06
637.859	0.56131	-4.54712e-06
638.759	0.560791	-1.92261e-06
639.659	0.560089	9.73511e-06
640.499	0.56073	9.46045e-07
641.399	0.561584	-6.62231e-06
642.299	0.561707	-2.59399e-06
643.139	0.559998	4.30298e-06
644.039	0.561096	-2.89917e-06
644.939	0.561401	-3.08228e-06
645.799	-0.698334	-0.0151978
646.679	0.561615	-7.62939e-06
647.579	0.561554	-3.50952e-06
648.439	-0.698639	-0.00888977
649.319	0.561554	-6.95801e-06
650.219	0.560059	6.19507e-06
651.099	-6.10352e-06	0.00785522
651.959	0.56012	3.44849e-06
652.859	0.560089	5.61523e-06
653.739	0.000958252	0.00136108
654.599	0.561279	-4.21143e-06
655.499	0.560333	1.52588e-06
656.399	0.561218	0.000168396
657.239	0.56076	-1.98364e-06
658.139	0.560944	-2.62451e-06
659.039	0.561371	2.31934e-05
659.879	0.561157	-2.99072e-06
660.779	0.561127	-4.82178e-06
661.679	0.56012	1.80054e-05
662.519	0.560425	1.52588e-07
663.419	0.560913	-4.91333e-06
664.319	0.561432	2.47192e-06
665.159	0.56012	5.43213e-06
666.059	0.561371	-4.76074e-06
666.959	0.561432	-6.10352e-08
667.799	0.560638	-1.83105e-06
668.699	0.560486	1.0376e-06
669.599	0.560333	7.75146e-06
670.439	0.560394	2.0752e-06
671.339	0.561371	-5.67627e-06
672.239	0.56015	7.72095e-06
673.099	-0.698761	-0.0155212
673.979	0.561066	-2.83813e-06
674.879	0.561188	1.43433e-06
675.739	-0.698608	-0.00904541
676.619	0.561157	-2.04468e-06
677.519	0.559937	4.3335e-06
678.399	-0.000421143	0.00799561
679.259	0.560638	2.59399e-06
680.159	0.560181	5.61523e-06
681.039	-0.000564575	0.00150696
681.899	0.560577	1.89209e-06
682.799	0.560364	4.60815e-06
683.699	0.561462	0.000182953
684.539	0.560089	3.14331e-06
685.439	0.560974	-7.32422e-07
686.339	0.560425	3.14636e-05
687.179	0.560089	4.27246e-06
688.079	0.561554	-6.37817e-06
688.979	0.559937	1.98975e-05
689.819	0.560059	3.69263e-06
690.719	0.56134	-4.36401e-06
691.619	0.560059	1.35193e-05
692.459	0.561523	-7.53784e-06
693.359	0.560577	2.96021e-06
694.259	0.56134	2.86865e-06
695.099	0.560028	3.35693e-06
695.999	0.560272	6.46973e-06
696.899	0.560913	2.89917e-06
697.739	0.561401	-6.5918e-06
698.639	0.56076	-8.23975e-07
699.539	0.56015	7.38525e-06
700.399	-0.698517	-0.0158539
701.279	0.561615	-6.01196e-06
702.179	0.560547	2.19727e-06
703.039	-0.698456	-0.00923767
703.919	0.560547	-8.8501e-07
704.819	0.560089	6.86646e-06
705.699	-0.000393677	0.00814514
706.559	0.561035	-3.17383e-06
707.459	0.561737	-3.08228e-06
708.339	0.000396729	0.00163116
709.199	0.561432	-6.04248e-06
710.099	0.560638	2.59399e-06
710.999	0.560181	0.000212708
711.839	0.560211	5.09644e-06
712.739	0.561584	-4.94385e-06
713.639	0.561035	2.86255e-05
714.479	0.560944	1.15967e-06
715.379	0.561066	-1.7395e-06
716.279	0.559998	1.99585e-05
717.119	0.560303	2.2583e-06
718.019	0.559998	5.92041e-06
718.919	0.560913	8.30078e-06
719.759	0.56076	-3.479e-06
720.659	0.560059	4.94385e-06
721.559	0.560577	5.67627e-06
722.399	0.561584	-7.93457e-06
723.299	0.56015	3.50952e-06
724.199	0.560059	1.07117e-05
725.039	0.560272	1.98364e-06
725.939	0.561279	-4.85229e-06
726.839	0.56131	-4.57764e-07
727.699	-0.699066	-0.016156
728.579	0.561707	-8.08716e-06
729.479	0.560547	3.08228e-06
730.339	-0.699585	-0.00938416
731.219	0.561493	-6.71387e-06
732.119	0.560089	5.79834e-06
732.999	0.000744629	0.00826721
733.859	0.561523	-6.40869e-06
734.759	0.560577	2.92969e-06
735.639	-0.000445557	0.00177612
736.499	0.561279	-4.42505e-06
737.399	0.560669	2.92969e-06
738.299	0.561676	0.000225159
739.139	0.561676	-7.53784e-06
740.039	0.561218	-5.31006e-06
740.939	0.561615	2.62451e-05
741.779	0.560333	1.70898e-06
742.679	0.560242	6.80542e-06
743.579	0.561584	1.0376e-05
744.419	0.560272	4.05884e-06
745.319	0.561554	-4.73022e-06
746.219	0.561432	3.96729e-06
747.059	0.560669	1.31226e-06
747.959	0.561401	-4.05884e-06
748.859	0.560333	8.78906e-06
749.699	0.561432	-5.18799e-06
750.599	0.56131	-3.87573e-06
751.499	0.559998	1.02234e-05
752.339	0.560455	4.27246e-07
753.239	0.560211	3.05176e-06
754.139	0.561127	-1.58691e-06
754.999	-0.697937	-0.0164734
755.879	0.560486	1.43433e-06
756.779	0.560181	6.22559e-06
757.639	-0.699615	-0.0095459
758.519	0.561707	-5.67627e-06
759.419	0.560455	4.02832e-06
760.299	0.000857544	0.00837402
761.159	0.561707	-6.80542e-06
762.059	0.560425	5.18799e-06
762.939	0.000106812	0.00190704
763.799	0.560669	7.93457e-07
764.699	0.560028	6.86646e-06
765.599	0.561768	0.000259186
766.439	0.560028	3.75366e-06
767.339	0.561279	-3.84521e-06
768.239	0.561066	3.48511e-05
769.079	0.560547	1.2207e-07
769.979	0.561523	-4.94385e-06
770.879	0.560394	1.94397e-05
771.719	0.56015	4.45557e-06
772.619	0.560852	2.16675e-06
773.519	0.560272	1.28174e-05
774.359	0.561127	-1.5564e-06
775.259	0.561615	-6.04248e-06
776.159	0.560181	1.00403e-05
776.999	0.560211	-8.8501e-07
777.899	0.561035	-1.06812e-06
778.799	0.560272	7.84302e-06
779.639	0.560883	-3.38745e-06
780.539	0.561493	-4.57764e-06
781.439	0.560364	6.28662e-06
782.299	-0.698364	-0.0167664
783.179	0.560425	1.67847e-06
784.079	0.560181	8.3313e-06
784.939	-0.699615	-0.00971985
785.819	0.560028	5.18799e-06
786.719	0.560089	7.69043e-06
787.599	0.000680542	0.00847168
788.459	0.561005	2.74658e-07
789.359	0.560425	4.08936e-06
790.239	0.000823975	0.00201904
791.099	0.560669	1.25122e-06
791.999	0.560089	6.40869e-06
792.899	0.561493	0.000307556
793.739	0.561523	-6.10352e-06
794.639	0.561523	-3.9978e-06
795.539	0.560577	3.69263e-05
796.379	0.560272	2.04468e-06
797.279	0.561584	-5.64575e-06
798.179	0.559937	2.3407e-05
799.019	0.56012	3.9978e-06
799.919	0.56015	5.24902e-06
800.819	0.560089	1.5686e-05
801.659	0.561462	-4.42505e-06
802.56	0.560272	6.65283e-06
803.46	0.560242	1.04675e-05
804.3	0.56076	1.09863e-06
805.2	0.560028	5.82886e-06
806.1	0.561401	7.01904e-07
806.94	0.561584	-5.92041e-06
807.84	0.561218	-1.5564e-06
808.74	0.560028	9.552e-06
809.6	-0.697784	-0.017038
810.48	0.561523	-4.94385e-06
811.38	0.561615	-3.54004e-06
812.24	-0.699432	-0.00989075
813.12	0.560394	2.38037e-06
814.02	0.561371	-5.79834e-07
814.9	-0.00027771	0.00854492
815.76	0.561432	-4.66919e-06
816.66	0.561707	-3.50952e-06
817.54	0.000680542	0.0021402
818.4	0.560577	2.59399e-06
819.3	0.560577	2.2583e-06
820.2	0.560883	0.00039621
821.04	0.560059	4.76074e-06
821.94	0.560913	-1.52588e-07
822.84	0.560028	4.19312e-05
823.68	0.560059	5.00488e-06
824.58	0.561615	-6.01196e-06
825.48	0.56015	2.18506e-05
826.32	0.561584	-6.7749e-06
827.22	0.560303	4.45557e-06
828.12	0.561676	5.15747e-06
828.96	0.560486	1.0376e-06
829.86	0.560455	2.59399e-06
830.76	0.561401	4.42505e-06
831.6	0.560455	7.62939e-07
832.5	0.561371	-7.41577e-06
833.4	0.561523	3.66211e-07
834.24	0.560059	4.79126e-06
835.14	0.561493	-3.72314e-06
836.04	0.56012	8.45337e-06
836.9	-0.698792	-0.0173248
837.78	0.561554	-5.85937e-06
838.68	0.56134	-1.83105e-06
839.54	-0.698395	-0.0100647
840.42	0.561462	-5.0354e-06
841.32	0.561554	-4.54712e-06
842.2	-0.000561523	0.00864258
843.06	0.561462	-5.27954e-06
843.96	0.561035	5.79834e-07
844.84	0.00103149	0.00225128
845.7	0.559998	5.43213e-06
846.6	0.56076	2.89917e-06
847.5	0.560425	0.00059021
848.34	0.561646	-4.45557e-06
849.24	0.560028	6.01196e-06
850.14	0.561523	3.43018e-05
850.98	0.561401	-7.01904e-06
851.88	0.560089	3.66211e-06
852.78	0.560974	1.80054e-05
853.62	0.560669	2.74658e-07
854.52	0.560608	2.65503e-06
855.42	0.56073	1.1261e-05
856.26	0.56015	5.79834e-06
857.16	0.560883	-1.70898e-06
858.06	0.561646	1.52588e-07
858.9	0.560822	3.66211e-07
859.8	0.559998	5.58472e-06
860.7	0.559937	1.14136e-05
861.54	0.561401	-5.40161e-06
862.44	0.560028	7.2937e-06
863.34	0.560303	8.39233e-06
864.2	-0.698151	-0.0175751
865.08	0.560242	3.35693e-07
865.98	0.561462	-3.60107e-06
866.84	-0.698578	-0.0102325
867.72	0.561401	-4.36401e-06
868.62	0.561279	-2.89917e-06
869.5	0.000350952	0.00869751
870.36	0.561401	-5.09644e-06
871.26	0.561493	-3.8147e-06
872.14	0.000350952	0.00236969
873	0.561127	-2.89917e-06
873.9	0.561371	-1.86157e-06
874.8	0.561646	0.00124268
875.64	0.561432	-4.54712e-06
876.54	0.560822	-1.28174e-06
877.44	0.560028	4.61426e-05
878.28	0.560211	4.97437e-06
879.18	0.561462	-4.97437e-06
880.08	0.56076	1.88599e-05
880.92	0.560303	3.41797e-06
881.82	0.560089	4.45557e-06
882.72	0.560852	1.14441e-05
883.56	0.561462	-5.37109e-06
884.46	0.560089	5.09644e-06
885.36	0.560333	8.5144e-06
886.2	0.560272	4.08936e-06
887.1	0.561462	-5.34058e-06
888	0.560974	4.48608e-06
888.84	0.560089	3.84521e-06
889.74	0.559937	5.43213e-06
890.64	0.561432	-7.93457e-07
891.5	-0.698059	-0.0178406
892.38	0.560059	4.08936e-06
893.28	0.561523	-2.53296e-06
894.14	-0.699463	-0.0103851
895.02	0.560181	2.7771e-06
895.92	0.560852	4.88281e-07
896.8	-0.000402832	0.00878601
897.66	0.561432	-4.73022e-06
898.56	0.561096	-1.52588e-06
899.44	0.000994873	0.00248505
900.3	0.561035	-2.83813e-06
901.2	0.559906	6.71387e-06
902.1	0.562439	0.00369873
902.94	0.560181	3.41797e-06
903.84	0.560455	4.5166e-06
904.74	0.560211	4.70581e-05
905.58	0.559906	4.36401e-06
906.48	0.561584	-4.54712e-06
907.38	0.560181	2.51465e-05
908.22	0.560242	5.88989e-06
909.12	0.56134	-2.62451e-06
910.02	0.561462	6.16455e-06
910.86	0.560089	6.31714e-06
911.76	0.560028	4.57764e-06
912.66	0.560516	8.69751e-06
913.5	0.560028	5.37109e-06
914.4	0.561462	-6.2561e-06
915.3	0.561096	1.34277e-06
916.14	0.560852	-1.00708e-06
917.04	0.560059	5.95093e-06
917.94	0.560852	2.92969e-06
918.8	-0.698517	-0.0180664
919.68	0.560364	4.15039e-06
920.58	0.561401	-1.19019e-06
921.44	-0.69812	-0.0105316
922.32	0.560059	3.78418e-06
923.22	0.561157	-2.71606e-06
924.1	-0.000622559	0.00882568
924.96	0.560638	-7.93457e-07
925.86	0.561493	-4.60815e-06
926.74	0.00085144	0.00259979
927.6	0.560608	-5.18799e-07
928.5	0.561096	-2.62451e-06
929.4	0.560638	0.0065863
930.24	0.560974	-1.40381e-06
931.14	0.561584	-7.01904e-06
932.04	0.561584	3.92761e-05
932.88	0.560486	7.93457e-07
933.78	0.560089	5.40161e-06
934.68	0.560242	2.35596e-05
935.52	0.561523	-7.99561e-06
936.42	0.560242	4.21143e-06
937.32	0.560974	1.2146e-05
938.16	0.561371	-5.82886e-06
939.06	0.560364	3.08228e-06
939.96	0.561523	4.30298e-06
940.8	0.560425	4.63867e-06
941.7	0.561462	-4.42505e-06
942.6	0.560547	9.42993e-06
943.44	0.560028	5.49316e-06
944.34	0.561279	-3.63159e-06
945.24	0.559967	9.3689e-06
946.1	-0.699066	-0.01828
946.98	0.560883	7.32422e-07
947.88	0.56134	2.13623e-07
948.74	-0.698212	-0.0106842
949.62	0.560669	5.18799e-07
950.52	0.56012	8.54492e-06
951.4	-0.000689697	0.00886841
952.26	0.560944	-2.04468e-06
953.16	0.560028	7.2937e-06
954.04	-0.00043335	0.00272156
954.9	0.561584	-6.83594e-06
955.8	0.560089	6.53076e-06
956.7	0.559998	0.0078125
957.54	0.561584	-5.5542e-06
958.44	0.560944	1.89209e-06
959.34	0.560059	5.16663e-05
960.18	0.56012	3.05176e-06
961.08	0.560577	1.83105e-06
961.98	0.561493	1.61133e-05
962.82	0.561646	-4.57764e-06
963.72	0.561127	-2.59399e-06
964.62	0.561127	1.17798e-05
965.46	0.560516	-3.96729e-07
966.36	0.561493	-5.85937e-06
967.26	0.561096	8.42285e-06
968.1	0.561646	-5.95093e-06
969	0.559998	4.76074e-06
969.9	0.56076	6.74438e-06
970.74	0.561615	-6.56128e-06
971.64	0.561523	-5.24902e-06
972.54	0.561066	3.17383e-06
973.4	-0.6987	-0.0184937
974.28	0.561035	-7.1106e-06
975.18	0.561401	-1.67847e-06
976.04	-0.699371	-0.0108215
976.92	0.560089	4.91333e-06
977.82	0.561462	-2.13623e-07
978.7	0.0006073	0.00892639
979.56	0.561584	-6.46973e-06
980.46	0.559967	6.71387e-06
981.34	0.000653076	0.00281708
982.2	0.56012	5.18799e-06
983.1	0.560028	7.23267e-06
984	0.560181	0.00856323
984.84	0.560455	1.09863e-06
985.74	0.560547	-1.2207e-06
986.64	0.560852	5.00793e-05
987.48	0.559998	5.46265e-06
988.38	0.561584	-4.30298e-06
989.28	0.561615	1.65405e-05
990.12	0.561096	-4.24194e-06
991.02	0.560913	2.74658e-07
991.92	0.561401	1.01929e-05
992.76	0.560028	4.5166e-06
993.66	0.560638	-3.66211e-07
994.56	0.560059	1.37634e-05
995.4	0.56073	-6.10352e-07
996.3	0.560791	-5.49316e-07
997.2	0.561615	2.22778e-06
998.04	0.560303	4.27246e-07
998.94	0.560089	2.22778e-06
999.84	0.560455	7.50732e-06
1000.7	-0.698792	-0.0187103
1001.58	0.560394	2.53296e-06
1002.48	0.560059	8.54492e-06
1003.34	-0.699341	-0.0109802
1004.22	0.561462	-5.24902e-06
1005.12	0.560944	1.09863e-06
1006	0.000686646	0.00896606
1006.86	0.560059	3.32642e-06
1007.76	0.56073	3.60107e-06
1008.64	-7.01904e-05	0.00291107
1009.5	0.561188	-4.5166e-06
1010.4	0.560638	5.43213e-06
1011.3	0.561157	0.00917053
1012.14	0.560822	-1.67847e-06
1013.04	0.561584	-3.78418e-06
1013.94	0.561584	4.58374e-05
1014.78	0.560516	2.56348e-06
1015.68	0.560791	4.27246e-07
1016.58	0.560211	2.78625e-05
1017.42	0.561523	-7.56836e-06
1018.32	0.56015	4.97437e-06
1019.22	0.560608	1.61438e-05
1020.06	0.560852	-1.80054e-06
1020.96	0.560669	2.38037e-06
1021.86	0.560028	1.62964e-05
1022.7	0.560181	3.38745e-06
1023.6	0.561127	-3.41797e-06
1024.5	0.560516	8.8501e-06
1025.34	0.56015	2.28882e-06
1026.24	0.560883	-4.15039e-06
1027.14	0.560089	1.14441e-05
1028	-0.699036	-0.0189331
1028.88	0.560425	2.28882e-06
1029.78	0.561523	-1.46484e-06
1030.64	-0.698517	-0.011145
1031.52	0.561615	-6.65283e-06
1032.42	0.561249	9.15527e-07
1033.3	-0.000732422	0.00901489
1034.16	0.560516	2.41089e-06
1035.06	0.559937	8.05664e-06
1035.94	-0.000430298	0.00300781
1036.8	0.56073	5.79834e-07
1037.7	0.560822	1.58691e-06
1038.6	0.560059	0.00968323
1039.44	0.559937	2.71606e-06
1040.34	0.56015	6.31714e-06
1041.24	0.560455	5.77393e-05
1042.08	0.56076	-5.18799e-07
1042.98	0.560211	6.40869e-06
1043.88	0.560242	2.79541e-05
1044.72	0.561005	-4.15039e-06
1045.62	0.560883	3.96729e-07
1046.52	0.560913	1.171875E-05
1047.36	0.561554	-5.64575e-06
1048.26	0.560913	-2.31934e-06
1049.16	0.56134	6.16455e-06
1050	0.560028	3.02124e-06
1050.9	0.560059	4.36401e-06
1051.8	0.561523	2.01416e-06
1052.64	0.560516	-1.09863e-06
1053.54	0.56015	4.42505e-06
1054.44	0.560059	9.82666e-06
1055.3	-0.698242	-0.0191406
1056.18	0.560883	9.15527e-08
1057.08	0.559998	9.70459e-06
1057.94	-0.698059	-0.0112946
1058.82	0.560791	-2.13623e-07
1059.72	0.561401	1.06812e-06
1060.6	0.000442505	0.00904541
1061.46	0.559875	6.34766e-06
1062.36	0.560455	4.97437e-06
1063.24	-0.000579834	0.00310547
1064.1	0.560944	-5.18799e-07
1065	0.560089	7.08008e-06
1065.9	0.560211	0.0101257
1066.74	0.560791	-4.57764e-07
1067.64	0.56076	2.38037e-06
1068.54	0.560699	5.72815e-05
1069.38	0.560944	-7.62939e-07
1070.28	0.560455	3.54004e-06
1071.18	0.560028	3.01514e-05
1072.02	0.56131	-4.18091e-06
1072.92	0.56076	3.50952e-06
1073.82	0.560516	1.51367e-05
1074.66	0.560974	-1.98364e-06
1075.56	0.560608	1.2207e-06
1076.46	0.560974	8.42285e-06
1077.3	0.561707	-6.50024e-06
1078.2	0.561584	-5.37109e-06
1079.1	0.561584	4.88281e-07
1079.94	0.561584	-8.69751e-06
1080.84	0.560913	-2.22778e-06
1081.74	0.56073	7.17163e-06
1082.6	-0.698822	-0.019342
1083.48	0.56012	4.97437e-06
1084.38	0.561646	-3.32642e-06
1085.24	-0.699005	-0.0114319
1086.12	0.560822	-3.08228e-06
1087.02	0.561646	-1.40381e-06
1087.9	-0.000137329	0.00908508
1088.76	0.56076	-3.05176e-08
1089.66	0.561554	-2.74658e-06
1090.54	-0.000439453	0.00319031
1091.4	0.561584	-5.79834e-06
1092.3	0.560547	4.18091e-06
1093.2	0.559601	0.010498
1094.04	0.560699	3.05176e-08
1094.94	0.56015	6.62231e-06
1095.84	0.56012	6.26526e-05
1096.68	0.560364	2.01416e-06
1097.58	0.561646	-5.34058e-06
1098.48	0.560699	2.43225e-05
1099.32	0.560699	-3.05176e-07
1100.22	0.561249	-3.479e-06
1101.12	0.561371	1.10474e-05
1101.96	0.559937	4.27246e-06
1102.86	0.561584	-2.92969e-06
1103.76	0.561096	6.86646e-06
1104.6	0.560577	1.52588e-07
1105.5	0.560059	6.01196e-06
1106.4	0.56131	3.14331e-06
1107.24	0.560455	-3.05176e-07
1108.14	0.561127	-2.71606e-06
1109.04	0.561584	-8.8501e-07
1109.9	-0.697906	-0.0195557
1110.78	0.56131	-1.52588e-06
1111.68	0.561584	-2.2583e-06
1112.54	-0.699066	-0.0115875
1113.42	0.560028	5.18799e-06
1114.32	0.561401	-7.01904e-07
1115.2	-0.000259399	0.00913391
1116.06	0.560028	5.06592e-06
1116.96	0.560303	6.5918e-06
1117.84	0.000985718	0.00325989
1118.7	0.560303	2.92969e-06
1119.6	0.560211	5.5542e-06
1120.5	0.560852	0.0108185
1121.34	0.560608	-4.57764e-07
1122.24	0.560547	6.10352e-07
1123.14	0.560028	6.48804e-05
1123.98	0.561371	-3.78418e-06
1124.88	0.56134	-2.47192e-06
1125.78	0.560425	2.83203e-05
1126.62	0.560822	-4.76074e-06
1127.52	0.56012	5.7373e-06
1128.42	0.560883	1.50146e-05
1129.26	0.561523	-4.63867e-06
1130.16	0.561646	-4.05884e-06
1131.06	0.560394	1.14746e-05
1131.9	0.561493	-7.62939e-06
1132.8	0.561523	-4.08936e-06
1133.7	0.561584	2.50244e-06
1134.54	0.560913	-2.22778e-06
1135.44	0.560303	5.76782e-06
1136.34	0.560242	8.97217e-06
1137.2	-0.698792	-0.0197601
1138.08	0.561401	-3.23486e-06
1138.98	0.559998	9.46045e-06
1139.84	-0.699402	-0.0117584
1140.72	0.560516	7.32422e-07
1141.62	0.56076	3.54004e-06
1142.5	0.000552368	0.00915833
1143.36	0.560944	-2.56348e-06
1144.26	0.560791	1.83105e-07
1145.14	0.000689697	0.00334656
1146	0.559998	6.34766e-06
1146.9	0.560333	5.61523e-06
1147.8	0.559631	0.0111237
1148.64	0.560059	6.74438e-06
1149.54	0.561615	-3.78418e-06
1150.44	0.561432	5.58777e-05
1151.28	0.560699	1.70898e-06
1152.18	0.561554	-4.69971e-06
1153.08	0.559937	3.05176e-05
1153.92	0.561249	-3.20435e-06
1154.82	0.561249	-2.47192e-06
1155.72	0.561615	1.0437e-05
1156.56	0.561035	-2.38037e-06
1157.46	0.560059	7.8125e-06
1158.36	0.561554	5.21851e-06
1159.2	0.561096	-3.9978e-06
1160.1	0.561432	-4.24194e-06
1161	0.561493	2.47192e-06
1161.84	0.561493	-6.83594e-06
1162.74	0.560516	2.04468e-06
1163.64	0.560028	1.10779e-05
1164.5	-0.697876	-0.0199768
1165.38	0.561493	-5.24902e-06
1166.28	0.561523	1.61743e-06
1167.14	-0.698059	-0.0119141
1168.02	0.561523	-3.60107e-06
1168.92	0.561646	-2.86865e-06
1169.8	0.000686646	0.00917358
1170.66	0.560059	7.72095e-06
1171.56	0.559998	7.38525e-06
1172.44	-0.000250244	0.00342804
1173.3	0.561157	-3.38745e-06
1174.2	0.561218	-4.88281e-07
1175.1	0.56131	0.0114014
1175.94	0.560516	-3.05176e-08
1176.84	0.560242	5.21851e-06
1177.74	0.560364	6.54297e-05
1178.58	0.561523	-5.64575e-06
1179.48	0.560547	6.28662e-06
1180.38	0.56073	2.74353e-05
1181.22	0.561279	-5.46265e-06
1182.12	0.560638	1.09863e-06
1183.02	0.56073	1.69067e-05
1183.86	0.560577	1.00708e-06
1184.76	0.561218	-3.20435e-06
1185.66	0.560059	1.67847e-05
1186.5	0.560333	1.86157e-06
1187.4	0.561035	-1.46484e-06
1188.3	0.559998	1.33362e-05
1189.14	0.560638	-2.44141e-07
1190.04	0.559937	6.40869e-06
1190.94	0.56012	1.0498e-05
1191.8	-0.69751	-0.0201447
1192.68	0.560638	1.83105e-07
1193.58	0.560455	7.04956e-06
1194.44	-0.69931	-0.0120575
1195.32	0.561462	-4.18091e-06
1196.22	0.560089	7.59888e-06
1197.1	-0.000683594	0.009198
1197.96	0.559998	5.34058e-06
1198.86	0.560181	9.73511e-06
1199.74	0.00101318	0.00349365
1200.6	0.561005	-7.93457e-07
1201.5	0.56012	6.86646e-06
1202.4	0.559937	0.0116577
1203.24	0.559998	6.83594e-06
1204.14	0.56134	-2.2583e-06
1205.04	0.561157	6.41479e-05
1205.88	0.560364	3.02124e-06
1206.78	0.561493	-4.36401e-06
1207.68	0.56012	3.31726e-05
1208.52	0.560425	3.38745e-06
1209.42	0.561462	-2.71606e-06
1210.32	0.561401	1.2207e-05
1211.16	0.561279	-4.76074e-06
1212.06	0.560333	6.43921e-06
1212.96	0.561584	5.12695e-06
1213.8	0.560059	4.21143e-06
1214.7	0.560181	6.13403e-06
1215.6	0.560883	7.01904e-06
1216.44	0.560791	3.35693e-07
1217.34	0.561218	-2.0752e-06
1218.24	0.560181	8.72803e-06
1219.1	-0.698914	-0.0203308
1219.98	0.560883	-7.93457e-07
1220.88	0.560486	6.5918e-06
1221.74	-0.69928	-0.0122101
1222.62	0.559967	4.39453e-06
1223.52	0.56012	8.54492e-06
1224.4	0.000750732	0.00922241
1225.26	0.56134	-3.17383e-06
1226.16	0.561401	-2.04468e-06
1227.04	-0.000140381	0.00356903
1227.9	0.560303	4.66919e-06
1228.8	0.560883	6.40869e-07
1229.7	0.559906	0.0118927
1230.54	0.56134	-3.69263e-06
1231.44	0.561401	2.13623e-07
1232.34	0.560242	6.88477e-05
1233.18	0.560852	7.62939e-07
1234.08	0.561523	-4.27246e-06
1234.98	0.560669	2.87476e-05
1235.82	0.561493	-5.27954e-06
1236.72	0.561493	-4.11987e-06
1237.62	0.561523	1.29395e-05
1238.46	0.56134	-4.36401e-06
1239.36	0.56012	7.17163e-06
1240.26	0.559998	1.69067e-05
1241.1	0.560425	2.19727e-06
1242	0.561584	-6.073e-06
1242.9	0.560028	1.36719e-05
1243.74	0.561432	-4.48608e-06
1244.64	0.561523	-2.41089e-06
1245.54	0.560944	5.34058e-06
1246.4	-0.697449	-0.0205078
1247.28	0.561096	-1.89209e-06
1248.18	0.560791	3.02124e-06
1249.04	-0.69928	-0.0123535
1249.92	0.561096	-2.13623e-06
1250.82	0.561462	-1.49536e-06
1251.7	0.00038147	0.00923462
1252.56	0.561127	-2.59399e-06
1253.46	0.56012	1.03455e-05
1254.34	0.000274658	0.00362885
1255.2	0.560822	2.19727e-06
1256.1	0.561584	-3.60107e-06
1257	0.559753	0.0121124
1257.84	0.560455	3.87573e-06
1258.74	0.56012	5.52368e-06
1259.64	0.561462	6.36597e-05
1260.48	0.560577	2.86865e-06
1261.38	0.560699	1.61743e-06
1262.28	0.56073	2.74963e-05
1263.12	0.561493	-5.79834e-06
1264.02	0.561676	-4.63867e-06
1264.92	0.560242	2.12708e-05
1265.76	0.560699	-2.13623e-06
1266.66	0.561432	-3.38745e-06
1267.56	0.561554	6.28662e-06
1268.4	0.561584	-5.61523e-06
1269.3	0.560181	4.45557e-06
1270.2	0.560059	1.32446e-05
1271.04	0.561462	-4.21143e-06
1271.94	0.561523	-5.64575e-06
1272.84	0.560333	1.11389e-05
1273.7	-0.69873	-0.0206818
1274.58	0.560516	6.40869e-07
1275.48	0.561646	-4.57764e-07
1276.34	-0.699371	-0.0125031
1277.22	0.559906	5.27954e-06
1278.12	0.560974	1.89209e-06
1279	0.000161743	0.00924988
1279.86	0.56015	4.05884e-06
1280.76	0.560303	4.88281e-06
1281.64	0.000186157	0.003685
1282.5	0.560333	3.63159e-06
1283.4	0.561127	-1.0376e-06
1284.3	0.56076	0.0123169
1285.14	0.56131	-4.94385e-06
1286.04	0.560883	2.7771e-06
1286.94	0.560272	7.33032e-05
1287.78	0.559967	6.22559e-06
1288.68	0.561066	-3.05176e-07
1289.58	0.561035	2.87476e-05
1290.42	0.560852	-2.13623e-07
1291.32	0.561401	-3.479e-06
1292.22	0.561523	1.24207e-05
1293.06	0.561127	-2.38037e-06
1293.96	0.559998	5.85937e-06
1294.86	0.561005	1.01013e-05
1295.7	0.560883	-3.26538e-06
1296.6	0.561279	-5.79834e-06
1297.5	0.560516	9.67407e-06
1298.34	0.559937	5.95093e-06
1299.24	0.561554	-6.37817e-06
1300.14	0.561493	1.52588e-07
1301	-0.698792	-0.0208191
1301.88	0.561523	-5.52368e-06
1302.78	0.560516	6.34766e-06
1303.64	-0.699524	-0.0126434
1304.52	0.560486	2.68555e-06
1305.42	0.561707	-2.53296e-06
1306.3	0.000466919	0.00923157
1307.16	0.560913	-2.80762e-06
1308.06	0.560028	8.91113e-06
1308.94	0.000982666	0.00373444
1309.8	0.561157	-8.54492e-07
1310.7	0.561493	-2.65503e-06
1311.6	0.560699	0.0125061
1312.44	0.560455	2.01416e-06
1313.34	0.560669	3.50952e-06
1314.24	0.560303	7.35474e-05
1315.08	0.561432	-4.66919e-06
1315.98	0.56131	-2.74658e-06
1316.88	0.561646	2.38037e-05
1317.72	0.561462	-5.34058e-06
1318.62	0.560059	4.54712e-06
1319.52	0.561584	1.21155e-05
1320.36	0.559967	4.08936e-06
1321.26	0.561615	-4.66919e-06
1322.16	0.560211	1.651e-05
1323	0.560059	6.28662e-06
1323.9	0.56012	5.98145e-06
1324.8	0.561218	7.20215e-06
1325.64	0.560211	3.60107e-06
1326.54	0.560242	4.11987e-06
1327.44	0.561707	1.37329e-06
1328.3	-0.698334	-0.0209595
1329.18	0.560028	5.46265e-06
1330.08	0.560028	1.1261e-05
1330.94	-0.698151	-0.0127838
1331.82	0.560608	-1.52588e-07
1332.72	0.56131	7.93457e-07
1333.6	0.000189209	0.00922852
1334.46	0.560608	1.28174e-06
1335.36	0.560486	5.15747e-06
1336.24	0.0009765625	0.0037915
1337.1	0.561035	-1.19019e-06
1338	0.561401	-4.66919e-06
1338.9	0.560974	0.012677
1339.74	0.560181	3.35693e-06
1340.64	0.560303	6.68335e-06
1341.54	0.560547	7.56531e-05
1342.38	0.56134	-2.10571e-06
1343.28	0.560059	6.68335e-06
1344.18	0.560028	3.63464e-05
1345.02	0.561584	-7.35474e-06
1345.92	0.56134	-2.99072e-06
1346.82	0.561188	1.44653e-05
1347.66	0.561249	-3.20435e-06
1348.56	0.560181	4.54712e-06
1349.46	0.560547	1.42822e-05
1350.3	0.561401	-4.30298e-06
1351.2	0.561523	-6.37817e-06
1352.1	0.56012	1.4801e-05
1352.94	0.561127	-2.19727e-06
1353.84	0.560303	1.28174e-06
1354.74	0.561584	1.61743e-06
1355.6	-0.698669	-0.02109375
1356.48	0.56015	6.073e-06
1357.38	0.56015	8.8501e-06
1358.24	-0.699219	-0.012915
1359.12	0.56015	3.96729e-06
1360.02	0.561646	-3.17383e-06
1360.9	-0.000665283	0.00923157
1361.76	0.561615	-5.15747e-06
1362.66	0.56012	8.42285e-06
1363.54	0.00106812	0.00384521
1364.4	0.559998	4.48608e-06
1365.3	0.560181	8.30078e-06
1366.2	0.560913	0.012854
1367.04	0.560181	3.44849e-06
1367.94	0.561371	-1.70898e-06
1368.84	0.560425	8.05359e-05
1369.68	0.560455	2.47192e-06
1370.58	0.559967	7.44629e-06
1371.48	0.561249	2.83508e-05
1372.32	0.559967	6.28662e-06
1373.22	0.560181	5.24902e-06
1374.12	0.561584	1.37939e-05
1374.96	0.561005	-3.50952e-06
1375.86	0.561127	2.44141e-07
1376.76	0.560608	1.3916e-05
1377.6	0.56076	-3.96729e-07
1378.5	0.56012	6.37817e-06
1379.4	0.560974	4.45557e-06
1380.24	0.561523	-5.70679e-06
1381.14	0.561279	-2.74658e-07
1382.04	0.560425	9.8877e-06
1382.9	-0.698975	-0.0212494
1383.78	0.560455	2.31934e-06
1384.68	0.56073	7.01904e-06
1385.54	-0.698517	-0.0130585
1386.42	0.560059	4.5166e-06
1387.32	0.561035	3.17383e-06
1388.2	-0.000683594	0.00925293
1389.06	0.560699	2.04468e-06
1389.96	0.560608	7.59888e-06
1390.84	0.000894165	0.00389709
1391.7	0.561646	-4.88281e-06
1392.6	0.560028	8.08716e-06
1393.5	0.559479	0.0130188
1394.34	0.560272	3.63159e-06
1395.24	0.560547	3.96729e-06
1396.14	0.561066	7.4646e-05
1396.98	0.560547	2.13623e-07
1397.88	0.560455	4.45557e-06
1398.78	0.561554	2.92969e-05
1399.62	0.561584	-6.34766e-06
1400.52	0.560028	4.54712e-06
1401.42	0.560059	2.44751e-05
1402.26	0.560303	3.84521e-06
1403.16	0.560211	5.46265e-06
1404.06	0.560669	1.41602e-05
1404.9	0.561249	-5.49316e-06
1405.8	0.560852	6.10352e-07
1406.7	0.561279	4.45557e-06
1407.54	0.56015	4.05884e-06
1408.44	0.561218	-2.47192e-06
1409.34	0.559998	1.41296e-05
1410.2	-0.698792	-0.0213715
1411.08	0.56012	6.50024e-06
1411.98	0.560089	1.1322e-05
1412.84	-0.698181	-0.0131958
1413.72	0.561127	-3.08228e-06
1414.62	0.560089	9.21631e-06
1415.5	-0.000506592	0.00924072
1416.36	0.561005	-2.04468e-06
1417.26	0.561554	-2.13623e-07
1418.14	-0.000170898	0.00394562
1419	0.560883	1.06812e-06
1419.9	0.559967	8.27026e-06
1420.8	0.56076	0.0131561
1421.64	0.561676	-6.16455e-06
1422.54	0.560791	2.7771e-06
1423.44	0.560181	8.63342e-05
1424.28	0.56012	4.94385e-06
1425.18	0.560303	5.27954e-06
1426.08	0.560394	3.53394e-05
1426.92	0.561584	-6.04248e-06
1427.82	0.560913	5.79834e-07
1428.72	0.560089	2.62146e-05
1429.56	0.561523	-5.70679e-06
1430.46	0.561768	-4.73022e-06
1431.36	0.561462	7.69043e-06
1432.2	0.560364	1.06812e-06
1433.1	0.561401	-3.14331e-06
1434	0.561554	4.42505e-06
1434.84	0.560028	4.54712e-06
1435.74	0.561005	-1.40381e-06
1436.64	0.561035	3.57056e-06
1437.5	-0.697968	-0.0214966
1438.38	0.560974	-6.10352e-08
1439.28	0.560181	7.32422e-06
1440.14	-0.699402	-0.0133026
1441.02	0.559937	7.04956e-06
1441.92	0.561127	2.59399e-06
1442.8	0.000765991	0.00923462
1443.66	0.56134	-3.9978e-06
1444.56	0.561615	-2.47192e-06
1445.44	-0.000393677	0.00399475
1446.3	0.561127	-3.2959e-06
1447.2	0.560333	6.34766e-06
1448.1	0.559448	0.0133148
1448.94	0.560333	4.73022e-06
1449.84	0.56012	6.34766e-06
1450.74	0.561096	7.7301e-05
1451.58	0.561646	-4.79126e-06
1452.48	0.561615	-2.99072e-06
1453.38	0.56015	3.78418e-05
1454.22	0.560699	-5.79834e-07
1455.12	0.561554	-3.60107e-06
1456.02	0.560272	2.4231e-05
1456.86	0.560211	1.37329e-06
1457.76	0.56012	6.92749e-06
1458.66	0.560577	1.69373e-05
1459.5	0.56012	4.27246e-06
1460.4	0.560028	8.08716e-06
1461.3	0.560028	1.51367e-05
1462.14	0.56012	4.79126e-06
1463.04	0.560577	1.49536e-06
1463.94	0.560486	8.63647e-06
1464.8	-0.698792	-0.0216492
1465.68	0.56131	-2.38037e-06
1466.58	0.560059	1.04065e-05
1467.44	-0.699402	-0.0134491
1468.32	0.560028	5.70679e-06
1469.22	0.561462	1.0376e-06
1470.1	0.000335693	0.00922852
1470.96	0.560791	1.77002e-06
1471.86	0.560059	9.00269e-06
1472.74	0.000128174	0.00404083
1473.6	0.560852	-1.34277e-06
1474.5	0.560577	4.63867e-06
1475.4	0.559448	0.0134491
1476.24	0.560059	5.31006e-06
1477.14	0.560944	-1.83105e-07
1478.04	0.560486	8.80432e-05
1478.88	0.560059	5.58472e-06
1479.78	0.561432	-1.09863e-06
1480.68	0.561157	3.15247e-05
1481.52	0.561523	-4.63867e-06
1481.66	0.561035	-3.57056e-06