File: Edgar/20240529/20240529/electrodeposition_pulsed_potential_20240529_B/pulses_3000_to_4000.txt
Time (s)	WE(1).Potential (V)	WE(1).Current (A)
4150.8	-0.698334	-0.0250183
4151.68	0.56131	-2.92969e-06
4152.58	0.561615	2.80762e-06
4153.44	-0.698975	-0.0186249
4154.32	0.560059	6.83594e-06
4155.22	0.561646	1.46484e-06
4156.1	0.00065918	0.00693298
4156.96	0.560791	-6.40869e-07
4157.86	0.56015	1.10474e-05
4158.74	0.00071106	0.00396118
4159.6	0.560516	4.05884e-06
4160.5	0.560791	6.53076e-06
4161.4	0.559509	0.0169434
4162.24	0.561676	-3.23486e-06
4163.14	0.561371	4.57764e-07
4164.04	0.561066	0.00959778
4164.88	0.560059	5.7373e-06
4165.78	0.561584	-1.86157e-06
4166.68	0.561127	0.000277649
4167.52	0.56131	-3.41797e-06
4168.42	0.561188	1.83105e-07
4169.32	0.561554	4.43115e-05
4170.16	0.561523	-5.15747e-06
4171.06	0.560364	7.35474e-06
4171.96	0.560211	2.8717e-05
4172.8	0.560944	-3.96729e-07
4173.7	0.560425	3.63159e-06
4174.6	0.561523	1.00098e-05
4175.44	0.560852	4.27246e-07
4176.34	0.561493	-4.05884e-06
4177.24	0.561554	8.72803e-06
4178.1	-0.698486	-0.0249695
4178.98	0.560059	9.18579e-06
4179.88	0.560364	1.23901e-05
4180.74	-0.698883	-0.0186035
4181.62	0.561615	-2.16675e-06
4182.52	0.560211	1.06506e-05
4183.4	-0.000494385	0.00698334
4184.26	0.560242	4.11987e-06
4185.16	0.561371	1.12915e-06
4186.04	0.00100708	0.00401276
4186.9	0.560852	-8.23975e-07
4187.8	0.56012	1.02844e-05
4188.7	0.559204	0.0169861
4189.54	0.561554	-3.8147e-06
4190.44	0.560272	8.20923e-06
4191.34	0.560364	0.00973511
4192.18	0.560059	6.53076e-06
4193.08	0.561005	1.40381e-06
4193.98	0.561646	0.000286255
4194.82	0.56015	4.97437e-06
4195.72	0.560608	6.01196e-06
4196.62	0.560028	5.69458e-05
4197.46	0.560181	5.31006e-06
4198.36	0.560608	2.56348e-06
4199.26	0.561462	1.84021e-05
4200.1	0.561279	-2.56348e-06
4201	0.560852	4.57764e-07
4201.9	0.56134	9.94873e-06
4202.74	0.561401	-6.2561e-06
4203.64	0.56012	8.3313e-06
4204.54	0.561584	6.7749e-06
4205.4	-0.697296	-0.0249908
4206.28	0.561279	-1.31226e-06
4207.18	0.561127	5.82886e-06
4208.04	-0.698822	-0.0186127
4208.92	0.560974	-4.57764e-07
4209.82	0.561432	1.98364e-06
4210.7	-0.000137329	0.00696594
4211.56	0.560059	8.30078e-06
4212.46	0.560089	1.09558e-05
4213.34	-0.000546265	0.00402588
4214.2	0.560791	-3.35693e-07
4215.1	0.560791	4.97437e-06
4216	0.559845	0.01698
4216.84	0.560822	1.19019e-06
4217.74	0.560364	4.76074e-06
4218.64	0.560242	0.00981445
4219.48	0.560638	-8.23975e-07
4220.38	0.560333	7.1106e-06
4221.28	0.560974	0.000297943
4222.12	0.560028	5.31006e-06
4223.02	0.561584	-7.93457e-07
4223.92	0.56076	5.12695e-05
4224.76	0.560944	1.61743e-06
4225.66	0.561493	-2.50244e-06
4226.56	0.560791	2.4231e-05
4227.4	0.561279	-3.50952e-06
4228.3	0.561127	-1.28174e-06
4229.2	0.560181	1.98059e-05
4230.04	0.561462	-4.27246e-06
4230.94	0.561584	-2.92969e-06
4231.84	0.561401	6.56128e-06
4232.7	-0.698425	-0.0249817
4233.58	0.561462	-1.67847e-06
4234.48	0.560181	1.26343e-05
4235.34	-0.698975	-0.0186432
4236.22	0.56012	5.49316e-06
4237.12	0.560242	1.09558e-05
4238	-0.000634766	0.0069754
4238.86	0.561401	-2.74658e-06
4239.76	0.561493	3.08228e-06
4240.64	-0.000289917	0.00402893
4241.5	0.560547	1.49536e-06
4242.4	0.56073	4.97437e-06
4243.3	0.56076	0.0170044
4244.14	0.561523	-4.66919e-06
4245.04	0.560425	8.08716e-06
4245.94	0.560333	0.00983887
4246.78	0.560516	-1.83105e-07
4247.68	0.561523	-2.0752e-06
4248.58	0.560089	0.000312378
4249.42	0.560791	-1.09863e-06
4250.32	0.561249	-9.46045e-07
4251.22	0.560181	5.69763e-05
4252.06	0.559937	4.79126e-06
4252.96	0.560181	6.01196e-06
4253.86	0.56012	2.734375E-05
4254.7	0.560028	6.53076e-06
4255.6	0.560089	6.13403e-06
4256.5	0.561127	1.33362e-05
4257.34	0.561493	-4.02832e-06
4258.24	0.56131	-1.7395e-06
4259.14	0.561371	7.44629e-06
4260	-0.697235	-0.0250336
4260.88	0.560059	7.84302e-06
4261.78	0.561462	2.71606e-06
4262.64	-0.697815	-0.018689
4263.52	0.560333	5.09644e-06
4264.42	0.560394	7.93457e-06
4265.3	-0.000506592	0.00695435
4266.16	0.560425	3.96729e-06
4267.06	0.559998	1.11694e-05
4267.94	-0.000469971	0.00401917
4268.8	0.560028	7.20215e-06
4269.7	0.560699	5.64575e-06
4270.6	0.559998	0.0170288
4271.44	0.561249	-2.74658e-06
4272.34	0.560059	9.91821e-06
4273.24	0.560883	0.00989685
4274.08	0.560852	2.71606e-06
4274.98	0.560608	2.96021e-06
4275.88	0.560028	0.000321594
4276.72	0.56012	6.68335e-06
4277.62	0.560272	4.5166e-06
4278.52	0.56012	5.86243e-05
4279.36	0.561584	-5.49316e-06
4280.26	0.560181	6.01196e-06
4281.16	0.561371	2.04773e-05
4282	0.560547	7.62939e-07
4282.9	0.560883	1.70898e-06
4283.8	0.560913	1.34888e-05
4284.64	0.561096	-1.64795e-06
4285.54	0.560883	1.09863e-06
4286.44	0.561371	6.68335e-06
4287.3	-0.698334	-0.0250336
4288.18	0.560944	1.2207e-06
4289.08	0.561249	2.19727e-06
4289.94	-0.697571	-0.0186981
4290.82	0.560516	2.68555e-06
4291.72	0.561432	3.26538e-06
4292.6	-0.0006073	0.00693726
4293.46	0.560089	4.85229e-06
4294.36	0.561584	-1.58691e-06
4295.24	0.000628662	0.00400665
4296.1	0.561188	-2.80762e-06
4297	0.561523	-1.25122e-06
4297.9	0.559296	0.0170258
4298.74	0.560547	3.93677e-06
4299.64	0.561035	1.77002e-06
4300.54	0.560944	0.00994263
4301.38	0.561188	-4.57764e-07
4302.28	0.560333	5.98145e-06
4303.18	0.56134	0.000319122
4304.02	0.561371	-3.02124e-06
4304.92	0.560883	1.92261e-06
4305.82	0.559998	6.22559e-05
4306.66	0.560669	7.32422e-07
4307.56	0.561066	8.8501e-07
4308.46	0.560089	2.98767e-05
4309.3	0.561401	-4.30298e-06
4310.2	0.560883	3.38745e-06
4311.1	0.560974	1.20239e-05
4311.94	0.561371	-2.99072e-06
4312.84	0.56015	5.52368e-06
4313.74	0.56131	9.3689e-06
4314.6	-0.698181	-0.0250519
4315.48	0.560364	3.41797e-06
4316.38	0.559998	1.50146e-05
4317.24	-0.69754	-0.0187286
4318.12	0.56076	4.27246e-06
4319.02	0.56073	7.84302e-06
4319.9	0.000253296	0.00691559
4320.76	0.560547	1.5564e-06
4321.66	0.560089	9.52148e-06
4322.54	0.000372314	0.00399902
4323.4	0.561005	-1.49536e-06
4324.3	0.561432	9.15527e-08
4325.2	0.560577	0.0170319
4326.04	0.561005	-1.49536e-06
4326.94	0.560638	4.15039e-06
4327.84	0.561127	0.00996704
4328.68	0.560852	-7.62939e-07
4329.58	0.560791	2.53296e-06
4330.48	0.561493	0.000325653
4331.32	0.560333	3.78418e-06
4332.22	0.561005	2.19727e-06
4333.12	0.56076	5.43823e-05
4333.96	0.560272	5.21851e-06
4334.86	0.560028	7.99561e-06
4335.76	0.560822	2.43225e-05
4336.6	0.560089	6.01196e-06
4337.5	0.561035	-3.05176e-08
4338.4	0.560822	1.63574e-05
4339.24	0.560303	4.11987e-06
4340.14	0.559967	5.52368e-06
4341.04	0.560822	1.26648e-05
4341.9	-0.697601	-0.0250671
4342.78	0.561432	-2.31934e-06
4343.68	0.560699	1.07422e-05
4344.54	-0.698853	-0.0187378
4345.42	0.561554	-4.76074e-06
4346.32	0.56131	4.02832e-06
4347.2	-0.000323486	0.00690521
4348.06	0.56012	7.14111e-06
4348.96	0.559998	1.02539e-05
4349.84	0.000354004	0.00399567
4350.7	0.561249	-1.0376e-06
4351.6	0.560669	5.37109e-06
4352.5	0.560089	0.017038
4353.34	0.560272	4.27246e-06
4354.24	0.560089	8.66699e-06
4355.14	0.559631	0.010025
4355.98	0.560272	5.70679e-06
4356.88	0.56012	4.85229e-06
4357.78	0.560638	0.00034201
4358.62	0.560333	1.92261e-06
4359.52	0.560242	6.56128e-06
4360.42	0.559937	6.45447e-05
4361.26	0.560608	1.34277e-06
4362.16	0.560638	4.60815e-06
4363.06	0.560974	2.23083e-05
4363.9	0.56015	6.50024e-06
4364.8	0.561523	-3.50952e-06
4365.7	0.560059	2.06909e-05
4366.54	0.56012	5.58472e-06
4367.44	0.56015	5.24902e-06
4368.34	0.561523	6.40869e-06
4369.2	-0.697144	-0.0250793
4370.08	0.561523	-4.15039e-06
4370.98	0.560883	9.765625E-06
4371.84	-0.698364	-0.0187653
4372.72	0.560089	5.7373e-06
4373.62	0.560516	7.84302e-06
4374.5	0.000961304	0.00687927
4375.36	0.560059	4.82178e-06
4376.26	0.561279	2.22778e-06
4377.14	-0.000448608	0.00399506
4378	0.560669	1.80054e-06
4378.9	0.560272	8.63647e-06
4379.8	0.560364	0.0170532
4380.64	0.560059	6.22559e-06
4381.54	0.561554	-1.06812e-06
4382.44	0.559784	0.0100739
4383.28	0.561127	-2.56348e-06
4384.18	0.560028	6.80542e-06
4385.08	0.560211	0.000353088
4385.92	0.561005	-1.61743e-06
4386.82	0.560394	4.73022e-06
4387.72	0.560028	6.54907e-05
4388.56	0.561035	-2.7771e-06
4389.46	0.560699	5.18799e-07
4390.36	0.561035	2.35596e-05
4391.2	0.561646	-6.34766e-06
4392.1	0.560242	6.43921e-06
4393	0.560577	1.9104e-05
4393.84	0.560974	-3.05176e-07
4394.74	0.559967	7.17163e-06
4395.64	0.560211	1.57471e-05
4396.5	-0.698456	-0.0250793
4397.38	0.560791	2.04468e-06
4398.28	0.561218	6.56128e-06
4399.14	-0.697968	-0.0188049
4400.02	0.560425	4.82178e-06
4400.92	0.561005	5.85937e-06
4401.8	0.000964355	0.0068573
4402.66	0.56076	1.77002e-06
4403.56	0.560028	1.13831e-05
4404.44	0.000100708	0.00398804
4405.3	0.559998	5.79834e-06
4406.2	0.560242	8.88062e-06
4407.1	0.559296	0.0170776
4407.94	0.560577	2.01416e-06
4408.84	0.560028	9.06372e-06
4409.74	0.560089	0.0101044
4410.58	0.560333	3.87573e-06
4411.48	0.560272	7.53784e-06
4412.38	0.561371	0.00035495
4413.22	0.560059	5.18799e-06
4414.12	0.560608	5.12695e-06
4415.02	0.560303	6.64368e-05
4415.86	0.561218	-3.57056e-06
4416.76	0.561401	-2.16675e-06
4417.66	0.560638	2.6062e-05
4418.5	0.561127	-2.7771e-06
4419.4	0.561523	-3.78418e-06
4420.3	0.560425	1.58997e-05
4421.14	0.56012	4.85229e-06
4422.04	0.560211	7.65991e-06
4422.94	0.560303	1.59302e-05
4423.8	-0.698547	-0.0250824
4424.68	0.561279	-3.44849e-06
4425.58	0.560028	1.26343e-05
4426.44	-0.69754	-0.018811
4427.32	0.560059	6.74438e-06
4428.22	0.560638	7.2937e-06
4429.1	0.000814819	0.0068396
4429.96	0.560089	6.86646e-06
4430.86	0.559906	1.09863e-05
4431.74	3.05176e-05	0.00397797
4432.6	0.561646	-5.00488e-06
4433.5	0.560425	7.38525e-06
4434.4	0.560333	0.0170746
4435.24	0.561432	-4.5166e-06
4436.14	0.560089	9.552e-06
4437.04	0.56015	0.0101532
4437.88	0.561615	-4.36401e-06
4438.78	0.561554	-2.01416e-06
4439.68	0.561523	0.000362335
4440.52	0.560089	5.92041e-06
4441.42	0.56076	2.68555e-06
4442.32	0.560608	6.51245e-05
4443.16	0.561523	-4.21143e-06
4444.06	0.560272	5.40161e-06
4444.96	0.560516	2.76184e-05
4445.8	0.561127	-1.89209e-06
4446.7	0.560333	4.24194e-06
4447.6	0.559998	2.23999e-05
4448.44	0.560394	1.95313e-06
4449.34	0.561523	-3.8147e-06
4450.24	0.561401	8.66699e-06
4451.1	-0.698151	-0.0250946
4451.98	0.561584	-3.96729e-06
4452.88	0.561371	3.23486e-06
4453.74	-0.697632	-0.0188385
4454.62	0.561523	-6.10352e-06
4455.52	0.560059	1.23901e-05
4456.4	0.000875854	0.00682373
4457.26	0.560455	7.93457e-07
4458.16	0.561432	3.35693e-06
4459.04	0.000570679	0.00397156
4459.9	0.56012	2.7771e-06
4460.8	0.560028	1.06201e-05
4461.7	0.560059	0.0170959
4462.54	0.560181	4.66919e-06
4463.44	0.561157	5.79834e-07
4464.34	0.561096	0.0101929
4465.18	0.560669	3.8147e-06
4466.08	0.560577	4.54712e-06
4466.98	0.56012	0.000381256
4467.82	0.560059	7.08008e-06
4468.72	0.561462	-1.0376e-06
4469.62	0.561523	5.88989e-05
4470.46	0.56015	5.67627e-06
4471.36	0.560883	1.89209e-06
4472.26	0.56012	2.99988e-05
4473.1	0.560242	3.66211e-06
4474	0.561249	4.27246e-07
4474.9	0.560669	1.83716e-05
4475.74	0.560547	2.01416e-06
4476.64	0.56131	-1.89209e-06
4477.54	0.560486	1.43433e-05
4478.4	-0.697357	-0.0251007
4479.28	0.560822	1.12915e-06
4480.18	0.560822	9.00269e-06
4481.04	-0.698059	-0.0188629
4481.92	0.561554	-5.00488e-06
4482.82	0.561493	2.53296e-06
4483.7	0.000256348	0.00681702
4484.56	0.560059	6.16455e-06
4485.46	0.560089	9.46045e-06
4486.34	-0.00032959	0.00397583
4487.2	0.560059	6.98853e-06
4488.1	0.560486	6.22559e-06
4489	0.560028	0.0170929
4489.84	0.561401	-4.15039e-06
4490.74	0.561218	3.23486e-06
4491.64	0.559662	0.0102295
4492.48	0.560303	4.54712e-06
4493.38	0.561554	-1.09863e-06
4494.28	0.561493	0.000378265
4495.12	0.560272	3.32642e-06
4496.02	0.560364	5.0354e-06
4496.92	0.560638	6.56738e-05
4497.76	0.561371	-5.7373e-06
4498.66	0.560852	4.88281e-07
4499.56	0.560547	2.84424e-05
4500.4	0.560059	5.76782e-06
4501.3	0.560089	8.42285e-06
4502.2	0.560547	2.01721e-05
4503.04	0.561554	-5.40161e-06
4503.94	0.560394	4.69971e-06
4504.84	0.56134	8.54492e-06
4505.7	-0.697937	-0.0251129
4506.58	0.561554	-4.18091e-06
4507.48	0.560883	8.42285e-06
4508.34	-0.69751	-0.0188782
4509.22	0.561218	-2.86865e-06
4510.12	0.561371	4.60815e-06
4511	-0.000598145	0.00680573
4511.86	0.561371	-3.2959e-06
4512.76	0.560791	3.63159e-06
4513.64	-0.000265503	0.00397064
4514.5	0.561523	-3.32642e-06
4515.4	0.560028	1.00708e-05
4516.3	0.559174	0.0171112
4517.14	0.561218	-2.96021e-06
4518.04	0.560822	5.5542e-06
4518.94	0.560669	0.0102692
4519.78	0.559906	5.61523e-06
4520.68	0.561096	2.74658e-07
4521.58	0.560852	0.00039386
4522.42	0.560211	3.35693e-06
4523.32	0.560028	7.75146e-06
4524.22	0.560944	6.46667e-05
4525.06	0.561493	-6.89697e-06
4525.96	0.560181	7.04956e-06
4526.86	0.560455	2.97852e-05
4527.7	0.561493	-4.82178e-06
4528.6	0.560547	5.49316e-07
4529.5	0.561279	1.33972e-05
4530.34	0.561554	-6.98853e-06
4531.24	0.560242	5.79834e-06
4532.14	0.560089	1.75476e-05
4533	-0.697601	-0.0251434
4533.88	0.56134	-1.61743e-06
4534.78	0.560699	9.52148e-06
4535.64	-0.697968	-0.0188904
4536.52	0.561554	-3.90625e-06
4537.42	0.560089	1.34888e-05
4538.3	0.000759888	0.00677216
4539.16	0.560425	2.10571e-06
4540.06	0.561066	3.05176e-06
4540.94	0.000637817	0.0039505
4541.8	0.560852	3.35693e-07
4542.7	0.561462	1.37329e-06
4543.6	0.559174	0.0171204
4544.44	0.560883	6.40869e-07
4545.34	0.560272	8.11768e-06
4546.24	0.561035	0.0102997
4547.08	0.559998	6.28662e-06
4547.98	0.561462	-7.62939e-07
4548.88	0.561493	0.000395996
4549.72	0.560883	-8.23975e-07
4550.62	0.560059	9.94873e-06
4551.52	0.560822	6.69556e-05
4552.36	0.56015	5.92041e-06
4553.26	0.560181	8.36182e-06
4554.16	0.56012	2.99377e-05
4555	0.561157	-3.02124e-06
4555.9	0.560089	4.73022e-06
4556.8	0.561462	1.15051e-05
4557.64	0.560547	3.57056e-06
4558.54	0.561401	-2.10571e-06
4559.44	0.561035	1.06812e-05
4560.3	-0.69754	-0.0251404
4561.18	0.560364	5.46265e-06
4562.08	0.560211	1.34888e-05
4562.94	-0.697754	-0.0189178
4563.82	0.561127	4.88281e-07
4564.72	0.561066	6.68335e-06
4565.6	0.000192261	0.00675507
4566.46	0.561554	-3.72314e-06
4567.36	0.561493	8.8501e-07
4568.24	0.000149536	0.00394318
4569.1	0.561218	-2.19727e-06
4570	0.561493	9.15527e-07
4570.9	0.559875	0.0171082
4571.74	0.560028	6.31714e-06
4572.64	0.560852	4.48608e-06
4573.54	0.559845	0.0103302
4574.38	0.561432	-4.18091e-06
4575.28	0.561523	-2.31934e-06
4576.18	0.560669	0.000403961
4577.02	0.561371	-4.39453e-06
4577.92	0.559998	4.39453e-06
4578.82	0.561127	6.80237e-05
4579.66	0.561096	-3.96729e-06
4580.56	0.561462	-2.68555e-06
4581.46	0.56015	3.25928e-05
4582.3	0.56012	3.20435e-06
4583.2	0.561707	-3.84521e-06
4584.1	0.560638	1.66626e-05
4584.94	0.561035	4.27246e-07
4585.84	0.560638	2.68555e-06
4586.74	0.560455	1.15662e-05
4587.6	-0.697479	-0.0251526
4588.48	0.561615	-5.34058e-06
4589.38	0.560028	1.39771e-05
4590.24	-0.69809	-0.0189331
4591.12	0.560181	5.18799e-06
4592.02	0.560272	1.14136e-05
4592.9	0.000674438	0.00672699
4593.76	0.561554	-5.21851e-06
4594.66	0.560883	5.09644e-06
4595.54	0.000283813	0.00391541
4596.4	0.561401	-4.48608e-06
4597.3	0.561554	-1.12915e-06
4598.2	0.560638	0.0171173
4599.04	0.560303	3.26538e-06
4599.94	0.561584	-8.23975e-07
4600.84	0.559631	0.0103577
4601.68	0.560455	2.50244e-06
4602.58	0.560059	7.99561e-06
4603.48	0.561676	0.000412476
4604.32	0.560272	3.20435e-06
4605.22	0.561615	-3.14331e-06
4606.12	0.560059	7.37e-05
4606.96	0.561279	-3.44849e-06
4607.86	0.561066	2.38037e-06
4608.76	0.561432	2.09656e-05
4609.6	0.560242	4.11987e-06
4610.5	0.560425	3.32642e-06
4611.4	0.559998	2.24304e-05
4612.24	0.560944	-4.76074e-06
4613.14	0.560089	6.92749e-06
4614.04	0.560974	1.15356e-05
4614.9	-0.698608	-0.0251495
4615.78	0.560181	7.26318e-06
4616.68	0.561401	3.69263e-06
4617.54	-0.697998	-0.0189606
4618.42	0.561249	-7.93457e-07
4619.32	0.56131	3.17383e-06
4620.2	-0.000610352	0.00671692
4621.06	0.561279	-2.7771e-06
4621.96	0.560242	9.3689e-06
4622.84	-8.54492e-05	0.00390839
4623.7	0.561005	-4.88281e-07
4624.6	0.560516	6.43921e-06
4625.5	0.559235	0.0171265
4626.34	0.561523	-4.48608e-06
4627.24	0.561188	5.18799e-07
4628.14	0.559631	0.0103882
4628.98	0.561066	-4.88281e-07
4629.88	0.560059	8.17871e-06
4630.78	0.559967	0.000431061
4631.62	0.56015	5.64575e-06
4632.52	0.559998	8.48389e-06
4633.42	0.561554	6.640625E-05
4634.26	0.560455	3.26538e-06
4635.16	0.561371	-6.10352e-08
4636.06	0.560486	3.04565e-05
4636.9	0.56012	6.28662e-06
4637.8	0.559998	4.08936e-06
4638.7	0.560242	2.05383e-05
4639.54	0.560181	4.48608e-06
4640.44	0.560944	6.40869e-07
4641.34	0.560577	1.15662e-05
4642.2	-0.697876	-0.0251221
4643.08	0.560669	1.52588e-07
4643.98	0.56012	1.48926e-05
4644.84	-0.698608	-0.0189362
4645.72	0.56015	7.35474e-06
4646.62	0.560669	7.01904e-06
4647.5	-0.000604248	0.00673279
4648.36	0.559998	6.86646e-06
4649.26	0.561096	2.92969e-06
4650.14	0.000448608	0.00392487
4651	0.560059	6.28662e-06
4651.9	0.560364	8.36182e-06
4652.8	0.560516	0.0171387
4653.64	0.561523	-4.18091e-06
4654.54	0.561554	-1.43433e-06
4655.44	0.559601	0.0103607
4656.28	0.561432	-2.7771e-06
4657.18	0.560089	9.27734e-06
4658.08	0.56012	0.000428802
4658.92	0.561462	-2.68555e-06
4659.82	0.560669	2.34985e-06
4660.72	0.56015	7.55615e-05
4661.56	0.56073	9.46045e-07
4662.46	0.561066	2.74658e-07
4663.36	0.560181	2.88696e-05
4664.2	0.560303	3.72314e-06
4665.1	0.561401	-3.02124e-06
4666	0.560333	2.01416e-05
4666.84	0.559998	5.18799e-06
4667.74	0.561462	-2.50244e-06
4668.64	0.560791	1.33972e-05
4669.5	-0.697784	-0.0250763
4670.38	0.561584	-4.57764e-06
4671.28	0.561523	3.38745e-06
4672.14	-0.698914	-0.018924
4673.02	0.560638	2.62451e-06
4673.92	0.561249	5.95093e-06
4674.8	0.000100708	0.00670776
4675.66	0.561615	-3.41797e-06
4676.56	0.560944	6.2561e-06
4677.44	-2.13623e-05	0.00392029
4678.3	0.56012	6.13403e-06
4679.2	0.56134	2.89917e-06
4680.1	0.559814	0.0171356
4680.94	0.560059	4.15039e-06
4681.84	0.560638	2.80762e-06
4682.74	0.560547	0.0103973
4683.58	0.560303	5.15747e-06
4684.48	0.560059	7.78198e-06
4685.38	0.561584	0.000426514
4686.22	0.561249	-9.76562e-07
4687.12	0.560242	6.71387e-06
4688.02	0.561035	7.09534e-05
4688.86	0.560059	5.79834e-06
4689.76	0.560883	3.35693e-06
4690.66	0.561584	2.09351e-05
4691.5	0.560272	3.63159e-06
4692.4	0.560303	5.76782e-06
4693.3	0.561584	1.08948e-05
4694.14	0.561157	-2.50244e-06
4695.04	0.560181	7.38525e-06
4695.94	0.560455	1.35803e-05
4696.8	-0.697113	-0.0250763
4697.68	0.560852	4.27246e-07
4698.58	0.561615	3.50952e-06
4699.44	-0.697845	-0.0189362
4700.32	0.561005	7.32422e-07
4701.22	0.560089	1.25427e-05
4702.1	0.000860596	0.00668884
4702.96	0.559998	6.86646e-06
4703.86	0.560181	9.39941e-06
4704.74	-5.49316e-05	0.00391174
4705.6	0.561554	-4.08936e-06
4706.5	0.560394	5.52368e-06
4707.4	0.560669	0.0171387
4708.24	0.56073	-4.27246e-07
4709.14	0.561218	1.2207e-07
4710.04	0.561096	0.0104248
4710.88	0.561615	-4.39453e-06
4711.78	0.561432	-1.15967e-06
4712.68	0.561188	0.000437988
4713.52	0.560211	6.50024e-06
4714.42	0.561218	-3.35693e-07
4715.32	0.561493	7.04041e-05
4716.16	0.561462	-4.36401e-06
4717.06	0.560211	5.95093e-06
4717.96	0.561005	2.55737e-05
4718.8	0.561035	-1.58691e-06
4719.7	0.561371	-2.50244e-06
4720.6	0.560699	1.80359e-05
4721.44	0.56073	5.49316e-07
4722.34	0.56012	7.38525e-06
4723.24	0.560394	1.42822e-05
4724.1	-0.698517	-0.0251038
4724.98	0.561462	-3.54004e-06
4725.88	0.56012	1.474e-05
4726.74	-0.699005	-0.0189636
4727.62	0.56012	5.58472e-06
4728.52	0.559875	1.37024e-05
4729.4	0.00027771	0.00667267
4730.26	0.561523	-4.85229e-06
4731.16	0.56134	1.64795e-06
4732.04	-0.000299072	0.00390076
4732.9	0.560364	3.72314e-06
4733.8	0.560608	8.72803e-06
4734.7	0.560181	0.0171509
4735.54	0.560394	4.39453e-06
4736.44	0.560791	3.84521e-06
4737.34	0.560547	0.0104431
4738.18	0.560211	4.39453e-06
4739.08	0.561371	4.88281e-07
4739.98	0.56076	0.000450989
4740.82	0.561493	-5.98145e-06
4741.72	0.560638	2.34985e-06
4742.62	0.560333	8.08716e-05
4743.46	0.561462	-4.30298e-06
4744.36	0.560638	1.98364e-06
4745.26	0.561249	2.55737e-05
4746.1	0.560974	-2.99072e-06
4747	0.561432	-2.68555e-06
4747.9	0.560303	2.01416e-05
4748.74	0.560242	4.08936e-06
4749.64	0.560608	2.0752e-06
4750.54	0.560028	1.68762e-05
4751.4	-0.69751	-0.0251251
4752.28	0.560974	2.13623e-07
4753.18	0.56076	9.765625E-06
4754.04	-0.699005	-0.0189941
4754.92	0.561401	-3.08228e-06
4755.82	0.561371	4.05884e-06
4756.7	0.000982666	0.00664948
4757.56	0.561554	-4.73022e-06
4758.46	0.560089	1.12305e-05
4759.34	0.000939941	0.00388184
4760.2	0.561615	-4.5166e-06
4761.1	0.561432	3.66211e-07
4762	0.560364	0.0171387
4762.84	0.560944	-1.12915e-06
4763.74	0.560028	8.66699e-06
4764.64	0.559723	0.0104767
4765.48	0.560791	6.40869e-07
4766.38	0.560516	4.21143e-06
4767.28	0.56012	0.000465759
4768.12	0.560699	1.7395e-06
4769.02	0.561096	3.05176e-08
4769.92	0.561646	7.21741e-05
4770.76	0.560669	1.2207e-06
4771.66	0.561676	-3.38745e-06
4772.56	0.560242	3.18298e-05
4773.4	0.56012	4.88281e-06
4774.3	0.559998	7.04956e-06
4775.2	0.560822	1.40076e-05
4776.04	0.560181	4.30298e-06
4776.94	0.560089	3.54004e-06
4777.84	0.561554	6.073e-06
4778.7	-0.697418	-0.0251282
4779.58	0.560059	6.31714e-06
4780.48	0.560699	1.18408e-05
4781.34	-0.697693	-0.0190186
4782.22	0.559937	7.01904e-06
4783.12	0.560089	1.31226e-05
4784	9.15527e-05	0.00663422
4784.86	0.560089	7.14111e-06
4785.76	0.561157	3.26538e-06
4786.64	-0.000524902	0.00388031
4787.5	0.559906	6.53076e-06
4788.4	0.561523	-3.05176e-08
4789.3	0.560699	0.0171509
4790.14	0.560822	-9.15527e-08
4791.04	0.561096	2.44141e-07
4791.94	0.559937	0.0105072
4792.78	0.561523	-4.82178e-06
4793.68	0.56012	7.14111e-06
4794.58	0.560028	0.000473907
4795.42	0.561646	-4.88281e-06
4796.32	0.561554	-3.8147e-06
4797.22	0.560516	8.28857e-05
4798.06	0.56012	4.85229e-06
4798.96	0.561584	-2.99072e-06
4799.86	0.561554	2.34985e-05
4800.7	0.561554	-5.46265e-06
4801.6	0.561157	-1.31226e-06
4802.5	0.561127	1.6449e-05
4803.34	0.560211	3.38745e-06
4804.24	0.561554	-4.3335e-06
4805.14	0.561249	9.67407e-06
4806	-0.697998	-0.0251465
4806.88	0.560822	2.74658e-07
4807.78	0.561615	5.46265e-06
4808.64	-0.697723	-0.0190338
4809.52	0.561218	-5.12695e-06
4810.42	0.561554	2.10571e-06
4811.3	-5.18799e-05	0.00661407
4812.16	0.561615	-4.11987e-06
4813.06	0.560486	4.94385e-06
4813.94	-0.000445557	0.00386902
4814.8	0.560944	-2.7771e-06
4815.7	0.560455	6.86646e-06
4816.6	0.560181	0.01716
4817.44	0.559998	5.12695e-06
4818.34	0.559967	9.39941e-06
4819.24	0.559601	0.0105438
4820.08	0.561584	-4.11987e-06
4820.98	0.561615	-1.92261e-06
4821.88	0.560242	0.000482513
4822.72	0.560089	5.52368e-06
4823.62	0.560516	3.50952e-06
4824.52	0.560211	8.6792e-05
4825.36	0.560059	6.40869e-06
4826.26	0.56012	6.53076e-06
4827.16	0.560211	3.48816e-05
4828	0.560577	1.7395e-06
4828.9	0.561462	-3.2959e-06
4829.8	0.560028	2.27661e-05
4830.64	0.560608	3.35693e-07
4831.54	0.561218	-1.83105e-06
4832.44	0.560455	1.32141e-05
4833.3	-0.697693	-0.0251648
4834.18	0.560181	5.00488e-06
4835.08	0.560242	1.32446e-05
4835.94	-0.698914	-0.0190521
4836.82	0.560425	4.36401e-06
4837.72	0.560089	1.28479e-05
4838.6	0.000546265	0.00659546
4839.46	0.560333	3.66211e-06
4840.36	0.560059	1.19324e-05
4841.24	-0.000442505	0.00386658
4842.1	0.560333	2.83813e-06
4843	0.561188	2.50244e-06
4843.9	0.560181	0.0171661
4844.74	0.560303	4.27246e-06
4845.64	0.561462	1.52588e-06
4846.54	0.559601	0.0105865
4847.38	0.560333	2.74658e-06
4848.28	0.560028	8.08716e-06
4849.18	0.561127	0.000490845
4850.02	0.561493	-4.88281e-06
4850.92	0.560364	9.39941e-06
4851.82	0.561401	8.06274e-05
4852.66	0.560516	3.50952e-06
4853.56	0.56012	5.92041e-06
4854.46	0.560303	3.23181e-05
4855.3	0.560181	3.57056e-06
4856.2	0.560913	-1.52588e-07
4857.1	0.561279	1.45264e-05
4857.94	0.560913	-2.96021e-06
4858.84	0.560577	3.60107e-06
4859.74	0.560333	1.57166e-05
4860.6	-0.697418	-0.025177
4861.48	0.560303	1.83105e-06
4862.38	0.561432	5.18799e-06
4863.24	-0.697601	-0.0190765
4864.12	0.561035	9.15527e-08
4865.02	0.560303	1.20239e-05
4865.9	-0.000457764	0.00658386
4866.76	0.56015	6.80542e-06
4867.66	0.56076	5.67627e-06
4868.54	-7.93457e-05	0.00385681
4869.4	0.560364	3.96729e-06
4870.3	0.560608	6.04248e-06
4871.2	0.560547	0.0171631
4872.04	0.559998	5.15747e-06
4872.94	0.561005	1.70898e-06
4873.84	0.559998	0.0106171
4874.68	0.561462	-6.16455e-06
4875.58	0.561462	-2.44141e-07
4876.48	0.559937	0.000507507
4877.32	0.560059	5.15747e-06
4878.22	0.561279	3.05176e-08
4879.12	0.561218	8.45642e-05
4879.96	0.560486	1.83105e-06
4880.86	0.561462	-3.8147e-06
4881.76	0.561646	2.49023e-05
4882.6	0.561401	-4.76074e-06
4883.5	0.561127	-4.27246e-07
4884.4	0.559998	2.3407e-05
4885.24	0.560486	1.92261e-06
4886.14	0.560425	4.39453e-06
4887.04	0.561707	6.34766e-06
4887.9	-0.698425	-0.025174
4888.78	0.561401	-6.71387e-07
4889.68	0.560028	1.44043e-05
4890.54	-0.697968	-0.0190979
4891.42	0.560272	3.41797e-06
4892.32	0.560486	7.14111e-06
4893.2	0.000540161	0.00656128
4894.06	0.561127	-1.06812e-06
4894.96	0.560089	1.171875E-05
4895.84	-0.000372314	0.00385132
4896.7	0.561371	-3.20435e-06
4897.6	0.560547	8.08716e-06
4898.5	0.559296	0.0171783
4899.34	0.561707	-4.60815e-06
4900.24	0.560333	7.53784e-06
4901.14	0.560577	0.0106598
4901.98	0.560455	2.41089e-06
4902.88	0.56073	2.41089e-06
4903.78	0.561279	0.000513
4904.62	0.561584	-4.05884e-06
4905.52	0.561066	7.62939e-07
4906.42	0.56012	9.28345e-05
4907.26	0.561096	-3.17383e-06
4908.16	0.561005	-3.05176e-08
4909.06	0.56015	3.55225e-05
4909.9	0.560913	-2.10571e-06
4910.8	0.561554	-3.14331e-06
4911.7	0.560272	2.04773e-05
4912.54	0.561584	-4.57764e-06
4913.44	0.561279	-2.83813e-06
4914.34	0.561401	8.66699e-06
4915.2	-0.698547	-0.0251678
4916.08	0.560364	3.32642e-06
4916.98	0.560089	1.44348e-05
4917.84	-0.697632	-0.0191101
4918.72	0.56012	5.34058e-06
4919.62	0.560181	1.26343e-05
4920.5	0.000979614	0.00653992
4921.36	0.561584	-4.15039e-06
4922.26	0.561279	3.05176e-06
4923.14	-0.000488281	0.00384247
4924	0.560547	2.56348e-06
4924.9	0.561005	7.41577e-06
4925.8	0.559265	0.0171844
4926.64	0.561218	-2.50244e-06
4927.54	0.561584	-3.05176e-07
4928.44	0.55954	0.0106964
4929.28	0.560638	2.44141e-07
4930.18	0.56015	9.39941e-06
4931.08	0.561523	0.000523071
4931.92	0.56076	-1.37329e-06
4932.82	0.560394	5.61523e-06
4933.72	0.56073	9.2041e-05
4934.56	0.56073	-2.13623e-06
4935.46	0.561157	2.28882e-06
4936.36	0.560944	2.8717e-05
4937.2	0.561646	-7.56836e-06
4938.1	0.56015	7.08008e-06
4939	0.56134	1.33667e-05
4939.84	0.560211	4.36401e-06
4940.74	0.560181	3.72314e-06
4941.64	0.561462	7.41577e-06
4942.5	-0.69751	-0.0251984
4943.38	0.560181	6.34766e-06
4944.28	0.561554	4.39453e-06
4945.14	-0.6987	-0.0191193
4946.02	0.560181	5.5542e-06
4946.92	0.561188	6.7749e-06
4947.8	0.000662231	0.00651978
4948.66	0.561249	-2.53296e-06
4949.56	0.560944	4.02832e-06
4950.44	0.000344849	0.00383057
4951.3	0.561554	-3.9978e-06
4952.2	0.561249	2.56348e-06
4953.1	0.559937	0.0171722
4953.94	0.561554	-5.24902e-06
4954.84	0.560242	8.3313e-06
4955.74	0.55954	0.0107361
4956.58	0.560211	4.45557e-06
4957.48	0.561615	-1.40381e-06
4958.38	0.560181	0.000545654
4959.22	0.56012	4.69971e-06
4960.12	0.561584	-2.2583e-06
4961.02	0.560059	9.82056e-05
4961.86	0.561401	-3.32642e-06
4962.76	0.560181	6.5918e-06
4963.66	0.561157	2.82898e-05
4964.5	0.560516	1.15967e-06
4965.4	0.56073	2.83813e-06
4966.3	0.559937	2.23694e-05
4967.14	0.561371	-4.3335e-06
4968.04	0.561584	-4.3335e-06
4968.94	0.560364	1.42822e-05
4969.8	-0.697327	-0.0251953
4970.68	0.560181	6.7749e-06
4971.58	0.561127	9.06372e-06
4972.44	-0.697693	-0.0191467
4973.32	0.561157	1.89209e-06
4974.22	0.560211	1.20239e-05
4975.1	0.000674438	0.00650391
4975.96	0.560364	5.15747e-06
4976.86	0.560028	1.17493e-05
4977.74	0.000393677	0.00381653
4978.6	0.56073	-3.66211e-07
4979.5	0.561096	1.58691e-06
4980.4	0.559235	0.0171875
4981.24	0.560059	5.58472e-06
4982.14	0.560059	1.03455e-05
4983.04	0.560486	0.0107483
4983.88	0.561523	-4.3335e-06
4984.78	0.561554	-1.25122e-06
4985.68	0.561615	0.000545349
4986.52	0.561249	-8.54492e-07
4987.42	0.560944	1.89209e-06
4988.32	0.561554	8.68225e-05
4989.16	0.561279	-3.75366e-06
4990.06	0.560303	6.43921e-06
4990.96	0.560059	3.72314e-05
4991.8	0.560089	4.39453e-06
4992.7	0.560028	8.14819e-06
4993.6	0.561554	1.18713e-05
4994.44	0.561493	-4.82178e-06
4995.34	0.561462	-2.31934e-06
4996.24	0.560303	1.59302e-05
4997.1	-0.697845	-0.0252106
4997.98	0.561523	-4.15039e-06
4998.88	0.560089	1.6571e-05
4999.74	-0.698914	-0.019162
5000.62	0.56131	-2.22778e-06
5001.52	0.561401	2.68555e-06
5002.4	-0.000588989	0.00649231
5003.26	0.561401	-1.89209e-06
5004.16	0.559967	1.14136e-05
5005.04	-0.000152588	0.00381531
5005.9	0.560059	5.0354e-06
5006.8	0.560211	9.58252e-06
5007.7	0.560028	0.0171875
5008.54	0.560883	-1.12915e-06
5009.44	0.56012	1.01013e-05
5010.34	0.560303	0.010788
5011.18	0.559967	6.04248e-06
5012.08	0.561371	-1.61743e-06
5012.98	0.559967	0.000566406
5013.82	0.560059	5.85937e-06
5014.72	0.559967	8.60596e-06
5015.62	0.561493	8.97827e-05
5016.46	0.560852	2.50244e-06
5017.36	0.560852	1.98364e-06
5018.26	0.56012	3.62854e-05
5019.1	0.561249	-2.71606e-06
5020	0.56073	1.83105e-06
5020.9	0.561218	1.58386e-05
5021.74	0.561157	-1.58691e-06
5022.64	0.560974	-5.49316e-07
5023.54	0.560669	1.3855e-05
5024.4	-0.697052	-0.0252075
5025.28	0.561371	-1.00708e-06
5026.18	0.560547	1.20544e-05
5027.04	-0.698914	-0.0191772
5027.92	0.560425	3.08228e-06
5028.82	0.561066	5.27954e-06
5029.7	0.00065918	0.00645508
5030.56	0.561096	5.18799e-07
5031.46	0.560211	9.52148e-06
5032.34	0.00100708	0.00379089
5033.2	0.561401	-3.35693e-06
5034.1	0.560028	1.07422e-05
5035	0.560455	0.0171692
5035.84	0.560059	5.31006e-06
5036.74	0.560059	1.05591e-05
5037.64	0.560944	0.0108093
5038.48	0.560059	6.34766e-06
5039.38	0.561401	-6.10352e-08
5040.28	0.561096	0.000574646
5041.12	0.561218	-1.28174e-06
5042.02	0.561493	4.88281e-07
5042.92	0.559998	0.000101929
5043.76	0.560974	1.0376e-06
5044.66	0.560669	2.96021e-06
5045.56	0.560211	3.51562e-05
5046.4	0.56073	-8.8501e-07
5047.3	0.560425	7.35474e-06
5048.2	0.561554	1.15662e-05
5049.04	0.560944	1.28174e-06
5049.94	0.560425	5.79834e-06
5050.84	0.561462	6.86646e-06
5051.7	-0.6987	-0.0252197
5052.58	0.561646	-4.94385e-06
5053.48	0.56012	1.41907e-05
5054.34	-0.699036	-0.0192017
5055.22	0.560425	4.39453e-06
5056.12	0.560516	7.53784e-06
5057	0.000814819	0.0064502
5057.86	0.561249	-8.23975e-07
5058.76	0.560303	8.3313e-06
5059.64	0.0009552	0.00379272
5060.5	0.560944	2.44141e-07
5061.4	0.560089	1.07422e-05
5062.3	0.559387	0.0172028
5063.14	0.560059	6.31714e-06
5064.04	0.560486	6.40869e-06
5064.94	0.561096	0.0108215
5065.78	0.560944	-2.13623e-07
5066.68	0.560516	6.62231e-06
5067.58	0.559814	0.000590515
5068.42	0.560272	5.15747e-06
5069.32	0.560028	9.91821e-06
5070.22	0.561218	9.66797e-05
5071.06	0.561005	-2.04468e-06
5071.96	0.561432	-2.0752e-06
5072.86	0.561371	2.72217e-05
5073.7	0.560822	-9.76562e-07
5074.6	0.559937	7.50732e-06
5075.5	0.561157	1.57776e-05
5076.34	0.561737	-4.79126e-06
5077.24	0.560211	6.31714e-06
5078.14	0.561615	6.43921e-06
5079	-0.698029	-0.0252258
5079.88	0.56076	-2.44141e-07
5080.78	0.560608	1.05286e-05
5081.64	-0.697754	-0.0192291
5082.52	0.561249	-1.46484e-06
5083.42	0.560059	1.19934e-05
5084.3	0.000744629	0.00644043
5085.16	0.560913	2.56348e-06
5086.06	0.560089	1.14441e-05
5086.94	0.000891113	0.00378845
5087.8	0.560364	3.11279e-06
5088.7	0.560059	1.00098e-05
5089.6	0.560333	0.0172058
5090.44	0.561493	-1.77002e-06
5091.34	0.560913	2.28882e-06
5092.24	0.560059	0.0108643
5093.08	0.560303	4.27246e-06
5093.98	0.560455	6.073e-06
5094.88	0.561401	0.000591431
5095.72	0.561157	-1.86157e-06
5096.62	0.560486	4.94385e-06
5097.52	0.561066	0.000100189
5098.36	0.561432	-5.00488e-06
5099.26	0.560028	6.86646e-06
5100.16	0.560852	3.25928e-05
5101	0.560791	1.15967e-06
5101.9	0.561554	-2.47192e-06
5102.8	0.561554	1.30615e-05
5103.64	0.560425	3.63159e-06
5104.54	0.561493	-2.31934e-06
5105.44	0.559967	1.76086e-05
5106.3	-0.697113	-0.0252441
5107.18	0.560028	7.90405e-06
5108.08	0.560089	1.46484e-05
5108.94	-0.698608	-0.0192322
5109.82	0.561066	-1.61743e-06
5110.72	0.559967	1.30005e-05
5111.6	-0.000543213	0.0064389
5112.46	0.561279	-6.40869e-07
5113.36	0.561127	3.32642e-06
5114.24	2.44141e-05	0.00379364
5115.1	0.560181	6.073e-06
5116	0.559998	9.09424e-06
5116.9	0.559265	0.017218
5117.74	0.560883	-1.52588e-06
5118.64	0.56015	8.57544e-06
5119.54	0.561096	0.0108856
5120.38	0.560211	4.91333e-06
5121.28	0.560089	6.2561e-06
5122.18	0.561554	0.000605774
5123.02	0.56131	-2.19727e-06
5123.92	0.560089	7.72095e-06
5124.82	0.561279	0.0001015625
5125.66	0.560699	2.65503e-06
5126.56	0.561554	-1.49536e-06
5127.46	0.561218	3.12195e-05
5128.3	0.561584	-2.96021e-06
5129.2	0.561218	-5.18799e-07
5130.1	0.560669	1.953125E-05
5130.94	0.560822	1.7395e-06
5131.84	0.560181	6.37817e-06
5132.74	0.56131	9.552e-06
5133.6	-0.697144	-0.0252441
5134.48	0.560089	6.10352e-06
5135.38	0.560028	1.42822e-05
5136.24	-0.698364	-0.0192413
5137.12	0.561615	-4.82178e-06
5138.02	0.561462	1.64795e-06
5138.9	-0.000668335	0.0064212
5139.76	0.561432	-2.62451e-06
5140.66	0.560699	7.01904e-06
5141.54	0.0009552	0.00377991
5142.4	0.561523	-3.26538e-06
5143.3	0.561554	-1.83105e-07
5144.2	0.559265	0.0172302
5145.04	0.560028	6.34766e-06
5145.94	0.559998	8.88062e-06
5146.84	0.56076	0.010907
5147.68	0.561005	3.05176e-07
5148.58	0.561615	-1.09863e-06
5149.48	0.560333	0.000625
5150.32	0.560059	4.88281e-06
5151.22	0.560211	7.44629e-06
5152.12	0.56131	0.0001008
5152.96	0.560242	5.43213e-06
5153.86	0.561768	-2.0752e-06
5154.76	0.560883	3.23181e-05
5155.6	0.561371	-4.27246e-07
5156.5	0.560089	7.2937e-06
5157.4	0.561005	1.828e-05
5158.24	0.561188	-2.31934e-06
5159.14	0.559998	7.08008e-06
5160.04	0.560028	1.74561e-05
5160.9	-0.698273	-0.0252502
5161.78	0.561127	-5.79834e-07
5162.68	0.560669	1.09558e-05
5163.54	-0.697815	-0.019278
5164.42	0.56015	6.53076e-06
5165.32	0.560242	1.18713e-05
5166.2	0.000408936	0.00640015
5167.06	0.560944	3.35693e-07
5167.96	0.561554	3.35693e-07
5168.84	-0.000421143	0.00377869
5169.7	0.56012	5.88989e-06
5170.6	0.561584	2.13623e-07
5171.5	0.560699	0.017218
5172.34	0.560577	3.02124e-06
5173.24	0.561218	1.0376e-06
5174.14	0.55954	0.0109558
5174.98	0.560791	1.0376e-06
5175.88	0.560547	3.17383e-06
5176.78	0.56134	0.000629883
5177.62	0.56073	2.01416e-06
5178.52	0.56015	7.62939e-06
5179.42	0.560059	0.000113678
5180.26	0.561371	-3.38745e-06
5181.16	0.561523	-3.44849e-06
5182.06	0.560547	3.68958e-05
5182.9	0.56134	-1.92261e-06
5183.8	0.559967	7.20215e-06
5184.7	0.560089	2.41394e-05
5185.54	0.56131	-3.32642e-06
5186.44	0.561615	-3.44849e-06
5187.34	0.560089	1.75476e-05
5188.2	-0.698273	-0.0252441
5189.08	0.560547	2.62451e-06
5189.98	0.560608	1.05591e-05
5190.84	-0.698639	-0.019278
5191.72	0.560181	5.49316e-06
5192.62	0.560944	6.13403e-06
5193.5	0.000680542	0.00638641
5194.36	0.560883	2.74658e-07
5195.26	0.560822	7.87354e-06
5196.14	-0.000534058	0.00377625
5197	0.561066	6.10352e-08
5197.9	0.560516	6.83594e-06
5198.8	0.559753	0.0172394
5199.64	0.559998	5.37109e-06
5200.54	0.559967	7.90405e-06
5201.44	0.561035	0.0109619
5202.28	0.560364	1.06812e-06
5203.18	0.560638	4.91333e-06
5204.08	0.560852	0.000644226
5204.92	0.560089	6.46973e-06
5205.82	0.561584	-3.57056e-06
5206.72	0.56015	0.000114471
5207.56	0.561523	-2.71606e-06
5208.46	0.561554	-2.2583e-06
5209.36	0.561096	3.2196e-05
5210.2	0.560974	-1.43433e-06
5211.1	0.560028	5.82886e-06
5212	0.56012	2.38037e-05
5212.84	0.560028	3.44849e-06
5213.74	0.56073	3.11279e-06
5214.64	0.561005	1.01624e-05
5215.5	-0.698639	-0.0252502
5216.38	0.56012	5.43213e-06
5217.28	0.559998	1.4801e-05
5218.14	-0.697479	-0.0192932
5219.02	0.560425	2.22778e-06
5219.92	0.560852	7.65991e-06
5220.8	-0.000445557	0.0063797
5221.66	0.56015	3.93677e-06
5222.56	0.561005	4.05884e-06
5223.44	-0.000592041	0.00376984
5224.3	0.560089	5.5542e-06
5225.2	0.560699	5.40161e-06
5226.1	0.560608	0.0172272
5226.94	0.561249	-2.92969e-06
5227.84	0.561066	9.76562e-07
5228.74	0.559601	0.0109924
5229.58	0.561127	-3.96729e-07
5230.48	0.560516	4.57764e-06
5231.38	0.561615	0.000649414
5232.22	0.561218	-2.34985e-06
5233.12	0.560486	4.30298e-06
5234.02	0.560364	0.000113159
5234.86	0.56012	4.45557e-06
5235.76	0.560089	6.98853e-06
5236.66	0.560974	3.28064e-05
5237.5	0.560059	6.62231e-06
5238.4	0.560303	2.13623e-06
5239.3	0.561127	1.70593e-05
5240.14	0.561615	-6.2561e-06
5241.04	0.560211	5.46265e-06
5241.94	0.561523	6.62231e-06
5242.8	-0.69812	-0.0252625
5243.68	0.56012	8.63647e-06
5244.58	0.561554	4.3335e-06
5245.44	-0.697601	-0.0193054
5246.32	0.561584	-4.05884e-06
5247.22	0.560242	1.28479e-05
5248.1	-0.000601196	0.0063623
5248.96	0.559967	6.74438e-06
5249.86	0.561584	1.0376e-06
5250.74	-0.00017395	0.00376038
5251.6	0.560974	-2.34985e-06
5252.5	0.56076	6.01196e-06
5253.4	0.560516	0.0172241
5254.24	0.560944	-2.7771e-06
5255.14	0.560303	8.3313e-06
5256.04	0.559662	0.0110138
5256.88	0.561493	-4.66919e-06
5257.78	0.561401	-1.86157e-06
5258.68	0.561066	0.00065918
5259.52	0.56015	4.57764e-06
5260.42	0.561615	-3.32642e-06
5261.32	0.560028	0.000118774
5262.16	0.560455	1.5564e-06
5263.06	0.561218	1.00708e-06
5263.96	0.560059	4.09851e-05
5264.8	0.560059	4.5166e-06
5265.7	0.561066	1.31226e-06
5266.6	0.560913	1.78528e-05
5267.44	0.561401	-5.61523e-06
5268.34	0.560577	4.27246e-06
5269.24	0.560242	1.62048e-05
5270.1	-0.697937	-0.0252716
5270.98	0.560089	5.64575e-06
5271.88	0.560974	7.41577e-06
5272.74	-0.698944	-0.0193268
5273.62	0.560059	6.62231e-06
5274.52	0.560272	1.30005e-05
5275.4	0.00085144	0.00633453
5276.26	0.561249	-2.0752e-06
5277.16	0.561554	9.76562e-07
5278.04	-0.000524902	0.00374725
5278.9	0.561462	-4.69971e-06
5279.8	0.559937	1.16577e-05
5280.7	0.560608	0.0172363
5281.54	0.559967	5.0354e-06
5282.44	0.560547	6.5918e-06
5283.34	0.560669	0.0110168
5284.18	0.560913	-1.7395e-06
5285.08	0.561646	-2.22778e-06
5285.98	0.560547	0.00067688
5286.82	0.560059	6.68335e-06
5287.72	0.561127	-3.05176e-08
5288.62	0.561584	0.000109802
5289.46	0.56131	-2.65503e-06
5290.36	0.561218	5.18799e-07
5291.26	0.560394	3.90625E-05
5292.1	0.560608	-1.37329e-06
5293	0.560059	6.86646e-06
5293.9	0.560211	2.17285e-05
5294.74	0.561462	-5.49316e-06
5295.64	0.561554	-3.54004e-06
5296.54	0.561188	1.16577e-05
5297.4	-0.698273	-0.0252899
5298.28	0.560394	4.66919e-06
5299.18	0.561096	7.20215e-06
5300.04	-0.697449	-0.0193604
5300.92	0.560547	3.26538e-06
5301.82	0.560455	1.19019e-05
5302.7	0.000219727	0.00631622
5303.56	0.561401	-3.54004e-06
5304.46	0.561035	3.87573e-06
5305.34	0.000778198	0.00372467
5306.2	0.560028	7.23267e-06
5307.1	0.560577	6.43921e-06
5308	0.560638	0.0172424
5308.84	0.561554	-5.31006e-06
5309.74	0.560333	7.62939e-06
5310.64	0.559479	0.0110443
5311.48	0.560364	2.89917e-06
5312.38	0.561157	2.38037e-06
5313.28	0.561554	0.000681152
5314.12	0.560699	8.54492e-07
5315.02	0.561401	-1.25122e-06
5315.92	0.561371	0.000114685
5316.76	0.560028	4.85229e-06
5317.66	0.560089	6.04248e-06
5318.56	0.56012	4.44031e-05
5319.4	0.561646	-6.22559e-06
5320.3	0.561493	-3.05176e-06
5321.2	0.561188	1.58081e-05
5322.04	0.560089	5.15747e-06
5322.94	0.561218	-4.08936e-06
5323.84	0.560516	1.41907e-05
5324.7	-0.697968	-0.0253082
5325.58	0.560059	6.7749e-06
5326.48	0.561127	6.68335e-06
5327.34	-0.698486	-0.0193573
5328.22	0.560333	3.84521e-06
5329.12	0.560364	1.26953e-05
5330	-0.000350952	0.00631622
5330.86	0.56015	5.61523e-06
5331.76	0.561615	1.83105e-06
5332.64	0.000378418	0.00372406
5333.5	0.560028	6.37817e-06
5334.4	0.560303	8.91113e-06
5335.3	0.559174	0.0172485
5336.14	0.561523	-4.02832e-06
5337.04	0.560699	5.21851e-06
5337.94	0.559601	0.0110596
5338.78	0.560486	2.22778e-06
5339.68	0.561005	1.34277e-06
5340.58	0.559998	0.000702209
5341.42	0.560089	4.5166e-06
5342.32	0.561584	-2.16675e-06
5343.22	0.560883	0.000116028
5344.06	0.561432	-4.5166e-06
5344.96	0.560547	4.97437e-06
5345.86	0.560059	4.36401e-05
5346.7	0.561554	-5.98145e-06
5347.6	0.561371	-2.0752e-06
5348.5	0.560059	2.57874e-05
5349.34	0.561035	-3.63159e-06
5350.24	0.561707	-2.04468e-06
5351.14	0.561493	8.8501e-06
5352	-0.698547	-0.0252899
5352.88	0.560028	6.56128e-06
5353.78	0.559998	1.44653e-05
5354.64	-0.697998	-0.0193726
5355.52	0.560547	5.27954e-06
5356.42	0.561127	5.67627e-06
5357.3	-0.000576782	0.00630005
5358.16	0.560486	3.35693e-06
5359.06	0.561584	1.37329e-06
5359.94	0.00027771	0.00371643
5360.8	0.560028	7.23267e-06
5361.7	0.560089	1.04065e-05
5362.6	0.560699	0.0172485
5363.44	0.560394	2.80762e-06
5364.34	0.561401	-1.2207e-07
5365.24	0.560944	0.0110901
5366.08	0.561493	-4.76074e-06
5366.98	0.561523	-1.34277e-06
5367.88	0.56076	0.000708008
5368.72	0.560394	2.56348e-06
5369.62	0.561615	-5.18799e-07
5370.52	0.561615	0.000115051
5371.36	0.560852	4.27246e-07
5372.26	0.561584	-3.08228e-06
5373.16	0.56012	4.31519e-05
5374	0.560822	-1.46484e-06
5374.9	0.560699	3.23486e-06
5375.8	0.560089	2.31018e-05
5376.64	0.561523	-5.92041e-06
5377.54	0.561584	-3.60107e-06
5378.44	0.560852	1.30615e-05
5379.3	-0.697205	-0.0253052
5380.18	0.560486	2.83813e-06
5381.08	0.56015	1.54419e-05
5381.94	-0.698547	-0.0193817
5382.82	0.559906	8.20923e-06
5383.72	0.560364	1.0498e-05
5384.6	0.000811768	0.00627716
5385.46	0.560852	9.15527e-08
5386.36	0.560028	1.2146e-05
5387.24	-0.000543213	0.00371979
5388.1	0.561462	-5.92041e-06
5389	0.560242	9.552e-06
5389.9	0.559875	0.0172577
5390.74	0.56073	-8.23975e-07
5391.64	0.560059	1.01318e-05
5392.54	0.561096	0.0111053
5393.38	0.559937	6.98853e-06
5394.28	0.560425	7.99561e-06
5395.18	0.560059	0.000725098
5396.02	0.56134	-3.44849e-06
5396.92	0.561523	-2.01416e-06
5397.82	0.560181	0.00012738
5398.66	0.561584	-4.88281e-06
5399.56	0.560425	6.2561e-06
5400.46	0.561554	3.3905e-05
5401.3	0.559967	4.5166e-06
5402.2	0.560638	3.38745e-06
5403.1	0.560944	1.81274e-05
5403.94	0.56015	3.60107e-06
5404.84	0.561523	-3.66211e-06
5405.74	0.561462	8.88062e-06
5406.6	-0.697174	-0.0253113
5407.48	0.560303	5.15747e-06
5408.38	0.561615	4.05884e-06
5409.24	-0.698944	-0.0194
5410.12	0.560089	6.7749e-06
5411.02	0.560669	7.99561e-06
5411.9	-0.000518799	0.00626862
5412.76	0.560089	5.79834e-06
5413.66	0.561462	2.80762e-06
5414.54	0.000842285	0.00369843
5415.4	0.560272	6.10352e-06
5416.3	0.560303	9.30786e-06
5417.2	0.560486	0.0172455
5418.04	0.560974	-8.54492e-07
5418.94	0.561218	-3.35693e-07
5419.84	0.560822	0.0111176
5420.68	0.561066	5.18799e-07
5421.58	0.560181	8.08716e-06
5422.48	0.561462	0.000725098
5423.32	0.561188	-7.32422e-07
5424.22	0.559998	8.11768e-06
5425.12	0.560455	0.000128662
5425.96	0.559998	7.44629e-06
5426.86	0.559998	8.20923e-06
5427.76	0.56073	4.02222e-05
5428.6	0.560974	-1.52588e-06
5429.5	0.56012	6.53076e-06
5430.4	0.560486	2.20032e-05
5431.24	0.561523	-4.39453e-06
5432.14	0.561157	-8.8501e-07
5433.04	0.560608	1.3916e-05
5433.9	-0.697144	-0.0253082
5434.78	0.561584	-4.15039e-06
5435.68	0.56073	9.765625E-06
5436.54	-0.698914	-0.0194153
5437.42	0.560486	3.78418e-06
5438.32	0.561462	2.44141e-06
5439.2	0.000671387	0.00624695
5440.06	0.561615	-3.93677e-06
5440.96	0.561554	6.10352e-08
5441.84	0.000964355	0.00368988
5442.7	0.561096	-8.8501e-07
5443.6	0.56134	1.40381e-06
5444.5	0.559601	0.0172668
5445.34	0.56012	5.70679e-06
5446.24	0.560364	4.82178e-06
5447.14	0.56076	0.0111389
5447.98	0.561493	-4.79126e-06
5448.88	0.560059	9.18579e-06
5449.78	0.560547	0.000739746
5450.62	0.560516	1.19019e-06
5450.76	0.560089	3.93677e-06