File: Edgar/20240529/20240529/electrodeposition_pulsed_potential_20240529_B/pulses_1000_to_2000.txt
Time (s)	WE(1).Potential (V)	WE(1).Current (A)
1504.95	-0.698181	-0.0218292
1505.83	0.561249	-4.08936e-06
1506.73	0.560638	5.09644e-06
1507.59	-0.6987	-0.013623
1508.47	0.560211	4.21143e-06
1509.37	0.560486	6.04248e-06
1510.25	0.000509644	0.00905762
1511.11	0.56134	-3.87573e-06
1512.01	0.56015	6.22559e-06
1512.89	0.000613403	0.00391907
1513.75	0.560455	4.54712e-06
1514.65	0.56015	7.20215e-06
1515.55	0.55954	0.0134521
1516.39	0.560089	5.21851e-06
1517.29	0.560089	7.8125e-06
1518.19	0.559967	9.2041e-05
1519.03	0.561066	-4.57764e-07
1519.93	0.560547	2.41089e-06
1520.83	0.561554	2.82593e-05
1521.67	0.560608	1.06812e-06
1522.57	0.559998	7.50732e-06
1523.47	0.561523	1.45874e-05
1524.31	0.560547	-6.40869e-07
1525.21	0.560333	4.27246e-06
1526.11	0.560699	1.41602e-05
1526.95	0.559967	5.43213e-06
1527.85	0.561096	8.8501e-07
1528.75	0.561066	1.0376e-05
1529.59	0.560608	6.10352e-08
1530.49	0.560059	5.18799e-06
1531.39	0.561279	4.21143e-06
1532.25	-0.69751	-0.0218475
1533.13	0.561554	-5.34058e-06
1534.03	0.561493	7.01904e-07
1534.89	-0.697998	-0.0136719
1535.77	0.560394	2.86865e-06
1536.67	0.561554	-1.98364e-06
1537.55	-0.000714111	0.00916138
1538.41	0.561554	-4.94385e-06
1539.31	0.561432	2.44141e-07
1540.19	7.01904e-05	0.00403168
1541.05	0.561066	-1.7395e-06
1541.95	0.561249	1.2207e-07
1542.85	0.560699	0.0135956
1543.69	0.560059	5.85937e-06
1544.59	0.561279	-1.95313e-06
1545.49	0.561554	8.1604e-05
1546.33	0.560638	-8.23975e-07
1547.23	0.560699	1.31226e-06
1548.13	0.559967	4.0863e-05
1548.97	0.561462	-5.00488e-06
1549.87	0.561157	-4.45557e-06
1550.77	0.56012	2.52075e-05
1551.61	0.561615	-4.73022e-06
1552.51	0.561554	-2.7771e-06
1553.41	0.561584	8.60596e-06
1554.25	0.560028	4.97437e-06
1555.15	0.561615	-5.49316e-06
1556.05	0.56012	1.32446e-05
1556.89	0.561523	-6.04248e-06
1557.79	0.560944	-7.01904e-07
1558.69	0.561188	4.76074e-06
1559.55	-0.698792	-0.0219391
1560.43	0.560608	4.85229e-06
1561.33	0.560669	6.19507e-06
1562.19	-0.69931	-0.0137726
1563.07	0.560089	6.46973e-06
1563.97	0.560699	2.38037e-06
1564.85	-0.00067749	0.00917053
1565.71	0.561615	-5.15747e-06
1566.61	0.560333	5.61523e-06
1567.49	-0.000354004	0.00409454
1568.35	0.56134	-4.60815e-06
1569.25	0.561035	3.05176e-08
1570.15	0.559937	0.0137451
1570.99	0.56012	6.68335e-06
1571.89	0.560486	4.79126e-06
1572.79	0.560333	9.32007e-05
1573.63	0.560577	3.96729e-07
1574.53	0.560242	6.5918e-06
1575.43	0.561218	3.54614e-05
1576.27	0.56076	-1.25122e-06
1577.17	0.561646	-4.85229e-06
1578.07	0.560059	2.57874e-05
1578.91	0.561035	-2.86865e-06
1579.81	0.560425	4.82178e-06
1580.71	0.561554	8.81958e-06
1581.55	0.560181	4.5166e-06
1582.45	0.561493	-3.87573e-06
1583.35	0.560455	1.33362e-05
1584.19	0.561279	-2.13623e-06
1585.09	0.56012	4.08936e-06
1585.99	0.560974	3.72314e-06
1586.85	-0.69873	-0.0220337
1587.73	0.560059	5.24902e-06
1588.63	0.561493	1.15967e-06
1589.49	-0.699219	-0.0138641
1590.37	0.560028	4.94385e-06
1591.27	0.561584	-7.62939e-07
1592.15	0.000671387	0.00917358
1593.01	0.560303	4.85229e-06
1593.91	0.560852	4.11987e-06
1594.79	6.10352e-05	0.00413483
1595.65	0.560333	2.92969e-06
1596.55	0.560516	7.38525e-06
1597.45	0.560852	0.013858
1598.29	0.56073	2.74658e-07
1599.19	0.560089	8.17871e-06
1600.09	0.56015	9.83887e-05
1600.93	0.561401	-5.15747e-06
1601.83	0.560028	6.56128e-06
1602.73	0.56012	4.13208e-05
1603.57	0.560913	1.52588e-07
1604.47	0.56134	-2.53296e-06
1605.37	0.561676	1.5625e-05
1606.21	0.561218	-2.7771e-06
1607.11	0.559875	7.1106e-06
1608.01	0.561554	9.67407e-06
1608.85	0.561462	-5.79834e-06
1609.75	0.560913	1.52588e-07
1610.65	0.561584	5.61523e-06
1611.49	0.561462	-5.67627e-06
1612.39	0.561371	-2.96021e-06
1613.29	0.56131	2.65503e-06
1614.15	-0.697784	-0.0221283
1615.03	0.560486	1.34277e-06
1615.93	0.561554	1.15967e-06
1616.79	-0.698944	-0.0139862
1617.67	0.561676	-6.86646e-06
1618.57	0.561005	2.74658e-06
1619.45	-0.000769043	0.00917358
1620.31	0.561157	-3.66211e-06
1621.21	0.56012	9.61304e-06
1622.09	-5.79834e-05	0.00417938
1622.95	0.56076	-1.64795e-06
1623.85	0.56131	-2.44141e-06
1624.75	0.561035	0.0139771
1625.59	0.560333	1.77002e-06
1626.49	0.560699	3.93677e-06
1627.39	0.561279	9.41467e-05
1628.23	0.560028	2.50244e-06
1629.13	0.561615	-3.44849e-06
1630.03	0.561584	3.2135e-05
1630.87	0.561096	-2.92969e-06
1631.77	0.560608	2.62451e-06
1632.67	0.560944	1.77612e-05
1633.51	0.56134	-3.90625e-06
1634.41	0.561371	-4.63867e-06
1635.31	0.560089	1.953125E-05
1636.15	0.56012	2.41089e-06
1637.05	0.561493	-3.60107e-06
1637.95	0.561249	8.20923e-06
1638.79	0.560822	-3.66211e-07
1639.69	0.56134	-3.23486e-06
1640.59	0.561523	2.68555e-06
1641.45	-0.698822	-0.0222137
1642.33	0.561554	-5.64575e-06
1643.23	0.559998	1.16577e-05
1644.09	-0.698212	-0.0141052
1644.97	0.561584	-3.8147e-06
1645.87	0.56012	9.70459e-06
1646.75	0.000637817	0.00917053
1647.61	0.560577	2.38037e-06
1648.51	0.560333	7.14111e-06
1649.39	0.000152588	0.00422607
1650.25	0.561615	-5.58472e-06
1651.15	0.560608	6.073e-06
1652.05	0.559845	0.0140869
1652.89	0.561066	-2.38037e-06
1653.79	0.561462	-1.31226e-06
1654.69	0.560089	0.000101624
1655.53	0.561493	-7.08008e-06
1656.43	0.561188	3.35693e-07
1657.33	0.560272	4.1687e-05
1658.17	0.560303	3.54004e-06
1659.07	0.560211	5.85937e-06
1659.97	0.560059	2.70386e-05
1660.81	0.561066	-2.7771e-06
1661.71	0.561401	-6.10352e-08
1662.61	0.561157	1.32446e-05
1663.45	0.56073	2.28882e-06
1664.35	0.561279	-2.16675e-06
1665.25	0.56134	5.79834e-06
1666.09	0.56131	-4.48608e-06
1666.99	0.561279	-3.05176e-06
1667.89	0.561554	1.40381e-06
1668.75	-0.697693	-0.0223389
1669.63	0.560059	5.00488e-06
1670.53	0.560059	1.19019e-05
1671.39	-0.698761	-0.0142029
1672.27	0.560028	6.40869e-06
1673.17	0.560364	9.21631e-06
1674.05	0.000692749	0.00914917
1674.91	0.560089	5.64575e-06
1675.81	0.560699	6.34766e-06
1676.69	0.00085144	0.00423767
1677.55	0.561005	-1.80054e-06
1678.45	0.560303	8.54492e-06
1679.35	0.560791	0.0141937
1680.19	0.560822	9.15527e-07
1681.09	0.559998	7.53784e-06
1681.99	0.561584	9.28345e-05
1682.83	0.561584	-6.98853e-06
1683.73	0.56015	5.98145e-06
1684.63	0.561554	3.24402e-05
1685.47	0.56015	2.74658e-06
1686.37	0.560181	5.70679e-06
1687.27	0.560333	2.67944e-05
1688.11	0.561218	-3.38745e-06
1689.01	0.560242	8.36182e-06
1689.91	0.561554	8.54492e-06
1690.75	0.559967	5.34058e-06
1691.65	0.560242	7.08008e-06
1692.55	0.56015	1.49536e-05
1693.39	0.561218	-2.65503e-06
1694.29	0.560791	-7.01904e-07
1695.19	0.560364	1.20544e-05
1696.05	-0.698853	-0.0224243
1696.93	0.561096	-2.80762e-06
1697.83	0.560242	1.25427e-05
1698.69	-0.697845	-0.0143158
1699.57	0.561279	-2.74658e-07
1700.47	0.561554	-4.57764e-07
1701.35	0.000582886	0.00913391
1702.21	0.560577	1.28174e-06
1703.11	0.560303	8.39233e-06
1703.99	0.000933838	0.00425812
1704.85	0.561615	-6.073e-06
1705.75	0.559937	9.24683e-06
1706.65	0.560577	0.0142792
1707.49	0.561401	-4.79126e-06
1708.39	0.560852	2.38037e-06
1709.29	0.56073	0.000100159
1710.13	0.560852	1.28174e-06
1711.03	0.560516	5.82886e-06
1711.93	0.560089	4.44946e-05
1712.77	0.56131	-3.20435e-06
1713.67	0.561035	1.06812e-06
1714.57	0.561249	2.10876e-05
1715.41	0.56073	1.2207e-07
1716.31	0.560089	7.87354e-06
1717.21	0.561584	9.85718e-06
1718.05	0.560242	4.88281e-06
1718.95	0.561279	-1.89209e-06
1719.85	0.56134	6.34766e-06
1720.69	0.560913	-1.09863e-06
1721.59	0.560486	2.96021e-06
1722.49	0.561279	3.11279e-06
1723.35	-0.698517	-0.0225098
1724.23	0.561523	-4.73022e-06
1725.13	0.561737	1.43433e-06
1725.99	-0.699249	-0.0144135
1726.87	0.560638	3.26538e-06
1727.77	0.559967	1.12e-05
1728.65	0.000595093	0.00909729
1729.51	0.56015	5.37109e-06
1730.41	0.560303	7.84302e-06
1731.29	0.000863647	0.00427368
1732.15	0.560211	4.15039e-06
1733.05	0.561554	-3.02124e-06
1733.95	0.560822	0.0143799
1734.79	0.561432	-4.02832e-06
1735.69	0.561279	4.27246e-07
1736.59	0.560303	0.000104675
1737.43	0.561707	-4.85229e-06
1738.33	0.560028	8.08716e-06
1739.23	0.561218	3.48816e-05
1740.07	0.560059	5.0354e-06
1740.97	0.560303	4.85229e-06
1741.87	0.561707	1.69067e-05
1742.71	0.560516	9.15527e-07
1743.61	0.560028	8.66699e-06
1744.51	0.560974	1.37024e-05
1745.35	0.560669	-1.52588e-07
1746.25	0.561096	3.05176e-07
1747.15	0.560242	1.40076e-05
1747.99	0.561401	-5.34058e-06
1748.89	0.561554	-3.54004e-06
1749.79	0.561523	3.63159e-06
1750.65	-0.698639	-0.0226227
1751.53	0.560242	4.60815e-06
1752.43	0.560181	8.36182e-06
1753.29	-0.698273	-0.0145294
1754.17	0.560486	4.3335e-06
1755.07	0.561523	-7.93457e-07
1755.95	-0.000369263	0.00909119
1756.81	0.559998	6.01196e-06
1757.71	0.561462	-5.79834e-07
1758.59	0.000335693	0.00429871
1759.45	0.561371	-2.7771e-06
1760.35	0.561584	-2.19727e-06
1761.25	0.56015	0.0144653
1762.09	0.560059	6.16455e-06
1762.99	0.559998	8.45337e-06
1763.89	0.56134	0.000101288
1764.73	0.560913	1.83105e-06
1765.63	0.561523	-3.23486e-06
1766.53	0.560547	4.02222e-05
1767.37	0.561462	-5.34058e-06
1768.27	0.561523	-3.08228e-06
1769.17	0.560913	2.01111e-05
1770.01	0.560547	2.2583e-06
1770.91	0.561249	-3.90625e-06
1771.81	0.56012	1.95007e-05
1772.65	0.561523	-5.82886e-06
1773.55	0.561157	-1.70898e-06
1774.45	0.560333	1.32446e-05
1775.29	0.560516	1.67847e-06
1776.19	0.561096	-9.15527e-07
1777.09	0.560394	1.04065e-05
1777.95	-0.698883	-0.0227112
1778.83	0.560638	1.67847e-06
1779.73	0.560425	1.06201e-05
1780.59	-0.697784	-0.0146454
1781.47	0.560394	6.34766e-06
1782.37	0.560547	5.31006e-06
1783.25	-0.000823975	0.00906982
1784.11	0.561401	-3.69263e-06
1785.01	0.560303	7.75146e-06
1785.89	0.000747681	0.00430695
1786.75	0.561493	-5.0354e-06
1787.65	0.560303	5.95093e-06
1788.55	0.55957	0.0145691
1789.39	0.560486	1.28174e-06
1790.29	0.560455	4.02832e-06
1791.19	0.560211	0.000112976
1792.03	0.559998	5.40161e-06
1792.93	0.560516	2.59399e-06
1793.83	0.561127	3.75366e-05
1794.67	0.561584	-4.24194e-06
1795.57	0.560028	7.1106e-06
1796.47	0.561493	1.83411e-05
1797.31	0.560577	1.37329e-06
1798.21	0.560394	1.61743e-06
1799.11	0.560089	2.01721e-05
1799.95	0.560028	5.92041e-06
1800.85	0.561218	-7.01904e-07
1801.75	0.560242	1.26953e-05
1802.59	0.560364	3.23486e-06
1803.49	0.560974	-3.66211e-07
1804.39	0.561188	5.24902e-06
1805.25	-0.698914	-0.0227814
1806.13	0.561127	-3.96729e-07
1807.03	0.56131	2.47192e-06
1807.89	-0.697784	-0.0147339
1808.77	0.561768	-5.67627e-06
1809.67	0.561676	-4.57764e-07
1810.55	0.000637817	0.00903931
1811.41	0.56012	5.31006e-06
1812.31	0.560486	5.06592e-06
1813.19	-0.000299072	0.00432922
1814.05	0.561554	-5.37109e-06
1814.95	0.561646	-1.40381e-06
1815.85	0.559509	0.0146423
1816.69	0.560883	1.58691e-06
1817.59	0.559998	9.52148e-06
1818.49	0.561554	0.000107178
1819.33	0.561035	-7.01904e-07
1820.23	0.560638	1.2207e-06
1821.13	0.560669	4.19312e-05
1821.97	0.560669	1.83105e-06
1822.87	0.560577	2.89917e-06
1823.77	0.561584	1.67236e-05
1824.61	0.561584	-5.18799e-06
1825.51	0.560883	-3.35693e-07
1826.41	0.56015	1.93481e-05
1827.25	0.559998	5.98145e-06
1828.15	0.561584	-4.30298e-06
1829.05	0.560089	1.48621e-05
1829.89	0.56015	5.18799e-06
1830.79	0.560242	4.48608e-06
1831.69	0.561218	2.44141e-06
1832.55	-0.6987	-0.0228485
1833.43	0.560791	-9.15527e-07
1834.33	0.560364	8.48389e-06
1835.19	-0.699036	-0.0148193
1836.07	0.560577	2.89917e-06
1836.97	0.561432	6.71387e-07
1837.85	0.000506592	0.00901489
1838.71	0.561646	-5.49316e-06
1839.61	0.560089	8.5144e-06
1840.49	0.000970459	0.00433533
1841.35	0.560699	-3.35693e-07
1842.25	0.560059	9.79614e-06
1843.15	0.559326	0.0147247
1843.99	0.560333	5.64575e-06
1844.89	0.561493	-2.47192e-06
1845.79	0.560608	0.000118225
1846.63	0.560211	2.96021e-06
1847.53	0.561493	-2.68555e-06
1848.43	0.559937	4.82178e-05
1849.27	0.560028	7.41577e-06
1850.17	0.561493	-4.48608e-06
1851.07	0.560394	2.55737e-05
1851.91	0.560211	6.28662e-06
1852.81	0.561249	-1.0376e-06
1853.71	0.561523	9.27734e-06
1854.55	0.560516	4.02832e-06
1855.45	0.560059	6.31714e-06
1856.35	0.561432	5.21851e-06
1857.19	0.561554	-5.70679e-06
1858.09	0.560181	5.64575e-06
1858.99	0.561584	4.08936e-06
1859.85	-0.698029	-0.0229126
1860.73	0.559998	6.16455e-06
1861.63	0.56134	1.86157e-06
1862.49	-0.698822	-0.0149048
1863.37	0.560791	1.83105e-07
1864.27	0.560059	1.03455e-05
1865.15	0.000466919	0.00899963
1866.01	0.560059	5.15747e-06
1866.91	0.561584	-2.13623e-06
1867.79	0.000262451	0.00435211
1868.65	0.561371	-1.7395e-06
1869.55	0.561554	-2.68555e-06
1870.45	0.560547	0.014798
1871.29	0.561554	-4.3335e-06
1872.19	0.56015	6.37817e-06
1873.09	0.561493	0.00011734
1873.93	0.560974	-9.15527e-07
1874.83	0.561401	-3.38745e-06
1875.73	0.561188	3.87268e-05
1876.57	0.560272	2.68555e-06
1877.47	0.560486	3.479e-06
1878.37	0.561584	1.89819e-05
1879.21	0.560669	4.27246e-07
1880.11	0.561493	-4.27246e-06
1881.01	0.560211	2.05688e-05
1881.85	0.56012	4.82178e-06
1882.75	0.560516	3.05176e-06
1883.65	0.56015	1.55334e-05
1884.49	0.560364	3.05176e-06
1885.39	0.561676	-5.64575e-06
1886.29	0.561249	5.79834e-06
1887.15	-0.697876	-0.0229889
1888.03	0.561584	-4.88281e-06
1888.93	0.561554	1.77002e-06
1889.79	-0.699249	-0.0149963
1890.67	0.561584	-5.92041e-06
1891.57	0.561493	-1.28174e-06
1892.45	0.000427246	0.00895996
1893.31	0.56015	3.44849e-06
1894.21	0.561554	-9.76562e-07
1895.09	0.00107422	0.00437286
1895.95	0.561493	-5.0354e-06
1896.85	0.561127	1.34277e-06
1897.75	0.560547	0.0148621
1898.59	0.56131	-3.23486e-06
1899.49	0.559906	8.3313e-06
1900.39	0.560333	0.000126221
1901.23	0.56012	5.31006e-06
1902.13	0.560059	7.04956e-06
1903.03	0.561554	3.59802e-05
1903.87	0.560333	3.08228e-06
1904.77	0.56073	3.35693e-07
1905.67	0.56131	1.98059e-05
1906.51	0.560974	-1.77002e-06
1907.41	0.561523	-4.30298e-06
1908.31	0.561401	1.25122e-05
1909.15	0.561157	-3.35693e-06
1910.05	0.560669	-8.8501e-07
1910.95	0.559967	1.74255e-05
1911.79	0.561401	-5.5542e-06
1912.69	0.561188	-1.0376e-06
1913.59	0.56012	1.2207e-05
1914.45	-0.69873	-0.0230713
1915.33	0.560028	5.49316e-06
1916.23	0.56134	4.57764e-07
1917.09	-0.697754	-0.0151123
1917.97	0.559967	3.87573e-06
1918.87	0.559998	1.05591e-05
1919.75	-3.05176e-05	0.00896301
1920.61	0.56073	2.74658e-07
1921.51	0.561676	-2.53296e-06
1922.39	0.000744629	0.00439209
1923.25	0.561462	-3.75366e-06
1924.15	0.560852	2.01416e-06
1925.05	0.560547	0.0149414
1925.89	0.561432	-4.91333e-06
1926.79	0.56015	7.84302e-06
1927.69	0.560059	0.00013623
1928.53	0.561646	-4.88281e-06
1929.43	0.561493	-4.05884e-06
1930.33	0.561523	3.68958e-05
1931.17	0.560211	4.88281e-06
1932.07	0.56073	3.05176e-06
1932.97	0.561493	1.84326e-05
1933.81	0.560242	3.35693e-06
1934.71	0.560181	4.91333e-06
1935.61	0.561401	1.12e-05
1936.45	0.56015	3.66211e-06
1937.35	0.560699	-4.27246e-07
1938.25	0.561279	7.32422e-06
1939.09	0.560608	1.64795e-06
1939.99	0.561249	-2.86865e-06
1940.89	0.560211	1.52283e-05
1941.75	-0.697906	-0.0231384
1942.63	0.560425	4.05884e-06
1943.53	0.560028	1.27869e-05
1944.39	-0.697723	-0.0151917
1945.27	0.560211	3.96729e-06
1946.17	0.560822	6.43921e-06
1947.05	-0.00072937	0.00895691
1947.91	0.560059	5.61523e-06
1948.81	0.560028	9.0332e-06
1949.69	0.000357056	0.00441193
1950.55	0.560242	5.18799e-06
1951.45	0.56015	9.27734e-06
1952.35	0.559387	0.0150269
1953.19	0.561493	-5.98145e-06
1954.09	0.561462	-2.19727e-06
1954.99	0.561188	0.000130737
1955.83	0.561493	-4.76074e-06
1956.73	0.561432	-1.46484e-06
1957.63	0.561066	4.28162e-05
1958.47	0.56012	4.11987e-06
1959.37	0.561737	-3.54004e-06
1960.27	0.560028	3.10669e-05
1961.11	0.560059	3.69263e-06
1962.01	0.561462	-2.71606e-06
1962.91	0.560425	1.82495e-05
1963.75	0.560242	3.90625e-06
1964.65	0.561066	-2.38037e-06
1965.55	0.561646	6.89697e-06
1966.39	0.561432	-4.79126e-06
1967.29	0.560028	4.66919e-06
1968.19	0.561554	3.78418e-06
1969.05	-0.697968	-0.0232147
1969.93	0.561249	-2.74658e-06
1970.83	0.561554	1.19019e-06
1971.69	-0.699249	-0.0152802
1972.57	0.560516	1.25122e-06
1973.47	0.560699	7.04956e-06
1974.35	0.000634766	0.00892944
1975.21	0.560822	0
1976.11	0.561188	-1.52588e-07
1976.99	0.00017395	0.00443024
1977.85	0.560059	5.82886e-06
1978.75	0.561218	5.79834e-07
1979.65	0.560577	0.0151001
1980.49	0.560669	1.28174e-06
1981.39	0.561371	-2.74658e-07
1982.29	0.561401	0.000136108
1983.13	0.561371	-2.92969e-06
1984.03	0.560333	2.62451e-06
1984.93	0.560211	4.80347e-05
1985.77	0.561432	-4.18091e-06
1986.67	0.560059	7.59888e-06
1987.57	0.561127	2.13013e-05
1988.41	0.560944	-1.7395e-06
1989.31	0.560822	2.96021e-06
1990.21	0.560211	2.20947e-05
1991.05	0.559967	4.91333e-06
1991.95	0.561127	-3.75366e-06
1992.85	0.560974	1.1322e-05
1993.69	0.561523	-5.34058e-06
1994.59	0.561584	-3.63159e-06
1995.49	0.560577	1.297e-05
1996.35	-0.697571	-0.0232697
1997.23	0.561554	-5.27954e-06
1998.13	0.561188	2.2583e-06
1998.99	-0.69928	-0.0153687
1999.87	0.561401	-4.48608e-06
2000.77	0.560791	7.17163e-06
2001.65	-0.00055542	0.00890503
2002.51	0.561737	-5.79834e-06
2003.41	0.561615	-8.23975e-07
2004.29	-0.000244141	0.00444031
2005.15	0.560242	3.20435e-06
2006.05	0.560242	7.35474e-06
2006.95	0.559662	0.0151581
2007.79	0.561005	-1.70898e-06
2008.69	0.561432	1.83105e-07
2009.59	0.561523	0.000147675
2010.43	0.559998	5.76782e-06
2011.33	0.561249	3.05176e-07
2012.23	0.560944	4.3457e-05
2013.07	0.561462	-5.76782e-06
2013.97	0.561371	-1.98364e-06
2014.87	0.561249	2.27051e-05
2015.71	0.561615	-6.43921e-06
2016.61	0.561432	-1.95313e-06
2017.51	0.561584	1.26343e-05
2018.35	0.560028	4.45557e-06
2019.25	0.561249	-7.32422e-07
2020.15	0.561493	6.34766e-06
2020.99	0.560974	-8.8501e-07
2021.89	0.561035	-1.40381e-06
2022.79	0.561554	2.92969e-06
2023.65	-0.697357	-0.0233276
2024.53	0.560913	-2.59399e-06
2025.43	0.560913	7.26318e-06
2026.29	-0.698914	-0.015448
2027.17	0.561096	4.57764e-07
2028.07	0.560883	6.10352e-06
2028.95	-0.00045166	0.00888672
2029.81	0.560028	5.52368e-06
2030.71	0.560913	3.32642e-06
2031.59	0.000665283	0.0044455
2032.45	0.560242	2.99072e-06
2033.35	0.560181	6.65283e-06
2034.25	0.560822	0.0152191
2035.09	0.559998	7.04956e-06
2035.99	0.560272	7.38525e-06
2036.89	0.561493	0.000160309
2037.73	0.560699	8.54492e-07
2038.63	0.561554	-3.63159e-06
2039.53	0.560974	4.5166e-05
2040.37	0.56015	4.73022e-06
2041.27	0.561615	-2.59399e-06
2042.17	0.560669	2.4353e-05
2043.01	0.560577	1.64795e-06
2043.91	0.560364	3.87573e-06
2044.81	0.560059	2.19727e-05
2045.65	0.560059	4.60815e-06
2046.55	0.56073	1.31226e-06
2047.45	0.560944	9.552e-06
2048.29	0.560455	2.28882e-06
2049.19	0.560852	1.12915e-06
2050.09	0.56134	5.46265e-06
2050.95	-0.697418	-0.0233887
2051.83	0.561279	-3.08228e-06
2052.73	0.560059	1.34888e-05
2053.59	-0.698059	-0.0155121
2054.47	0.560455	2.0752e-06
2055.37	0.561249	3.35693e-06
2056.25	0.000564575	0.0088562
2057.11	0.560699	3.96729e-07
2058.01	0.561371	7.93457e-07
2058.89	0.00083313	0.00446106
2059.75	0.559967	6.5918e-06
2060.65	0.560181	8.60596e-06
2061.55	0.559296	0.0152863
2062.39	0.560822	-1.83105e-07
2063.29	0.560242	7.93457e-06
2064.19	0.561615	0.000173981
2065.03	0.560638	-3.35693e-07
2065.93	0.561432	-1.34277e-06
2066.83	0.560333	4.73938e-05
2067.67	0.560242	1.15967e-06
2068.57	0.560852	1.34277e-06
2069.47	0.560028	2.99683e-05
2070.31	0.561035	-2.50244e-06
2071.21	0.560699	1.5564e-06
2072.11	0.560425	1.73035e-05
2072.95	0.560303	3.02124e-06
2073.85	0.559906	5.31006e-06
2074.75	0.561554	7.32422e-06
2075.59	0.561432	-6.7749e-06
2076.49	0.561523	-3.02124e-06
2077.39	0.561523	2.38037e-06
2078.25	-0.697296	-0.0234375
2079.13	0.561554	-4.36401e-06
2080.03	0.559937	1.34888e-05
2080.89	-0.697815	-0.0155914
2081.77	0.561188	-3.08228e-06
2082.67	0.560272	1.00708e-05
2083.55	0.00065918	0.00883789
2084.41	0.560242	3.87573e-06
2085.31	0.560364	7.38525e-06
2086.19	6.40869e-05	0.00448273
2087.05	0.561584	-4.66919e-06
2087.95	0.560303	1.07117e-05
2088.85	0.560272	0.0153503
2089.69	0.560028	4.18091e-06
2090.59	0.560852	2.71606e-06
2091.49	0.561493	0.000191193
2092.33	0.560181	4.45557e-06
2093.23	0.560089	7.75146e-06
2094.13	0.561646	3.72314e-05
2094.97	0.56015	4.21143e-06
2095.87	0.560364	4.45557e-06
2096.77	0.560211	2.81067e-05
2097.61	0.561615	-6.5918e-06
2098.51	0.561401	-1.89209e-06
2099.41	0.561401	1.11084e-05
2100.25	0.561188	-3.63159e-06
2101.15	0.560089	6.40869e-06
2102.05	0.560028	1.75781e-05
2102.89	0.560028	4.76074e-06
2103.79	0.560333	1.09863e-06
2104.69	0.56012	1.37329e-05
2105.55	-0.698181	-0.0234833
2106.43	0.56012	6.7749e-06
2107.33	0.560913	5.21851e-06
2108.19	-0.698059	-0.0156555
2109.07	0.560059	5.5542e-06
2109.97	0.561401	1.89209e-06
2110.85	0.000393677	0.00882568
2111.71	0.56015	5.34058e-06
2112.61	0.560059	9.94873e-06
2113.49	0.000805664	0.00448364
2114.35	0.56012	5.24902e-06
2115.25	0.560577	6.19507e-06
2116.15	0.56012	0.0154053
2116.99	0.560211	3.75366e-06
2117.89	0.561371	8.54492e-07
2118.79	0.560516	0.000217346
2119.63	0.560638	-5.79834e-07
2120.53	0.56015	4.85229e-06
2121.43	0.560272	4.89502e-05
2122.27	0.561005	1.77002e-06
2123.17	0.561127	-3.05176e-07
2124.07	0.561066	2.18506e-05
2124.91	0.561157	-2.92969e-06
2125.81	0.561584	-3.90625e-06
2126.71	0.561676	1.0498e-05
2127.55	0.560638	-6.10352e-08
2128.45	0.56134	9.15527e-07
2129.35	0.560364	1.54419e-05
2130.19	0.561432	-5.67627e-06
2131.09	0.561493	-3.02124e-06
2131.99	0.560028	1.38245e-05
2132.85	-0.69873	-0.0235168
2133.73	0.561401	-3.66211e-06
2134.63	0.561523	1.25122e-06
2135.49	-0.698395	-0.0157196
2136.37	0.560211	2.22778e-06
2137.27	0.56015	1.07422e-05
2138.15	0.000442505	0.00880432
2139.01	0.560516	1.80054e-06
2139.91	0.561096	2.34985e-06
2140.79	-0.000152588	0.0044986
2141.65	0.560455	3.38745e-06
2142.55	0.559998	1.00708e-05
2143.45	0.559509	0.0154755
2144.29	0.560608	3.35693e-07
2145.19	0.560181	7.59888e-06
2146.09	0.560852	0.000237305
2146.93	0.56131	-3.14331e-06
2147.83	0.561249	-1.5564e-06
2148.73	0.560669	4.70276e-05
2149.57	0.561066	-3.66211e-07
2150.47	0.561493	-2.44141e-06
2151.37	0.560059	2.94495e-05
2152.21	0.561401	-3.26538e-06
2153.11	0.561035	5.49316e-07
2154.01	0.561554	1.04065e-05
2154.85	0.560059	5.79834e-06
2155.75	0.56131	-2.38037e-06
2156.65	0.560028	1.69678e-05
2157.49	0.561401	-2.62451e-06
2158.39	0.561279	-3.66211e-07
2159.29	0.560974	7.53784e-06
2160.15	-0.698547	-0.0235626
2161.03	0.560211	6.01196e-06
2161.93	0.560699	7.99561e-06
2162.79	-0.698212	-0.0157867
2163.67	0.560699	1.95313e-06
2164.57	0.561279	1.43433e-06
2165.45	-8.54492e-05	0.0087677
2166.31	0.560303	3.96729e-06
2167.21	0.560089	9.21631e-06
2168.09	-0.000256348	0.00451477
2168.95	0.560242	4.85229e-06
2169.85	0.560272	6.74438e-06
2170.75	0.559723	0.0155243
2171.59	0.561554	-4.48608e-06
2172.49	0.560211	6.86646e-06
2173.39	0.560425	0.000265686
2174.23	0.560791	3.66211e-07
2175.13	0.56076	2.10571e-06
2176.03	0.561401	4.07715e-05
2176.87	0.560028	4.79126e-06
2177.77	0.560394	5.64575e-06
2178.67	0.561584	1.97144e-05
2179.51	0.56131	-3.479e-06
2180.41	0.561554	-3.87573e-06
2181.31	0.560303	2.0874e-05
2182.15	0.56012	4.73022e-06
2183.05	0.561676	-4.05884e-06
2183.95	0.56131	8.27026e-06
2184.79	0.56076	-2.89917e-06
2185.69	0.560059	5.85937e-06
2186.59	0.560791	6.74438e-06
2187.45	-0.698181	-0.0236145
2188.33	0.561371	-1.40381e-06
2189.23	0.560699	4.85229e-06
2190.09	-0.698944	-0.015863
2190.97	0.561493	-4.91333e-06
2191.87	0.561554	-4.88281e-07
2192.75	0.000564575	0.00874329
2193.61	0.561646	-3.44849e-06
2194.51	0.561371	7.01904e-07
2195.39	-0.000131226	0.00451996
2196.25	0.561615	-4.94385e-06
2197.15	0.561188	-1.86157e-06
2198.05	0.559387	0.0155762
2198.89	0.56134	2.44141e-07
2199.79	0.560364	5.15747e-06
2200.69	0.560333	0.000294861
2201.53	0.561584	-6.53076e-06
2202.43	0.560547	3.57056e-06
2203.33	0.561371	4.00391e-05
2204.17	0.561432	-4.24194e-06
2205.07	0.560059	3.87573e-06
2205.97	0.560211	3.07312e-05
2206.81	0.56073	-1.83105e-07
2207.71	0.561493	-2.74658e-06
2208.61	0.561523	1.15051e-05
2209.45	0.560486	2.71606e-06
2210.35	0.561462	-2.89917e-06
2211.25	0.561127	6.98853e-06
2212.09	0.56015	5.24902e-06
2212.99	0.561371	-3.08228e-06
2213.89	0.560028	1.46179e-05
2214.75	-0.698486	-0.0236542
2215.63	0.561371	-2.47192e-06
2216.53	0.561462	2.74658e-06
2217.39	-0.699219	-0.015921
2218.27	0.56012	6.53076e-06
2219.17	0.560303	8.17871e-06
2220.05	0.000418091	0.00872498
2220.91	0.560059	6.13403e-06
2221.81	0.561493	-5.49316e-07
2222.69	0.000961304	0.00450806
2223.55	0.560425	4.05884e-06
2224.45	0.561371	-1.92261e-06
2225.35	0.560211	0.0156097
2226.19	0.561249	-2.99072e-06
2227.09	0.560089	8.20923e-06
2227.99	0.56012	0.000330353
2228.83	0.56015	5.92041e-06
2229.73	0.561493	-1.5564e-06
2230.63	0.560822	4.60205e-05
2231.47	0.56012	6.62231e-06
2232.37	0.560089	8.42285e-06
2233.27	0.560211	2.91443e-05
2234.11	0.560089	5.27954e-06
2235.01	0.560516	2.83813e-06
2235.91	0.559998	2.29797e-05
2236.75	0.561157	-2.50244e-06
2237.65	0.561493	-3.2959e-06
2238.55	0.560455	1.40991e-05
2239.39	0.56134	-3.14331e-06
2240.29	0.561584	-3.87573e-06
2241.19	0.561462	4.08936e-06
2242.05	-0.698669	-0.0236969
2242.93	0.561005	-1.19019e-06
2243.83	0.56073	7.47681e-06
2244.69	-0.699158	-0.0159943
2245.57	0.561462	-4.42505e-06
2246.47	0.561035	4.21143e-06
2247.35	-0.000735474	0.0086731
2248.21	0.561218	-2.19727e-06
2249.11	0.561401	-5.49316e-07
2249.99	0.000848389	0.00450043
2250.85	0.560852	-9.15527e-07
2251.75	0.561188	-2.10571e-06
2252.65	0.559723	0.0156677
2253.49	0.56134	-1.52588e-07
2254.39	0.560608	2.28882e-06
2255.29	0.560974	0.000353424
2256.13	0.560089	4.48608e-06
2257.03	0.560028	8.36182e-06
2257.93	0.560059	5.30396e-05
2258.77	0.560181	4.54712e-06
2259.67	0.561646	-3.69263e-06
2260.57	0.560486	2.85645e-05
2261.41	0.560089	5.92041e-06
2262.31	0.560638	3.69263e-06
2263.21	0.561462	1.22681e-05
2264.05	0.561584	-5.09644e-06
2264.95	0.560028	7.99561e-06
2265.85	0.561584	6.53076e-06
2266.69	0.559998	5.5542e-06
2267.59	0.561066	3.66211e-07
2268.49	0.560303	1.23596e-05
2269.35	-0.697723	-0.0237427
2270.23	0.561157	-1.43433e-06
2271.13	0.560608	8.78906e-06
2271.99	-0.697754	-0.0160614
2272.87	0.561157	-1.2207e-06
2273.77	0.561066	2.13623e-06
2274.65	-0.000643921	0.00864258
2275.51	0.559937	5.61523e-06
2276.41	0.560059	9.91821e-06
2277.29	0.000964355	0.00449432
2278.15	0.561523	-5.15747e-06
2279.05	0.56012	9.33838e-06
2279.95	0.559204	0.0156982
2280.79	0.561096	-2.01416e-06
2281.69	0.560211	8.94165e-06
2282.59	0.560394	0.000392273
2283.43	0.561279	-9.76562e-07
2284.33	0.561584	-3.78418e-06
2285.23	0.559998	5.31311e-05
2286.07	0.560669	1.31226e-06
2286.97	0.560028	6.28662e-06
2287.87	0.560059	3.35999e-05
2288.71	0.561493	-3.75366e-06
2289.61	0.561584	-5.06592e-06
2290.51	0.560486	1.81274e-05
2291.35	0.560455	9.76562e-07
2292.25	0.560669	1.7395e-06
2293.15	0.560669	1.27258e-05
2293.99	0.56131	-2.56348e-06
2294.89	0.561279	-1.80054e-06
2295.79	0.561005	4.69971e-06
2296.65	-0.698669	-0.023764
2297.53	0.56012	2.99072e-06
2298.43	0.560089	1.31226e-05
2299.29	-0.698334	-0.0161438
2300.17	0.561005	2.74658e-07
2301.07	0.561554	6.40869e-07
2301.95	-0.000219727	0.00859375
2302.81	0.560333	2.86865e-06
2303.71	0.560394	4.05884e-06
2304.59	0.000170898	0.00449036
2305.45	0.560364	1.06812e-06
2306.35	0.561554	-1.58691e-06
2307.25	0.56015	0.0157349
2308.09	0.561066	-1.80054e-06
2308.99	0.560852	3.02124e-06
2309.89	0.561279	0.000424194
2310.73	0.560242	4.02832e-06
2311.63	0.560455	6.5918e-06
2312.53	0.561554	4.28162e-05
2313.37	0.561462	-4.60815e-06
2314.27	0.561066	1.2207e-07
2315.17	0.561401	2.23083e-05
2316.01	0.56134	-3.96729e-06
2316.91	0.56012	5.95093e-06
2317.81	0.560242	2.22473e-05
2318.65	0.560699	3.66211e-07
2319.55	0.560211	5.31006e-06
2320.45	0.561493	7.93457e-06
2321.29	0.560791	1.06812e-06
2322.19	0.561096	-2.74658e-06
2323.09	0.561523	3.72314e-06
2323.95	-0.698669	-0.0238007
2324.83	0.56015	3.78418e-06
2325.73	0.559998	1.27563e-05
2326.59	-0.698425	-0.0161987
2327.47	0.560333	1.46484e-06
2328.37	0.561462	2.19727e-06
2329.25	0.000823975	0.00857849
2330.11	0.561432	-4.54712e-06
2331.01	0.56076	5.21851e-06
2331.89	0.000704956	0.00448364
2332.75	0.560059	5.58472e-06
2333.65	0.561157	-9.15527e-08
2334.55	0.559509	0.0157776
2335.39	0.559998	4.73022e-06
2336.29	0.560974	1.34277e-06
2337.19	0.560059	0.000474884
2338.03	0.560699	-1.98364e-06
2338.93	0.56134	-1.12915e-06
2339.83	0.561493	4.55933e-05
2340.67	0.560181	3.479e-06
2341.57	0.561493	-1.89209e-06
2342.47	0.560669	2.62146e-05
2343.31	0.56015	4.27246e-06
2344.21	0.560425	3.479e-06
2345.11	0.559967	2.31323e-05
2345.95	0.560852	-1.34277e-06
2346.85	0.560852	7.01904e-07
2347.75	0.561371	9.8877e-06
2348.59	0.561188	-3.11279e-06
2349.49	0.560913	1.31226e-06
2350.39	0.561493	4.85229e-06
2351.25	-0.698029	-0.0238831
2352.13	0.561218	-1.09863e-06
2353.03	0.56012	1.33057e-05
2353.89	-0.69809	-0.0163025
2354.77	0.56073	3.05176e-07
2355.67	0.56076	4.85229e-06
2356.55	-0.00071106	0.00856018
2357.41	0.560303	2.92969e-06
2358.31	0.561066	3.87573e-06
2359.19	0.00062561	0.0044812
2360.05	0.561462	-6.073e-06
2360.95	0.561615	-1.31226e-06
2361.85	0.560211	0.0158142
2362.69	0.561249	-4.73022e-06
2363.59	0.561279	-7.32422e-07
2364.49	0.56012	0.000522766
2365.33	0.561554	-5.92041e-06
2366.23	0.560333	6.43921e-06
2367.13	0.561371	4.37012e-05
2367.97	0.561371	-1.46484e-06
2368.87	0.561035	-1.83105e-07
2369.77	0.560577	2.74353e-05
2370.61	0.561493	-5.21851e-06
2371.51	0.561066	-8.23975e-07
2372.41	0.560272	2.1698e-05
2373.25	0.561401	-4.82178e-06
2374.15	0.560852	-6.40869e-07
2375.05	0.56134	7.53784e-06
2375.89	0.560486	-1.0376e-06
2376.79	0.561493	-4.82178e-06
2377.69	0.560028	1.54114e-05
2378.55	-0.697235	-0.0239227
2379.43	0.560822	3.35693e-07
2380.33	0.561584	3.84521e-06
2381.19	-0.699005	-0.0163544
2382.07	0.561035	-2.7771e-06
2382.97	0.56012	1.06201e-05
2383.85	0.000637817	0.0085144
2384.71	0.56073	4.88281e-07
2385.61	0.561401	1.0376e-06
2386.49	0.000775146	0.00447327
2387.35	0.560608	7.93457e-07
2388.25	0.560883	3.38745e-06
2389.15	0.560791	0.0158417
2389.99	0.561005	-3.90625e-06
2390.89	0.561432	-1.12915e-06
2391.79	0.560364	0.000571594
2392.63	0.560181	3.78418e-06
2393.53	0.561432	-6.40869e-07
2394.43	0.560822	4.79431e-05
2395.27	0.561066	-2.56348e-06
2396.17	0.561584	-3.90625e-06
2397.07	0.561401	2.29492e-05
2397.91	0.560547	3.41797e-06
2398.81	0.560883	2.71606e-06
2399.71	0.560242	2.12708e-05
2400.55	0.561066	-1.2207e-06
2401.45	0.560272	7.26318e-06
2402.35	0.56131	1.01318e-05
2403.19	0.560059	4.15039e-06
2404.09	0.561279	1.98364e-06
2404.99	0.561554	5.0354e-06
2405.85	-0.698456	-0.0239532
2406.73	0.560486	3.87573e-06
2407.63	0.560211	1.09253e-05
2408.49	-0.698639	-0.0164001
2409.37	0.56134	-3.57056e-06
2410.27	0.560028	1.17798e-05
2411.15	-0.000735474	0.00849304
2412.01	0.561157	-1.52588e-07
2412.91	0.560394	7.84302e-06
2413.79	-0.000524902	0.00448456
2414.65	0.560089	5.18799e-06
2415.55	0.561554	-1.98364e-06
2416.45	0.560242	0.0158783
2417.29	0.560211	4.66919e-06
2418.19	0.560333	6.98853e-06
2419.09	0.56012	0.000625305
2419.93	0.560364	2.28882e-06
2420.83	0.560089	7.14111e-06
2421.73	0.56015	5.31006e-05
2422.57	0.561584	-6.13403e-06
2423.47	0.560944	9.46045e-07
2424.37	0.560822	2.60925e-05
2425.21	0.560547	1.70898e-06
2426.11	0.560059	8.75854e-06
2427.01	0.561066	1.41602e-05
2427.85	0.560608	1.09863e-06
2428.75	0.560883	3.66211e-07
2429.65	0.560455	1.54419e-05
2430.49	0.561249	-4.36401e-06
2431.39	0.560608	3.66211e-06
2432.29	0.561218	7.32422e-06
2433.15	-0.697845	-0.0239777
2434.03	0.561249	-1.80054e-06
2434.93	0.561279	4.94385e-06
2435.79	-0.699066	-0.0164673
2436.67	0.561035	-1.61743e-06
2437.57	0.560822	8.23975e-06
2438.45	-0.000177002	0.00848389
2439.31	0.560974	-2.44141e-07
2440.21	0.561432	3.05176e-07
2441.09	-0.00062561	0.00448059
2441.95	0.560181	4.82178e-06
2442.85	0.560059	9.52148e-06
2443.75	0.560242	0.0159241
2444.59	0.560059	5.15747e-06
2445.49	0.561157	2.99072e-06
2446.39	0.560303	0.000691223
2447.23	0.561676	-5.7373e-06
2448.13	0.560211	6.04248e-06
2449.03	0.560242	5.39551e-05
2449.87	0.560303	2.96021e-06
2450.77	0.561432	-2.19727e-06
2451.67	0.560547	2.64893e-05
2452.51	0.56012	5.46265e-06
2453.41	0.559967	7.96509e-06
2454.31	0.56131	1.49536e-05
2455.15	0.560181	6.19507e-06
2456.05	0.560455	4.57764e-06
2456.95	0.561157	1.01013e-05
2457.79	0.561371	-3.87573e-06
2458.69	0.56012	8.11768e-06
2459.59	0.560486	1.37634e-05
2460.45	-0.698059	-0.0240173
2461.33	0.561096	2.47192e-06
2462.23	0.560303	9.85718e-06
2463.09	-0.699036	-0.0165283
2463.97	0.561584	-4.85229e-06
2464.87	0.561584	7.93457e-07
2465.75	-0.000158691	0.00844727
2466.61	0.560425	3.35693e-06
2467.51	0.560944	1.2207e-07
2468.39	0.000915527	0.00446777
2469.25	0.561493	-5.49316e-06
2470.15	0.561523	-4.27246e-07
2471.05	0.559357	0.0159576
2471.89	0.560974	-3.05176e-08
2472.79	0.561554	-1.83105e-06
2473.69	0.560913	0.000746765
2474.53	0.56012	6.62231e-06
2475.43	0.560028	9.765625E-06
2476.33	0.559998	5.32227e-05
2477.17	0.561005	-4.48608e-06
2478.07	0.560242	6.56128e-06
2478.97	0.560577	2.76489e-05
2479.81	0.561462	-3.78418e-06
2480.71	0.560608	4.36401e-06
2481.61	0.561523	1.12305e-05
2482.45	0.560791	3.66211e-07
2483.35	0.56134	-5.18799e-07
2484.25	0.560852	1.17798e-05
2485.09	0.560089	3.75366e-06
2485.99	0.560028	6.7749e-06
2486.89	0.560028	1.52893e-05
2487.75	-0.698761	-0.0240662
2488.63	0.560211	6.28662e-06
2489.53	0.561584	1.86157e-06
2490.39	-0.699036	-0.0165894
2491.27	0.561462	-4.3335e-06
2492.17	0.560455	8.88062e-06
2493.05	0.000735474	0.00841064
2493.91	0.560455	1.58691e-06
2494.81	0.561218	-1.83105e-07
2495.69	0.000128174	0.00446594
2496.55	0.560486	6.74438e-06
2497.45	0.560669	5.88989e-06
2498.35	0.560669	0.0159729
2499.19	0.561523	-4.39453e-06
2500.09	0.561554	-2.41089e-06
2500.99	0.559967	0.000829163
2501.83	0.561005	-1.49536e-06
2502.73	0.560059	6.073e-06
2503.63	0.561401	4.50134e-05
2504.47	0.561768	-5.18799e-06
2505.37	0.560425	4.73022e-06
2506.27	0.560089	3.22571e-05
2507.11	0.560883	-1.77002e-06
2508.01	0.56076	3.14331e-06
2508.91	0.560638	1.69983e-05
2509.75	0.560852	1.77002e-06
2510.65	0.559967	6.04248e-06
2511.55	0.560059	1.71509e-05
2512.39	0.56012	5.46265e-06
2513.29	0.561401	-3.23486e-06
2514.19	0.559998	1.43738e-05
2515.05	-0.697449	-0.0240936
2515.93	0.560394	6.04248e-06
2516.83	0.561615	2.68555e-06
2517.69	-0.698853	-0.0166351
2518.57	0.560547	6.10352e-08
2519.47	0.560333	9.49097e-06
2520.35	0.000430298	0.00838928
2521.21	0.561218	-2.04468e-06
2522.11	0.560822	4.54712e-06
2522.99	0.000830078	0.00445831
2523.85	0.560486	3.96729e-06
2524.75	0.56012	9.00269e-06
2525.65	0.560272	0.0160248
2526.49	0.561462	-2.59399e-06
2527.39	0.560669	3.8147e-06
2528.29	0.560059	0.000903625
2529.13	0.560059	5.00488e-06
2530.03	0.560181	6.43921e-06
2530.93	0.561554	4.52271e-05
2531.77	0.560791	-2.13623e-07
2532.67	0.560028	7.75146e-06
2533.57	0.561432	2.23999e-05
2534.41	0.561615	-4.79126e-06
2535.31	0.560638	2.71606e-06
2536.21	0.560974	1.67236e-05
2537.05	0.560181	4.79126e-06
2537.95	0.561279	-1.95313e-06
2538.85	0.560089	1.72729e-05
2539.69	0.56015	4.88281e-06
2540.59	0.560028	6.95801e-06
2541.49	0.561218	6.28662e-06
2542.35	-0.698639	-0.0241058
2543.23	0.561493	-4.91333e-06
2544.13	0.560089	1.48621e-05
2544.99	-0.698059	-0.0166809
2545.87	0.560638	2.80762e-06
2546.77	0.561493	-2.44141e-07
2547.65	-0.000701904	0.00835876
2548.51	0.560059	6.19507e-06
2549.41	0.56076	4.02832e-06
2550.29	-0.000152588	0.00446045
2551.15	0.560883	-9.76562e-07
2552.05	0.561523	-1.61743e-06
2552.95	0.560699	0.0160431
2553.79	0.560242	3.05176e-06
2554.69	0.560638	3.23486e-06
2555.59	0.561523	0.000983887
2556.43	0.561035	-2.13623e-06
2557.33	0.560333	6.2561e-06
2558.23	0.560608	5.51453e-05
2559.07	0.561157	-3.14331e-06
2559.97	0.561432	-4.08936e-06
2560.87	0.560242	3.1189e-05
2561.71	0.56073	-1.83105e-06
2562.61	0.560669	3.69263e-06
2563.51	0.560974	1.70898e-05
2564.35	0.561066	-1.52588e-06
2565.25	0.560333	4.73022e-06
2566.15	0.559937	1.83716e-05
2566.99	0.561157	-3.50952e-06
2567.89	0.561615	-5.40161e-06
2568.79	0.560303	1.2146e-05
2569.65	-0.698517	-0.0241577
2570.53	0.561493	-4.18091e-06
2571.43	0.561035	5.40161e-06
2572.29	-0.697754	-0.0167633
2573.17	0.561523	-4.66919e-06
2574.07	0.560852	5.7373e-06
2574.95	-0.000811768	0.00834045
2575.81	0.560303	4.27246e-06
2576.71	0.560486	7.26318e-06
2577.59	-0.000335693	0.0044693
2578.45	0.561584	-5.52368e-06
2579.35	0.560486	3.78418e-06
2580.25	0.560303	0.0160828
2581.09	0.56012	4.69971e-06
2581.99	0.561432	-1.5564e-06
2582.89	0.56012	0.00108826
2583.73	0.560608	2.56348e-06
2584.63	0.560791	1.86157e-06
2585.53	0.561462	4.79126e-05
2586.37	0.560577	2.80762e-06
2587.27	0.561096	-2.83813e-06
2588.17	0.560089	3.27148e-05
2589.01	0.561157	-3.479e-06
2589.91	0.561401	-3.14331e-06
2590.81	0.560883	1.61438e-05
2591.65	0.559998	5.58472e-06
2592.55	0.56012	4.82178e-06
2593.45	0.559998	1.96228e-05
2594.29	0.560608	8.8501e-07
2595.19	0.560486	6.40869e-07
2596.09	0.560059	1.41296e-05
2596.95	-0.697815	-0.0242035
2597.83	0.56134	-2.86865e-06
2598.73	0.561554	3.20435e-06
2599.59	-0.698853	-0.016806
2600.47	0.560913	3.05176e-07
2601.37	0.561005	6.89697e-06
2602.25	-6.71387e-05	0.0083313
2603.11	0.560486	4.36401e-06
2604.01	0.561493	-6.71387e-07
2604.89	0.000793457	0.00445709
2605.75	0.561066	-3.02124e-06
2606.65	0.560883	2.01416e-06
2607.55	0.560791	0.0161102
2608.39	0.561096	-6.71387e-07
2609.29	0.561676	-2.47192e-06
2610.19	0.561554	0.00117432
2611.03	0.561707	-4.48608e-06
2611.93	0.561554	-2.10571e-06
2612.83	0.560211	5.60913e-05
2613.67	0.560089	4.11987e-06
2614.57	0.561218	-7.93457e-07
2615.47	0.561218	2.04163e-05
2616.31	0.561157	-2.38037e-06
2617.21	0.560394	1.83105e-06
2618.11	0.561279	1.44348e-05
2618.95	0.560028	6.43921e-06
2619.85	0.561096	-1.2207e-07
2620.75	0.56012	1.80359e-05
2621.59	0.561615	-5.37109e-06
2622.49	0.560577	2.83813e-06
2623.39	0.561401	6.01196e-06
2624.25	-0.698669	-0.0242249
2625.13	0.56015	6.13403e-06
2626.03	0.560608	7.20215e-06
2626.89	-0.699005	-0.0168488
2627.77	0.561127	-1.00708e-06
2628.67	0.56015	9.85718e-06
2629.55	-0.000723267	0.00830383
2630.41	0.56015	4.3335e-06
2631.31	0.560791	5.82886e-06
2632.19	-4.57764e-05	0.00446075
2633.05	0.561157	-2.38037e-06
2633.95	0.560455	7.72095e-06
2634.85	0.560089	0.016153
2635.69	0.560028	5.92041e-06
2636.59	0.56073	6.31714e-06
2637.49	0.561005	0.00128632
2638.33	0.561401	-5.88989e-06
2639.23	0.56073	3.44849e-06
2640.13	0.560364	5.45044e-05
2640.97	0.560516	1.43433e-06
2641.87	0.560516	3.14331e-06
2642.77	0.561432	2.16675e-05
2643.61	0.560028	5.18799e-06
2644.51	0.559998	8.17871e-06
2645.41	0.560455	2.0813e-05
2646.25	0.561646	-6.98853e-06
2647.15	0.560089	5.98145e-06
2648.05	0.560822	1.24207e-05
2648.89	0.560669	1.06812e-06
2649.79	0.560059	6.43921e-06
2650.69	0.561676	2.92969e-06
2651.55	-0.697449	-0.0242584
2652.43	0.560089	8.39233e-06
2653.33	0.560944	7.32422e-06
2654.19	-0.699005	-0.0168884
2655.07	0.559998	5.43213e-06
2655.97	0.561371	1.34277e-06
2656.85	0.000717163	0.00826721
2657.71	0.560364	4.15039e-06
2658.61	0.560059	8.91113e-06
2659.49	0.000537109	0.00445404
2660.35	0.560669	-2.13623e-06
2661.25	0.561554	-7.93457e-07
2662.15	0.56076	0.0161713
2662.99	0.561523	-5.12695e-06
2663.89	0.560944	1.89209e-06
2664.79	0.560211	0.00140228
2665.63	0.56134	-4.3335e-06
2666.53	0.560272	6.50024e-06
2667.43	0.561279	5.00488e-05
2668.27	0.560089	6.10352e-06
2669.17	0.561066	3.35693e-07
2670.07	0.560211	3.0365e-05
2670.91	0.560425	1.7395e-06
2671.81	0.560211	6.86646e-06
2672.71	0.560364	2.05994e-05
2673.55	0.560425	4.27246e-07
2674.45	0.56134	-1.58691e-06
2675.35	0.561279	9.58252e-06
2676.19	0.560089	5.43213e-06
2677.09	0.561157	-4.88281e-07
2677.99	0.559937	1.63574e-05
2678.85	-0.698059	-0.0242645
2679.73	0.561493	-2.65503e-06
2680.63	0.560608	1.09253e-05
2681.49	-0.698212	-0.0169525
2682.37	0.559967	5.40161e-06
2683.27	0.561127	3.8147e-06
2684.15	-0.000497437	0.00822144
2685.01	0.561615	-4.66919e-06
2685.91	0.56015	1.10474e-05
2686.79	-0.000512695	0.00444672
2687.65	0.561676	-5.98145e-06
2688.55	0.561462	-1.28174e-06
2689.45	0.560791	0.0161926
2690.29	0.561462	-4.48608e-06
2691.19	0.560059	8.11768e-06
2692.09	0.561737	0.0015152
2692.93	0.561554	-5.85937e-06
2693.83	0.561127	-2.22778e-06
2694.73	0.560669	5.3894e-05
2695.57	0.560669	-7.62939e-07
2696.47	0.56012	6.7749e-06
2697.37	0.561523	2.23083e-05
2698.21	0.561554	-5.58472e-06
2699.11	0.560516	2.96021e-06
2700.01	0.561493	1.20239e-05
2700.85	0.561401	-4.69971e-06
2701.75	0.561493	-3.08228e-06
2702.65	0.560547	1.474e-05
2703.49	0.56076	1.58691e-06
2704.39	0.560272	5.82886e-06
2705.29	0.561615	5.09644e-06
2706.15	-0.69809	-0.024292
2707.03	0.561035	-1.2207e-07
2707.93	0.561066	6.65283e-06
2708.79	-0.699005	-0.0169891
2709.67	0.56134	-2.56348e-06
2710.57	0.560059	1.18408e-05
2711.45	0.000320435	0.00820007
2712.31	0.560089	5.06592e-06
2713.21	0.561584	-3.66211e-07
2714.09	-0.000552368	0.00443695
2714.95	0.56012	5.21851e-06
2715.85	0.56012	9.15527e-06
2716.75	0.559479	0.0162231
2717.59	0.56073	-7.93457e-07
2718.49	0.56134	-1.7395e-06
2719.39	0.561737	0.00166443
2720.23	0.560272	3.54004e-06
2721.13	0.560303	8.27026e-06
2722.03	0.560425	5.70068e-05
2722.87	0.559998	6.19507e-06
2723.77	0.561523	-1.0376e-06
2724.67	0.560181	3.302e-05
2725.51	0.561523	-6.22559e-06
2726.41	0.560089	8.39233e-06
2727.31	0.560577	1.72119e-05
2728.15	0.561188	-4.27246e-06
2729.05	0.559998	5.85937e-06
2729.95	0.561401	8.30078e-06
2730.79	0.561066	-5.79834e-06
2731.69	0.56012	7.01904e-06
2732.59	0.56015	1.44348e-05
2733.45	-0.69809	-0.0243134
2734.33	0.560944	1.64795e-06
2735.23	0.560028	1.37939e-05
2736.09	-0.697815	-0.017038
2736.97	0.56012	5.85937e-06
2737.87	0.56015	1.19934e-05
2738.75	0.000701904	0.0081604
2739.61	0.560059	5.98145e-06
2740.51	0.56015	1.10168e-05
2741.39	-0.000131226	0.00442749
2742.25	0.561554	-4.18091e-06
2743.15	0.561432	-4.27246e-07
2744.05	0.56076	0.0162445
2744.89	0.560303	4.73022e-06
2745.79	0.561584	-1.09863e-06
2746.69	0.561005	0.00181183
2747.53	0.560364	3.05176e-06
2748.43	0.561584	-3.63159e-06
2749.33	0.561249	5.3772e-05
2750.17	0.561066	-5.12695e-06
2751.07	0.561462	-3.44849e-06
2751.97	0.560944	2.65808e-05
2752.81	0.561401	-3.84521e-06
2753.71	0.560059	8.05664e-06
2754.61	0.561584	1.12915e-05
2755.45	0.560669	-2.74658e-07
2756.35	0.561188	-1.95313e-06
2757.25	0.560181	1.6571e-05
2758.09	0.561005	-2.7771e-06
2758.99	0.561615	-3.20435e-06
2759.89	0.561646	3.57056e-06
2760.75	-0.697296	-0.0243225
2761.63	0.561371	-1.15967e-06
2762.53	0.561584	2.28882e-06
2763.39	-0.697693	-0.0170868
2764.27	0.561523	-4.15039e-06
2765.17	0.561005	4.69971e-06
2766.05	0.000723267	0.00813293
2766.91	0.561066	-1.49536e-06
2767.81	0.561035	6.10352e-07
2768.69	0.000942993	0.00441101
2769.55	0.560059	8.05664e-06
2770.45	0.56012	9.0332e-06
2771.35	0.559235	0.016272
2772.19	0.561249	-3.90625e-06
2773.09	0.561554	-8.23975e-07
2773.99	0.561371	0.00201416
2774.83	0.56076	6.71387e-07
2775.73	0.560333	6.10352e-06
2776.63	0.560242	6.17371e-05
2777.47	0.561188	-3.69263e-06
2778.37	0.560242	6.86646e-06
2779.27	0.56076	2.93579e-05
2780.11	0.561218	-2.80762e-06
2781.01	0.561249	-7.93457e-07
2781.91	0.560974	1.82495e-05
2782.75	0.560028	6.31714e-06
2783.65	0.560547	2.04468e-06
2784.55	0.560089	1.79138e-05
2785.39	0.560699	1.06812e-06
2786.29	0.560608	2.19727e-06
2787.19	0.560181	1.19324e-05
2788.05	-0.698547	-0.0243317
2788.93	0.559967	6.22559e-06
2789.83	0.560089	1.35498e-05
2790.69	-0.698273	-0.0171112
2791.57	0.561279	-2.74658e-06
2792.47	0.560547	9.15527e-06
2793.35	-0.000378418	0.00811157
2794.21	0.560425	3.11279e-06
2795.11	0.559967	1.12915e-05
2795.99	0.000610352	0.00441284
2796.85	0.561523	-5.64575e-06
2797.75	0.561249	2.22778e-06
2798.65	0.56076	0.0162903
2799.49	0.559998	4.88281e-06
2800.39	0.560699	4.91333e-06
2801.29	0.560822	0.00220154
2802.13	0.561371	-3.32642e-06
2803.03	0.561249	1.83105e-07
2803.93	0.561462	5.3833e-05
2804.77	0.561523	-4.97437e-06
2804.91	0.560089	4.97437e-06