File: Edgar/20240529/20240529/electrodeposition_pulsed_potential_20240529_B/pulses_2000_to_3000.txt
Time (s)	WE(1).Potential (V)	WE(1).Current (A)
2827.99	-0.698212	-0.0243988
2828.87	0.56012	4.60815e-06
2829.77	0.560944	6.04248e-06
2830.63	-0.699097	-0.0172058
2831.51	0.561371	-3.02124e-06
2832.41	0.561432	6.10352e-07
2833.29	0.000137329	0.0079895
2834.15	0.559998	6.53076e-06
2835.05	0.561584	-1.5564e-06
2835.93	0.0010376	0.0043042
2836.79	0.560333	3.11279e-06
2837.69	0.559998	8.57544e-06
2838.59	0.56076	0.0162537
2839.43	0.561615	-4.91333e-06
2840.33	0.559967	8.63647e-06
2841.23	0.560181	0.00213043
2842.07	0.561493	-5.43213e-06
2842.97	0.561523	-1.98364e-06
2843.87	0.560181	6.31104e-05
2844.71	0.561432	-4.11987e-06
2845.61	0.560852	1.7395e-06
2846.51	0.560272	3.32336e-05
2847.35	0.561371	-1.37329e-06
2848.25	0.560944	1.5564e-06
2849.15	0.560211	2.09961e-05
2849.99	0.56131	-2.01416e-06
2850.89	0.561371	-3.72314e-06
2851.79	0.560669	1.12e-05
2852.63	0.560272	4.60815e-06
2853.53	0.559998	6.34766e-06
2854.43	0.561554	4.24194e-06
2855.29	-0.698669	-0.0243835
2856.17	0.56015	5.85937e-06
2857.07	0.560547	8.02612e-06
2857.93	-0.698761	-0.0172089
2858.81	0.561096	-1.77002e-06
2859.71	0.559967	1.26953e-05
2860.59	-0.000717163	0.00803528
2861.45	0.561707	-4.97437e-06
2862.35	0.561035	2.65503e-06
2863.23	-0.000106812	0.00437164
2864.09	0.560181	5.00488e-06
2864.99	0.561218	3.05176e-07
2865.89	0.560638	0.0163025
2866.73	0.561554	-5.18799e-06
2867.63	0.561615	-2.71606e-06
2868.53	0.560608	0.00252991
2869.37	0.560913	-2.74658e-07
2870.27	0.561462	-2.65503e-06
2871.17	0.560028	6.85425e-05
2872.01	0.561615	-4.57764e-06
2872.91	0.561432	-4.5166e-06
2873.81	0.561554	2.23694e-05
2874.65	0.56012	7.47681e-06
2875.55	0.561584	-4.79126e-06
2876.45	0.56012	2.2644e-05
2877.29	0.56073	1.46484e-06
2878.19	0.561005	-1.80054e-06
2879.09	0.560486	1.3092e-05
2879.93	0.560059	5.98145e-06
2880.83	0.561493	-5.06592e-06
2881.73	0.560699	1.12305e-05
2882.59	-0.698639	-0.0243988
2883.47	0.56012	5.61523e-06
2884.37	0.560669	9.15527e-06
2885.23	-0.69751	-0.0172485
2886.11	0.561554	-4.27246e-06
2887.01	0.56012	1.14441e-05
2887.89	0.000714111	0.00801697
2888.75	0.560242	4.82178e-06
2889.65	0.56134	9.46045e-07
2890.53	-0.000177002	0.00438019
2891.39	0.560181	5.98145e-06
2892.29	0.559967	9.97925e-06
2893.19	0.56076	0.0163422
2894.03	0.561646	-2.68555e-06
2894.93	0.560333	7.50732e-06
2895.83	0.561523	0.00289459
2896.67	0.560028	6.10352e-06
2897.57	0.560089	6.56128e-06
2898.47	0.560638	6.36597e-05
2899.31	0.560059	5.27954e-06
2900.21	0.561066	-9.15527e-07
2901.11	0.560638	3.01514e-05
2901.95	0.561584	-6.01196e-06
2902.85	0.561096	1.83105e-07
2903.75	0.560791	1.74255e-05
2904.59	0.560181	5.09644e-06
2905.49	0.561493	-2.74658e-06
2906.39	0.561157	1.01013e-05
2907.23	0.561279	-1.06812e-06
2908.13	0.561493	-3.78418e-06
2909.03	0.560211	1.51062e-05
2909.89	-0.697601	-0.0244232
2910.77	0.56015	6.28662e-06
2911.67	0.560516	6.86646e-06
2912.53	-0.697937	-0.0172974
2913.41	0.560333	7.72095e-06
2914.31	0.561523	6.71387e-07
2915.19	-0.000222778	0.00802002
2916.05	0.561462	-3.08228e-06
2916.95	0.56015	8.23975e-06
2917.83	0.000210571	0.00438293
2918.69	0.561401	-3.8147e-06
2919.59	0.561523	-1.52588e-06
2920.49	0.560608	0.0163757
2921.33	0.561615	-6.04248e-06
2922.23	0.561554	-2.86865e-06
2923.13	0.561859	0.0031897
2923.97	0.56076	2.28882e-06
2924.87	0.561646	-2.31934e-06
2925.77	0.560181	7.09229e-05
2926.61	0.560669	2.71606e-06
2927.51	0.560455	3.90625e-06
2928.41	0.56012	3.25623e-05
2929.25	0.56012	4.69971e-06
2930.15	0.561554	-3.32642e-06
2931.05	0.560883	1.86462e-05
2931.89	0.560669	-1.52588e-07
2932.79	0.560059	6.71387e-06
2933.69	0.561279	1.1322e-05
2934.53	0.561615	-5.43213e-06
2935.43	0.56073	3.14331e-06
2936.33	0.560059	1.297e-05
2937.19	-0.697662	-0.0244537
2938.07	0.560425	5.92041e-06
2938.97	0.560181	1.24817e-05
2939.83	-0.69873	-0.0173279
2940.71	0.561523	-4.63867e-06
2941.61	0.560242	1.02844e-05
2942.49	-0.000588989	0.00799255
2943.35	0.560913	-7.32422e-07
2944.25	0.560089	1.04675e-05
2945.13	0.000482178	0.00438477
2945.99	0.560455	2.80762e-06
2946.89	0.560059	9.27734e-06
2947.79	0.560791	0.016394
2948.63	0.560211	4.69971e-06
2949.53	0.56134	-2.28882e-06
2950.43	0.560272	0.00355225
2951.27	0.56015	3.38745e-06
2952.17	0.561584	-2.34985e-06
2953.07	0.560974	6.8573e-05
2953.91	0.561462	-5.85937e-06
2954.81	0.56073	2.2583e-06
2955.71	0.560242	3.44849e-05
2956.55	0.560944	-3.35693e-07
2957.45	0.559998	8.57544e-06
2958.35	0.560089	2.34985e-05
2959.19	0.56012	2.65503e-06
2960.09	0.560303	5.7373e-06
2960.99	0.560089	1.85242e-05
2961.83	0.561554	-4.69971e-06
2962.73	0.561432	-3.54004e-06
2963.63	0.560059	1.49231e-05
2964.49	-0.698364	-0.0244598
2965.37	0.560211	4.42505e-06
2966.27	0.560089	1.25732e-05
2967.13	-0.698242	-0.0173676
2968.01	0.561432	-5.12695e-06
2968.91	0.56131	1.70898e-06
2969.79	-0.000405884	0.00795593
2970.65	0.560059	3.44849e-06
2971.55	0.561493	6.10352e-07
2972.43	0.000775146	0.00437286
2973.29	0.561462	-4.57764e-06
2974.19	0.56073	5.09644e-06
2975.09	0.560394	0.0164124
2975.93	0.560089	4.30298e-06
2976.83	0.559967	8.63647e-06
2977.73	0.561523	0.00396179
2978.57	0.559998	4.5166e-06
2979.47	0.560089	8.48389e-06
2980.37	0.560638	7.17773e-05
2981.21	0.560303	4.82178e-06
2982.11	0.56076	1.15967e-06
2983.01	0.56073	3.11279e-05
2983.85	0.560089	4.76074e-06
2984.75	0.559998	7.72095e-06
2985.65	0.560242	2.22168e-05
2986.49	0.561523	-5.61523e-06
2987.39	0.560059	5.46265e-06
2988.29	0.559998	1.83411e-05
2989.13	0.560608	1.61743e-06
2990.03	0.560486	-2.74658e-07
2990.93	0.560059	1.58691e-05
2991.79	-0.697205	-0.0244812
2992.67	0.560211	3.87573e-06
2993.57	0.560822	8.75854e-06
2994.43	-0.698059	-0.0174011
2995.31	0.56015	5.5542e-06
2996.21	0.560364	1.2146e-05
2997.09	-0.000375366	0.00793762
2997.95	0.561127	-2.50244e-06
2998.85	0.560059	1.14136e-05
2999.73	0.00088501	0.00436249
3000.59	0.560242	4.24194e-06
3001.49	0.560028	1.00098e-05
3002.39	0.559753	0.0164368
3003.23	0.561584	-4.91333e-06
3004.13	0.560242	6.34766e-06
3005.03	0.561462	0.00441437
3005.87	0.561493	-5.15747e-06
3006.77	0.560028	8.48389e-06
3007.67	0.561676	6.6925e-05
3008.51	0.560669	0
3009.41	0.561432	1.83105e-07
3010.31	0.561493	2.45972e-05
3011.15	0.560486	-1.52588e-06
3012.05	0.560211	6.65283e-06
3012.95	0.560608	2.00806e-05
3013.79	0.561157	-2.68555e-06
3014.69	0.561188	-1.67847e-06
3015.59	0.560089	1.92566e-05
3016.43	0.561035	-6.10352e-08
3017.33	0.560425	4.39453e-06
3018.23	0.560089	1.67236e-05
3019.09	-0.697998	-0.0245056
3019.97	0.560394	4.39453e-06
3020.87	0.56076	1.10474e-05
3021.73	-0.697968	-0.0174438
3022.61	0.56131	-1.83105e-07
3023.51	0.561554	1.98364e-06
3024.39	-0.000741577	0.0079071
3025.25	0.559998	5.0354e-06
3026.15	0.560547	7.99561e-06
3027.03	3.66211e-05	0.0043689
3027.89	0.56131	-3.26538e-06
3028.79	0.560516	6.40869e-06
3029.69	0.559357	0.0164551
3030.53	0.561218	-2.65503e-06
3031.43	0.561371	1.00708e-06
3032.33	0.560638	0.00480225
3033.17	0.561066	-1.5564e-06
3034.07	0.561768	-1.89209e-06
3034.97	0.560486	7.78198e-05
3035.81	0.561096	-4.85229e-06
3036.71	0.56134	-2.13623e-06
3037.61	0.561523	2.38953e-05
3038.45	0.561462	-4.94385e-06
3039.35	0.561035	2.13623e-07
3040.25	0.56073	2.06299e-05
3041.09	0.561615	-6.34766e-06
3041.99	0.561615	-4.15039e-06
3042.89	0.561523	8.30078e-06
3043.73	0.560577	-2.44141e-07
3044.63	0.560944	-1.70898e-06
3045.53	0.56015	1.48926e-05
3046.39	-0.697571	-0.0244965
3047.27	0.561646	-4.30298e-06
3048.17	0.56131	5.12695e-06
3049.03	-0.698029	-0.0174652
3049.91	0.56076	1.0376e-06
3050.81	0.560394	9.33838e-06
3051.69	-0.000234985	0.00789185
3052.55	0.561096	-7.01904e-07
3053.45	0.560089	1.26038e-05
3054.33	-0.000518799	0.0043634
3055.19	0.559906	6.37817e-06
3056.09	0.560883	3.78418e-06
3056.99	0.560486	0.0164734
3057.83	0.561523	-4.79126e-06
3058.73	0.561401	-9.76562e-07
3059.63	0.561707	0.00518616
3060.47	0.56134	-4.57764e-06
3061.37	0.561462	-3.44849e-06
3062.27	0.561035	7.75146e-05
3063.11	0.560394	7.62939e-07
3064.01	0.560242	6.04248e-06
3064.91	0.560516	3.46985e-05
3065.75	0.561615	-5.31006e-06
3066.65	0.561615	-3.35693e-07
3067.55	0.560455	2.12402e-05
3068.39	0.560059	3.479e-06
3069.29	0.560089	6.04248e-06
3070.19	0.56134	9.27734e-06
3071.03	0.561249	-4.76074e-06
3071.93	0.560394	3.8147e-06
3072.83	0.561371	6.62231e-06
3073.69	-0.6987	-0.0245331
3074.57	0.560394	2.92969e-06
3075.47	0.560272	1.08948e-05
3076.33	-0.697906	-0.0175293
3077.21	0.560181	5.15747e-06
3078.11	0.561493	-1.2207e-07
3078.99	-0.000582886	0.00785522
3079.85	0.560944	2.50244e-06
3080.75	0.561127	3.54004e-06
3081.63	-7.62939e-05	0.00434387
3082.49	0.56015	4.73022e-06
3083.39	0.56012	9.94873e-06
3084.29	0.56012	0.0164978
3085.13	0.561127	-4.27246e-07
3086.03	0.561127	1.31226e-06
3086.93	0.560272	0.00555634
3087.77	0.56015	4.21143e-06
3088.67	0.56012	9.21631e-06
3089.57	0.560333	8.09937e-05
3090.41	0.56134	-3.41797e-06
3091.31	0.560822	4.21143e-06
3092.21	0.561401	2.59094e-05
3093.05	0.561279	-6.22559e-06
3093.95	0.56134	-2.80762e-06
3094.85	0.560486	2.20642e-05
3095.69	0.560089	3.75366e-06
3096.59	0.56134	-8.23975e-07
3097.49	0.560211	1.80359e-05
3098.33	0.560455	5.49316e-07
3099.23	0.560486	5.0354e-06
3100.13	0.559998	1.57776e-05
3100.99	-0.697388	-0.0245575
3101.87	0.561523	-4.60815e-06
3102.77	0.561218	7.14111e-06
3103.63	-0.697571	-0.0175537
3104.51	0.561462	-2.41089e-06
3105.41	0.560333	1.01929e-05
3106.29	-0.000634766	0.00783386
3107.15	0.560974	5.49316e-07
3108.05	0.560089	1.03455e-05
3108.93	-0.000512695	0.0043457
3109.79	0.560333	4.48608e-06
3110.69	0.561279	2.68555e-06
3111.59	0.560577	0.01651
3112.43	0.560211	6.28662e-06
3113.33	0.56131	-6.10352e-08
3114.23	0.56012	0.00588379
3115.07	0.561096	-2.44141e-06
3115.97	0.560822	3.02124e-06
3116.87	0.561462	7.87964e-05
3117.71	0.560059	4.63867e-06
3118.61	0.561584	-2.80762e-06
3119.51	0.560242	3.39355e-05
3120.35	0.560547	4.57764e-07
3121.25	0.560425	4.85229e-06
3122.15	0.561493	1.67847e-05
3122.99	0.561401	-5.49316e-06
3123.89	0.560669	5.00488e-06
3124.79	0.56012	1.80054e-05
3125.63	0.56073	-3.35693e-07
3126.53	0.561707	-3.02124e-06
3127.43	0.560547	1.32141e-05
3128.29	-0.698639	-0.0245789
3129.17	0.561035	-1.34277e-06
3130.07	0.560059	1.27869e-05
3130.93	-0.699066	-0.0175812
3131.81	0.56012	6.04248e-06
3132.71	0.56073	7.32422e-06
3133.59	0.000561523	0.00779724
3134.45	0.560852	-7.93457e-07
3135.35	0.561646	1.5564e-06
3136.23	0.0010376	0.00432709
3137.09	0.560394	4.42505e-06
3137.99	0.561615	-8.23975e-07
3138.89	0.560638	0.0165314
3139.73	0.560333	3.8147e-06
3140.63	0.559998	9.67407e-06
3141.53	0.560974	0.0061969
3142.37	0.560852	-1.0376e-06
3143.27	0.560303	6.7749e-06
3144.17	0.561432	8.14209e-05
3145.01	0.560089	5.12695e-06
3145.91	0.56073	2.86865e-06
3146.81	0.561371	2.41089e-05
3147.65	0.561584	-5.34058e-06
3148.55	0.561676	-2.16675e-06
3149.45	0.561218	1.66016e-05
3150.29	0.560089	4.5166e-06
3151.19	0.560181	5.64575e-06
3152.09	0.560974	1.26038e-05
3152.93	0.560791	-8.8501e-07
3153.83	0.560211	4.42505e-06
3154.73	0.560089	1.56555e-05
3155.59	-0.697906	-0.0245758
3156.47	0.561493	-3.26538e-06
3157.37	0.560089	1.41602e-05
3158.23	-0.698456	-0.0176178
3159.11	0.560608	1.70898e-06
3160.01	0.561249	1.19019e-06
3160.89	0.000570679	0.00778198
3161.75	0.561371	-3.05176e-07
3162.65	0.560944	3.26538e-06
3163.53	0.00055542	0.00432037
3164.39	0.560547	1.28174e-06
3165.29	0.561462	2.44141e-07
3166.19	0.559937	0.0165436
3167.03	0.561096	-1.15967e-06
3167.93	0.56076	4.97437e-06
3168.83	0.559998	0.00641449
3169.67	0.560059	5.00488e-06
3170.57	0.561249	3.35693e-07
3171.47	0.561127	8.91418e-05
3172.31	0.56012	4.11987e-06
3173.21	0.561249	9.46045e-07
3174.11	0.56134	2.57874e-05
3174.95	0.56131	-3.66211e-07
3175.85	0.56073	2.74658e-06
3176.75	0.561401	1.51672e-05
3177.59	0.561554	-4.30298e-06
3178.49	0.560028	6.43921e-06
3179.39	0.561554	8.27026e-06
3180.23	0.560608	5.49316e-07
3181.13	0.560242	6.13403e-06
3182.03	0.561493	3.78418e-06
3182.89	-0.698517	-0.024588
3183.77	0.561523	-3.08228e-06
3184.67	0.561676	2.62451e-06
3185.53	-0.697815	-0.0176453
3186.41	0.560059	8.08716e-06
3187.31	0.560974	6.19507e-06
3188.19	-0.000482178	0.00776978
3189.05	0.561615	-4.69971e-06
3189.95	0.561554	-7.32422e-07
3190.83	0.000921631	0.0043161
3191.69	0.560059	6.04248e-06
3192.59	0.561249	1.70898e-06
3193.49	0.56073	0.016568
3194.33	0.56012	4.76074e-06
3195.23	0.561493	-2.19727e-06
3196.13	0.561584	0.00662994
3196.97	0.561005	7.93457e-07
3197.87	0.560516	7.1106e-06
3198.77	0.560944	8.87756e-05
3199.61	0.561371	-1.58691e-06
3200.51	0.560059	6.95801e-06
3201.41	0.561554	2.52075e-05
3202.25	0.561462	-5.31006e-06
3203.15	0.560394	4.3335e-06
3204.05	0.561157	1.62354e-05
3204.89	0.56134	-4.45557e-06
3205.79	0.561523	-4.73022e-06
3206.69	0.561157	1.29089e-05
3207.53	0.561035	-1.0376e-06
3208.43	0.561584	-4.30298e-06
3209.33	0.560028	1.64185e-05
3210.19	-0.698242	-0.0246155
3211.07	0.560425	5.52368e-06
3211.97	0.560638	9.85718e-06
3212.83	-0.6987	-0.017691
3213.71	0.560822	3.11279e-06
3214.61	0.560028	1.15662e-05
3215.49	-0.000708008	0.00773926
3216.35	0.560913	1.28174e-06
3217.25	0.560516	6.80542e-06
3218.13	0.000894165	0.00430756
3218.99	0.561127	-2.2583e-06
3219.89	0.560303	7.90405e-06
3220.79	0.560272	0.0165771
3221.63	0.560028	6.89697e-06
3222.53	0.560822	5.34058e-06
3223.43	0.561462	0.00684906
3224.27	0.560028	6.7749e-06
3225.17	0.560516	5.37109e-06
3226.07	0.561554	9.00574e-05
3226.91	0.56015	5.31006e-06
3227.81	0.560303	5.37109e-06
3228.71	0.560059	3.61023e-05
3229.55	0.56015	4.11987e-06
3230.45	0.561157	-6.10352e-08
3231.35	0.560577	2.04468e-05
3232.19	0.560272	3.14331e-06
3233.09	0.560272	4.45557e-06
3233.99	0.56073	1.62354e-05
3234.83	0.560181	4.18091e-06
3235.73	0.561279	2.44141e-07
3236.63	0.56012	1.44653e-05
3237.49	-0.698334	-0.0246246
3238.37	0.561493	-4.66919e-06
3239.27	0.560547	9.64355e-06
3240.13	-0.697601	-0.0177185
3241.01	0.560883	2.44141e-07
3241.91	0.56015	8.36182e-06
3242.79	-0.000497437	0.00772705
3243.65	0.561584	-5.7373e-06
3244.55	0.560486	7.59888e-06
3245.43	0.000460815	0.0043042
3246.29	0.561554	-4.60815e-06
3247.19	0.560333	8.48389e-06
3248.09	0.559326	0.0166107
3248.93	0.559937	7.47681e-06
3249.83	0.560455	6.5918e-06
3250.73	0.561493	0.00704254
3251.57	0.56134	-2.96021e-06
3252.47	0.560608	4.5166e-06
3253.37	0.561554	9.3689e-05
3254.21	0.561371	-4.08936e-06
3255.11	0.560059	8.78906e-06
3256.01	0.560394	3.45459e-05
3256.85	0.560333	2.89917e-06
3257.75	0.560028	6.83594e-06
3258.65	0.560242	2.16675e-05
3259.49	0.560303	3.9978e-06
3260.39	0.560028	7.1106e-06
3261.29	0.561584	8.48389e-06
3262.13	0.561646	-5.64575e-06
3263.03	0.561005	-6.40869e-07
3263.93	0.561371	6.04248e-06
3264.79	-0.698456	-0.0246216
3265.67	0.560089	6.01196e-06
3266.57	0.560211	1.33362e-05
3267.43	-0.698975	-0.0177307
3268.31	0.56134	-1.49536e-06
3269.21	0.561035	5.52368e-06
3270.09	0.000708008	0.00768433
3270.95	0.560608	1.00708e-06
3271.85	0.560333	5.67627e-06
3272.73	-0.000424194	0.00430847
3273.59	0.56012	7.23267e-06
3274.49	0.561584	-2.86865e-06
3275.39	0.559967	0.0166138
3276.23	0.561646	-5.37109e-06
3277.13	0.561157	9.15527e-07
3278.03	0.561279	0.007211
3278.87	0.561401	-4.24194e-06
3279.77	0.560791	3.44849e-06
3280.67	0.561584	9.88159e-05
3281.51	0.560944	-7.62939e-07
3282.41	0.560059	7.1106e-06
3283.31	0.561096	2.67334e-05
3284.15	0.560242	4.02832e-06
3285.05	0.560181	7.90405e-06
3285.95	0.561279	1.67847e-05
3286.79	0.560028	3.23486e-06
3287.69	0.561554	-4.45557e-06
3288.59	0.561584	7.50732e-06
3289.43	0.56012	6.10352e-06
3290.33	0.559998	6.13403e-06
3291.23	0.561584	5.34058e-06
3292.09	-0.698212	-0.0246521
3292.97	0.561615	-4.63867e-06
3293.87	0.560333	1.06506e-05
3294.73	-0.697845	-0.0177704
3295.61	0.560059	5.85937e-06
3296.51	0.561188	1.37329e-06
3297.39	0.000286865	0.00766296
3298.25	0.561554	-3.9978e-06
3299.15	0.561523	5.49316e-07
3300.03	0.000939941	0.00428986
3300.89	0.560425	2.04468e-06
3301.79	0.561035	2.41089e-06
3302.69	0.559631	0.0166473
3303.53	0.560333	2.62451e-06
3304.43	0.56012	8.54492e-06
3305.33	0.56015	0.0073996
3306.17	0.56131	-2.96021e-06
3307.07	0.560974	1.15967e-06
3307.97	0.560944	0.000103241
3308.81	0.560974	-1.92261e-06
3309.71	0.561646	-4.48608e-06
3310.61	0.561279	2.74048e-05
3311.45	0.561707	-5.67627e-06
3312.35	0.561584	-4.36401e-06
3313.25	0.560944	2.03552e-05
3314.09	0.561279	-2.65503e-06
3314.99	0.56012	6.31714e-06
3315.89	0.560181	1.89514e-05
3316.73	0.560883	-2.04468e-06
3317.63	0.561584	-4.27246e-06
3318.53	0.561371	5.85937e-06
3319.39	-0.697601	-0.0246796
3320.27	0.560028	5.79834e-06
3321.17	0.561676	3.54004e-06
3322.03	-0.698181	-0.0177948
3322.91	0.561615	-3.57056e-06
3323.81	0.561432	2.47192e-06
3324.69	0.000772095	0.00765076
3325.55	0.560211	5.64575e-06
3326.45	0.561401	1.28174e-06
3327.33	0.000881958	0.00428955
3328.19	0.560211	4.08936e-06
3329.09	0.561523	-1.70898e-06
3329.99	0.55954	0.0166626
3330.83	0.561401	-3.60107e-06
3331.73	0.560089	8.11768e-06
3332.63	0.560303	0.0075531
3333.47	0.561066	-2.0752e-06
3334.37	0.561676	-1.49536e-06
3335.27	0.56131	0.000107483
3336.11	0.561554	-6.40869e-06
3337.01	0.561523	-3.44849e-06
3337.91	0.560303	3.61938e-05
3338.75	0.560516	1.15967e-06
3339.65	0.560059	6.46973e-06
3340.55	0.560059	2.53906e-05
3341.39	0.560425	1.49536e-06
3342.29	0.560181	6.10352e-06
3343.19	0.561371	9.64355e-06
3344.03	0.560181	4.08936e-06
3344.93	0.561066	-7.93457e-07
3345.83	0.561523	3.17383e-06
3346.69	-0.697235	-0.0246826
3347.57	0.560883	9.15527e-07
3348.47	0.561432	3.32642e-06
3349.33	-0.697632	-0.0178467
3350.21	0.560486	1.40381e-06
3351.11	0.561584	1.61743e-06
3351.99	-0.000543213	0.00761108
3352.85	0.561157	-7.01904e-07
3353.75	0.561462	1.52588e-07
3354.63	-0.000531006	0.00428345
3355.49	0.561279	-1.61743e-06
3356.39	0.560608	3.57056e-06
3357.29	0.559967	0.016684
3358.13	0.560791	6.10352e-08
3359.03	0.560242	4.30298e-06
3359.93	0.559814	0.00768738
3360.77	0.560089	7.20215e-06
3361.67	0.561188	2.13623e-07
3362.57	0.560059	0.000121735
3363.41	0.560333	3.26538e-06
3364.31	0.561523	-2.10571e-06
3365.21	0.560059	3.79333e-05
3366.05	0.56015	3.32642e-06
3366.95	0.560699	2.13623e-06
3367.85	0.560059	2.55432e-05
3368.69	0.561523	-4.30298e-06
3369.59	0.561005	-4.27246e-07
3370.49	0.561005	8.78906e-06
3371.33	0.561371	-2.53296e-06
3372.23	0.561707	-3.17383e-06
3373.13	0.559998	1.58997e-05
3373.99	-0.697113	-0.0246979
3374.87	0.56012	5.58472e-06
3375.77	0.56012	1.06506e-05
3376.63	-0.699036	-0.0178589
3377.51	0.561249	-4.15039e-06
3378.41	0.560791	6.98853e-06
3379.29	-7.62939e-05	0.00758362
3380.15	0.560608	2.22778e-06
3381.05	0.560089	1.12305e-05
3381.93	-0.000506592	0.00427216
3382.79	0.561584	-5.61523e-06
3383.69	0.560364	7.93457e-06
3384.59	0.559265	0.016684
3385.43	0.560852	-7.32422e-07
3386.33	0.560333	6.073e-06
3387.23	0.559814	0.00778809
3388.07	0.560059	6.22559e-06
3388.97	0.560547	2.19727e-06
3389.87	0.560577	0.000121521
3390.71	0.561707	-5.92041e-06
3391.61	0.561096	-1.43433e-06
3392.51	0.561279	2.99683e-05
3393.35	0.561432	-4.21143e-06
3394.25	0.561188	-9.15527e-07
3395.15	0.561249	1.74561e-05
3395.99	0.560028	4.94385e-06
3396.89	0.560822	1.83105e-06
3397.79	0.56134	9.8877e-06
3398.63	0.56073	8.8501e-07
3399.53	0.561584	-3.72314e-06
3400.43	0.559998	1.62048e-05
3401.29	-0.697968	-0.0246979
3402.17	0.560516	1.09863e-06
3403.07	0.560059	1.40991e-05
3403.93	-0.698669	-0.0179016
3404.81	0.561157	-2.31934e-06
3405.71	0.561584	1.09863e-06
3406.59	-0.000497437	0.00757751
3407.45	0.561066	-2.68555e-06
3408.35	0.560059	1.2207e-05
3409.23	0.000784302	0.00425262
3410.09	0.560181	3.479e-06
3410.99	0.561523	-7.93457e-07
3411.89	0.560699	0.016684
3412.73	0.560059	4.97437e-06
3413.63	0.560913	5.88989e-06
3414.53	0.561188	0.00788269
3415.37	0.561646	-5.95093e-06
3416.27	0.560028	8.39233e-06
3417.17	0.561493	0.000119141
3418.01	0.561371	-3.26538e-06
3418.91	0.560822	2.04468e-06
3419.81	0.560028	3.69568e-05
3420.65	0.561584	-4.02832e-06
3421.55	0.560059	8.36182e-06
3422.45	0.560913	2.005e-05
3423.29	0.561371	-3.72314e-06
3424.19	0.561462	-3.17383e-06
3425.09	0.560364	1.84326e-05
3425.93	0.56012	3.78418e-06
3426.83	0.560364	7.08008e-06
3427.73	0.560974	8.45337e-06
3428.59	-0.697266	-0.0247284
3429.47	0.560089	7.01904e-06
3430.37	0.56076	9.06372e-06
3431.23	-0.697693	-0.0179382
3432.11	0.561584	-3.93677e-06
3433.01	0.561371	4.15039e-06
3433.89	-0.000717163	0.00754089
3434.75	0.560028	5.85937e-06
3435.65	0.56012	1.15662e-05
3436.53	-1.83105e-05	0.0042511
3437.39	0.56012	3.35693e-06
3438.29	0.561523	-1.12915e-06
3439.19	0.559204	0.0167084
3440.03	0.560577	4.3335e-06
3440.93	0.560455	4.79126e-06
3441.83	0.561249	0.00800781
3442.67	0.561401	-3.54004e-06
3443.57	0.56076	4.05884e-06
3444.47	0.560944	0.000128296
3445.31	0.561523	-6.31714e-06
3446.21	0.561462	-3.05176e-06
3447.11	0.561279	3.15552e-05
3447.95	0.561401	-5.64575e-06
3448.85	0.560211	6.62231e-06
3449.75	0.560242	2.59705e-05
3450.59	0.560669	1.2207e-07
3451.49	0.559967	6.65283e-06
3452.39	0.561554	9.21631e-06
3453.23	0.561646	-6.37817e-06
3454.13	0.561371	-3.02124e-06
3455.03	0.560211	1.58691e-05
3455.89	-0.697052	-0.0247498
3456.77	0.560089	6.04248e-06
3457.67	0.561035	5.64575e-06
3458.53	-0.698761	-0.01796875
3459.41	0.561615	-4.30298e-06
3460.31	0.560944	6.10352e-06
3461.19	0.000552368	0.00750732
3462.05	0.560394	3.90625e-06
3462.95	0.561584	3.08228e-06
3463.83	0.000448608	0.00422638
3464.69	0.559967	6.43921e-06
3465.59	0.560577	4.88281e-06
3466.49	0.55954	0.0167023
3467.33	0.561523	-4.45557e-06
3468.23	0.561462	1.31226e-06
3469.13	0.561157	0.008078
3469.97	0.559998	5.76782e-06
3470.87	0.560577	5.52368e-06
3471.77	0.560425	0.000135132
3472.61	0.561401	-3.87573e-06
3473.51	0.561615	-2.99072e-06
3474.41	0.561066	2.98767e-05
3475.25	0.561066	-2.44141e-06
3476.15	0.561554	-2.96021e-06
3477.05	0.560303	2.32544e-05
3477.89	0.56134	-1.77002e-06
3478.79	0.560089	7.38525e-06
3479.69	0.560059	1.88293e-05
3480.53	0.559998	5.52368e-06
3481.43	0.561584	-4.05884e-06
3482.33	0.560547	1.171875E-05
3483.19	-0.698547	-0.0247467
3484.07	0.561432	-3.72314e-06
3484.97	0.560913	8.08716e-06
3485.83	-0.697571	-0.0180023
3486.71	0.561279	-2.83813e-06
3487.61	0.560181	9.79614e-06
3488.49	-0.000643921	0.00749298
3489.35	0.561676	-4.39453e-06
3490.25	0.560059	1.11694e-05
3491.13	0.000958252	0.00422058
3491.99	0.561005	2.13623e-07
3492.89	0.561584	-6.71387e-07
3493.79	0.559204	0.0167236
3494.63	0.560303	4.05884e-06
3495.53	0.559998	1.14136e-05
3496.43	0.560425	0.00816345
3497.27	0.560028	6.50024e-06
3498.17	0.56012	8.5144e-06
3499.07	0.561279	0.000136383
3499.91	0.56015	4.30298e-06
3500.81	0.561493	-2.44141e-07
3501.71	0.560242	3.76282e-05
3502.55	0.560028	5.67627e-06
3503.45	0.560272	5.95093e-06
3504.35	0.561401	1.5625e-05
3505.19	0.561462	-4.39453e-06
3506.09	0.56131	-1.70898e-06
3506.99	0.560303	1.58997e-05
3507.83	0.560028	4.60815e-06
3508.73	0.56012	7.65991e-06
3509.63	0.561584	4.82178e-06
3510.49	-0.698334	-0.0247467
3511.37	0.560638	2.80762e-06
3512.27	0.56073	1.11084e-05
3513.13	-0.69873	-0.0180084
3514.01	0.561157	7.32422e-07
3514.91	0.560791	6.16455e-06
3515.79	0.000848389	0.00746307
3516.65	0.56076	1.06812e-06
3517.55	0.56134	9.15527e-07
3518.43	-0.000466919	0.00422394
3519.29	0.56012	4.79126e-06
3520.19	0.561279	1.0376e-06
3521.09	0.56015	0.0167267
3521.93	0.560242	4.85229e-06
3522.83	0.561493	-1.0376e-06
3523.73	0.560577	0.00825806
3524.57	0.56076	2.41089e-06
3525.47	0.559967	9.06372e-06
3526.37	0.56015	0.000146271
3527.21	0.561462	-5.88989e-06
3528.11	0.560242	8.14819e-06
3529.01	0.561584	2.79541e-05
3529.85	0.560364	2.7771e-06
3530.75	0.561005	3.35693e-07
3531.65	0.560608	2.29797e-05
3532.49	0.560059	6.04248e-06
3533.39	0.561584	-2.71606e-06
3534.29	0.561462	8.88062e-06
3535.13	0.560608	1.2207e-06
3536.03	0.560455	3.87573e-06
3536.93	0.559967	1.67236e-05
3537.79	-0.697571	-0.0247528
3538.67	0.561432	-4.24194e-06
3539.57	0.561035	5.67627e-06
3540.43	-0.698761	-0.0180359
3541.31	0.561523	-3.75366e-06
3542.21	0.560272	9.8877e-06
3543.09	0.000222778	0.00744202
3543.95	0.56131	-1.15967e-06
3544.85	0.561401	9.46045e-07
3545.73	-0.000231934	0.00421875
3546.59	0.560364	5.27954e-06
3547.49	0.560242	9.21631e-06
3548.39	0.559723	0.016745
3549.23	0.560577	1.37329e-06
3550.13	0.559967	9.46045e-06
3551.03	0.560394	0.00835876
3551.87	0.561432	-1.46484e-06
3552.77	0.561401	1.2207e-07
3553.67	0.560394	0.000148224
3554.51	0.561554	-5.31006e-06
3555.41	0.560089	8.02612e-06
3556.31	0.561096	3.19214e-05
3557.15	0.560364	3.05176e-06
3558.05	0.560944	1.2207e-06
3558.95	0.560181	2.5177e-05
3559.79	0.560455	2.22778e-06
3560.69	0.561371	-1.77002e-06
3561.59	0.561523	1.1261e-05
3562.43	0.561584	-4.48608e-06
3563.33	0.561554	-2.41089e-06
3564.23	0.560547	1.27563e-05
3565.09	-0.697571	-0.0247681
3565.97	0.560333	4.66919e-06
3566.87	0.561584	2.83813e-06
3567.73	-0.69873	-0.0180573
3568.61	0.561066	-1.49536e-06
3569.51	0.560974	6.04248e-06
3570.39	-0.000714111	0.0074292
3571.25	0.561371	-2.13623e-06
3572.15	0.560974	5.76782e-06
3573.03	0.000848389	0.00420166
3573.89	0.560303	5.34058e-06
3574.79	0.56131	1.00708e-06
3575.69	0.559265	0.0167694
3576.53	0.560028	6.31714e-06
3577.43	0.56131	-7.01904e-07
3578.33	0.559875	0.00844421
3579.17	0.561249	-3.08228e-06
3580.07	0.561615	-1.52588e-07
3580.97	0.560547	0.00015451
3581.81	0.560059	4.39453e-06
3582.71	0.560272	6.22559e-06
3583.61	0.561401	2.96936e-05
3584.45	0.561157	-2.74658e-06
3585.35	0.560425	3.96729e-06
3586.25	0.561035	1.76697e-05
3587.09	0.561584	-5.24902e-06
3587.99	0.561584	-3.44849e-06
3588.89	0.560364	1.61438e-05
3589.73	0.560364	3.38745e-06
3590.63	0.560272	5.34058e-06
3591.53	0.559967	1.78528e-05
3592.39	-0.698608	-0.0247711
3593.27	0.561432	1.83105e-07
3594.17	0.560059	1.3031e-05
3595.03	-0.69754	-0.0180939
3595.91	0.561371	-2.68555e-06
3596.81	0.560059	1.23596e-05
3597.69	-0.000540161	0.00741333
3598.55	0.560913	-7.32422e-07
3599.45	0.560303	8.69751e-06
3600.33	-0.000259399	0.0041983
3601.19	0.561096	-1.61743e-06
3602.09	0.561462	4.57764e-07
3602.99	0.55954	0.0167908
3603.83	0.560211	5.88989e-06
3604.73	0.560364	6.37817e-06
3605.63	0.56131	0.00851135
3606.47	0.561493	-4.60815e-06
3607.37	0.560486	5.0354e-06
3608.27	0.56015	0.000159668
3609.11	0.561401	-3.32642e-06
3610.01	0.561218	1.80054e-06
3610.91	0.560883	3.36609e-05
3611.75	0.560211	7.01904e-06
3612.65	0.56012	6.92749e-06
3613.55	0.560364	2.30408e-05
3614.39	0.560303	3.54004e-06
3615.29	0.560394	5.64575e-06
3616.19	0.561035	1.18408e-05
3617.03	0.560089	5.24902e-06
3617.93	0.561493	-2.59399e-06
3618.83	0.560425	1.28479e-05
3619.69	-0.697174	-0.0247833
3620.57	0.56134	-3.08228e-06
3621.47	0.560608	5.98145e-06
3622.33	-0.698608	-0.0181183
3623.21	0.561401	-4.27246e-07
3624.11	0.561493	2.68555e-06
3624.99	-0.000479126	0.00739929
3625.85	0.560333	5.18799e-06
3626.75	0.560394	8.91113e-06
3627.63	-2.74658e-05	0.00421204
3628.49	0.561157	-2.83813e-06
3629.39	0.559998	9.39941e-06
3630.29	0.560211	0.0168091
3631.13	0.561523	-4.15039e-06
3632.03	0.560547	6.31714e-06
3632.93	0.56131	0.00842285
3633.77	0.561249	-2.0752e-06
3634.67	0.561462	-2.19727e-06
3635.57	0.560181	0.000162567
3636.41	0.560577	2.62451e-06
3637.31	0.561615	-2.47192e-06
3638.21	0.561157	3.07007e-05
3639.05	0.561493	-4.24194e-06
3639.95	0.561646	-4.82178e-06
3640.85	0.560059	2.49939e-05
3641.69	0.560242	6.68335e-06
3642.59	0.560669	4.42505e-06
3643.49	0.560059	1.86157e-05
3644.33	0.56131	-1.77002e-06
3645.23	0.561401	-8.23975e-07
3646.13	0.56134	6.34766e-06
3646.99	-0.697876	-0.024649
3647.87	0.561554	-4.05884e-06
3648.77	0.560333	1.04065e-05
3649.63	-0.699158	-0.0180511
3650.51	0.560608	1.58691e-06
3651.41	0.560211	1.18408e-05
3652.29	0.000170898	0.0074176
3653.15	0.56012	5.7373e-06
3654.05	0.56134	2.13623e-06
3654.93	0.000854492	0.00421326
3655.79	0.560699	1.5564e-06
3656.69	0.559937	1.06201e-05
3657.59	0.560577	0.0168213
3658.43	0.561554	-1.46484e-06
3659.33	0.561554	-2.74658e-06
3660.23	0.559723	0.00852661
3661.07	0.560913	4.57764e-07
3661.97	0.560822	1.77002e-06
3662.87	0.560028	0.000169098
3663.71	0.559998	6.68335e-06
3664.61	0.56073	4.54712e-06
3665.51	0.561493	3.19519e-05
3666.35	0.560089	4.57764e-06
3667.25	0.560516	4.5166e-06
3668.15	0.560028	2.65198e-05
3668.99	0.560486	3.8147e-06
3669.89	0.561249	-1.31226e-06
3670.79	0.561371	9.94873e-06
3671.63	0.560669	1.15967e-06
3672.53	0.561493	-4.60815e-06
3673.43	0.559998	1.43738e-05
3674.29	-0.697327	-0.0247803
3675.17	0.559998	6.10352e-06
3676.07	0.560364	1.07117e-05
3676.93	-0.697815	-0.0181519
3677.81	0.560364	2.83813e-06
3678.71	0.56015	1.07422e-05
3679.59	0.000765991	0.00734863
3680.45	0.560211	5.95093e-06
3681.35	0.561462	1.52588e-06
3682.23	0.000854492	0.00418488
3683.09	0.561646	-4.94385e-06
3683.99	0.560333	7.41577e-06
3684.89	0.560486	0.0168243
3685.73	0.560486	1.7395e-06
3686.63	0.560242	8.69751e-06
3687.53	0.560394	0.00872498
3688.37	0.560425	1.00708e-06
3689.27	0.560547	3.84521e-06
3690.17	0.560089	0.000178833
3691.01	0.561554	-5.40161e-06
3691.91	0.560211	5.98145e-06
3692.81	0.561218	3.3783e-05
3693.65	0.560181	3.14331e-06
3694.55	0.560028	7.08008e-06
3695.45	0.561188	1.85242e-05
3696.29	0.56076	-1.15967e-06
3697.19	0.559998	7.50732e-06
3698.09	0.560089	2.005e-05
3698.93	0.560822	-1.40381e-06
3699.83	0.561462	-3.35693e-06
3700.73	0.561523	6.22559e-06
3701.59	-0.697113	-0.0247925
3702.47	0.560059	6.56128e-06
3703.37	0.559967	1.32751e-05
3704.23	-0.698242	-0.0181732
3705.11	0.561249	-5.52368e-06
3706.01	0.561554	7.62939e-07
3706.89	-0.000427246	0.00734009
3707.75	0.560883	1.15967e-06
3708.65	0.561005	1.86157e-06
3709.53	0.000360107	0.00417969
3710.39	0.56134	-2.7771e-06
3711.29	0.560059	9.42993e-06
3712.19	0.560669	0.0168274
3713.03	0.560028	6.22559e-06
3713.93	0.56134	-2.74658e-07
3714.83	0.559753	0.00877686
3715.67	0.561127	-5.18799e-07
3716.57	0.560394	8.69751e-06
3717.47	0.56134	0.000175049
3718.31	0.560333	3.44849e-06
3719.21	0.560059	7.78198e-06
3720.11	0.560181	4.07104e-05
3720.95	0.560211	4.79126e-06
3721.85	0.560211	6.7749e-06
3722.75	0.560577	2.33765e-05
3723.59	0.560638	2.31934e-06
3724.49	0.561584	-3.32642e-06
3725.39	0.56015	1.97754e-05
3726.23	0.560059	5.92041e-06
3727.13	0.561035	8.8501e-07
3728.03	0.56134	6.40869e-06
3728.89	-0.697296	-0.0247833
3729.77	0.56073	2.22778e-06
3730.67	0.560944	5.88989e-06
3731.53	-0.698944	-0.0181854
3732.41	0.561401	-4.3335e-06
3733.31	0.560608	4.36401e-06
3734.19	0.000762939	0.00731628
3735.05	0.561157	-4.79126e-06
3735.95	0.561188	2.89917e-06
3736.83	0.00078125	0.00417145
3737.69	0.56131	-2.96021e-06
3738.59	0.560638	3.69263e-06
3739.49	0.560272	0.0168365
3740.33	0.559937	6.37817e-06
3741.23	0.560791	4.11987e-06
3742.13	0.560059	0.00883179
3742.97	0.560364	3.57056e-06
3743.87	0.56134	-7.62939e-07
3744.77	0.561432	0.000180298
3745.61	0.560028	5.98145e-06
3746.51	0.560394	5.46265e-06
3747.41	0.560333	4.20227e-05
3748.25	0.56012	5.52368e-06
3749.15	0.56015	7.47681e-06
3750.05	0.559875	2.72217e-05
3750.89	0.561584	-5.34058e-06
3751.79	0.560089	8.39233e-06
3752.69	0.561432	1.01929e-05
3753.53	0.560455	-2.44141e-07
3754.43	0.560486	3.2959e-06
3755.33	0.561523	5.92041e-06
3756.19	-0.697021	-0.0247772
3757.07	0.56131	-1.2207e-07
3757.97	0.560089	1.34277e-05
3758.83	-0.697876	-0.0181946
3759.71	0.560181	5.46265e-06
3760.61	0.561279	4.21143e-06
3761.49	-0.000231934	0.00730316
3762.35	0.561371	-2.41089e-06
3763.25	0.561493	6.40869e-07
3764.13	0.00102844	0.00416901
3764.99	0.560089	5.09644e-06
3765.89	0.561432	7.62939e-07
3766.79	0.559174	0.016861
3767.63	0.561493	-5.58472e-06
3768.53	0.56134	1.43433e-06
3769.43	0.559753	0.00889282
3770.27	0.561188	2.74658e-07
3771.17	0.56134	-4.88281e-07
3772.07	0.561066	0.000188354
3772.91	0.560028	5.43213e-06
3773.81	0.561615	-2.68555e-06
3774.71	0.560791	3.86047e-05
3775.55	0.561646	-6.04248e-06
3776.45	0.561035	2.13623e-07
3777.35	0.560364	2.45361e-05
3778.19	0.560028	4.36401e-06
3779.09	0.561462	-2.28882e-06
3779.99	0.560059	2.02026e-05
3780.83	0.560181	5.00488e-06
3781.73	0.560822	2.38037e-06
3782.63	0.56015	1.51367e-05
3783.49	-0.69751	-0.0247894
3784.37	0.560974	4.27246e-07
3785.27	0.561462	6.68335e-06
3786.13	-0.697571	-0.0182312
3787.01	0.560059	7.23267e-06
3787.91	0.560913	5.37109e-06
3788.79	0.000619507	0.0072821
3789.65	0.561523	-4.69971e-06
3790.55	0.560608	9.24683e-06
3791.43	5.18799e-05	0.00417023
3792.29	0.560089	6.31714e-06
3793.19	0.561432	6.10352e-08
3794.09	0.559326	0.0168793
3794.93	0.560577	-4.57764e-07
3795.83	0.561432	-4.27246e-07
3796.73	0.560608	0.00897217
3797.57	0.560669	-7.32422e-07
3798.47	0.560608	3.9978e-06
3799.37	0.561432	0.000192505
3800.21	0.561096	-3.93677e-06
3801.11	0.561584	-2.16675e-06
3802.01	0.561188	3.49731e-05
3802.85	0.560181	5.37109e-06
3803.75	0.559998	6.37817e-06
3804.65	0.561218	1.98364e-05
3805.49	0.559967	6.40869e-06
3806.39	0.561096	2.74658e-07
3807.29	0.561584	8.11768e-06
3808.13	0.561462	-5.5542e-06
3809.03	0.561371	-2.74658e-07
3809.93	0.56012	1.69983e-05
3810.79	-0.697937	-0.0248138
3811.67	0.560211	5.95093e-06
3812.57	0.561615	3.60107e-06
3813.43	-0.698822	-0.0182404
3814.31	0.560577	2.53296e-06
3815.21	0.560089	1.26343e-05
3816.09	0.000805664	0.00727722
3816.95	0.560242	4.66919e-06
3817.85	0.56015	9.82666e-06
3818.73	-0.000531006	0.00417664
3819.59	0.560181	4.24194e-06
3820.49	0.561523	2.04468e-06
3821.39	0.559296	0.0169037
3822.23	0.560699	-1.64795e-06
3823.13	0.560181	8.36182e-06
3824.03	0.560791	0.00904541
3824.87	0.561401	-4.48608e-06
3825.77	0.560059	9.52148e-06
3826.67	0.56012	0.000207977
3827.51	0.561554	-4.08936e-06
3828.41	0.560669	1.95313e-06
3829.31	0.560516	4.28162e-05
3830.15	0.560608	-3.05176e-07
3831.05	0.561523	-1.7395e-06
3831.95	0.561584	1.64185e-05
3832.79	0.561371	-4.36401e-06
3833.69	0.561462	-2.22778e-06
3834.59	0.560577	1.62354e-05
3835.43	0.561157	-1.28174e-06
3836.33	0.560272	3.9978e-06
3837.23	0.561249	6.16455e-06
3838.09	-0.697144	-0.0248474
3838.97	0.561676	-4.54712e-06
3839.87	0.560364	1.23596e-05
3840.73	-0.697845	-0.0182892
3841.61	0.560883	-1.15967e-06
3842.51	0.560455	1.01624e-05
3843.39	-0.000305176	0.00726593
3844.25	0.560242	3.26538e-06
3845.15	0.560486	9.00269e-06
3846.03	0.00039978	0.00417053
3846.89	0.560455	8.54492e-07
3847.79	0.560089	9.79614e-06
3848.69	0.559204	0.0169067
3849.53	0.560944	1.2207e-07
3850.43	0.561432	9.76562e-07
3851.33	0.561218	0.00913391
3852.17	0.561432	-5.34058e-06
3853.07	0.560211	7.04956e-06
3853.97	0.560089	0.000217316
3854.81	0.56134	-2.7771e-06
3855.71	0.560181	8.66699e-06
3856.61	0.561401	3.82385e-05
3857.45	0.561615	-6.83594e-06
3858.35	0.561462	-3.38745e-06
3859.25	0.560699	2.37427e-05
3860.09	0.560425	2.68555e-06
3860.99	0.559998	7.72095e-06
3861.89	0.560181	1.9165e-05
3862.73	0.56015	2.50244e-06
3863.63	0.560242	5.00488e-06
3864.53	0.560181	1.49231e-05
3865.39	-0.697571	-0.0248413
3866.27	0.56012	5.79834e-06
3867.17	0.560608	1.07422e-05
3868.03	-0.699066	-0.0183044
3868.91	0.560242	5.43213e-06
3869.81	0.560059	1.2085e-05
3870.69	0.000765991	0.00723694
3871.55	0.560089	5.58472e-06
3872.45	0.561615	-8.54492e-07
3873.33	-2.44141e-05	0.00415833
3874.19	0.560272	6.62231e-06
3875.09	0.560059	1.01929e-05
3875.99	0.559692	0.016925
3876.83	0.561523	-5.58472e-06
3877.73	0.561005	1.37329e-06
3878.63	0.561157	0.00918579
3879.47	0.561157	-3.90625e-06
3880.37	0.560303	8.02612e-06
3881.27	0.560089	0.000221588
3882.11	0.561432	-4.24194e-06
3883.01	0.56012	9.18579e-06
3883.91	0.56012	4.67224e-05
3884.75	0.560028	4.73022e-06
3885.65	0.560028	7.65991e-06
3886.55	0.561462	1.66321e-05
3887.39	0.560303	3.38745e-06
3888.29	0.560944	1.64795e-06
3889.19	0.560059	2.13318e-05
3890.03	0.561157	-1.5564e-06
3890.93	0.560211	7.50732e-06
3891.83	0.561584	5.79834e-06
3892.69	-0.697388	-0.0248749
3893.57	0.561188	-1.49536e-06
3894.47	0.56012	1.51062e-05
3895.33	-0.697845	-0.0183472
3896.21	0.559998	7.99561e-06
3897.11	0.561462	1.15967e-06
3897.99	-1.2207e-05	0.00721924
3898.85	0.561127	-2.0752e-06
3899.75	0.561493	6.10352e-07
3900.63	0.000567627	0.0041452
3901.49	0.560059	6.01196e-06
3902.39	0.560089	9.73511e-06
3903.29	0.559845	0.0169342
3904.13	0.56012	5.43213e-06
3905.03	0.560181	7.04956e-06
3905.93	0.560181	0.00925903
3906.77	0.560394	2.53296e-06
3907.67	0.561066	4.97437e-06
3908.57	0.561523	0.000218781
3909.41	0.561707	-4.05884e-06
3910.31	0.56076	4.21143e-06
3911.21	0.560364	4.3457e-05
3912.05	0.560089	5.12695e-06
3912.95	0.560089	8.57544e-06
3913.85	0.56073	2.24609e-05
3914.69	0.561646	-7.17163e-06
3915.59	0.560455	3.66211e-06
3916.49	0.561584	9.552e-06
3917.33	0.56015	3.69263e-06
3918.23	0.561432	-3.08228e-06
3919.13	0.560822	1.01013e-05
3919.99	-0.697174	-0.024881
3920.87	0.560699	1.67847e-06
3921.77	0.560089	1.29395e-05
3922.63	-0.697937	-0.0183624
3923.51	0.560303	4.60815e-06
3924.41	0.560791	8.81958e-06
3925.29	0.000762939	0.00719025
3926.15	0.561432	-3.87573e-06
3927.05	0.560089	1.16272e-05
3927.93	0.000924683	0.00413727
3928.79	0.561432	-3.87573e-06
3929.69	0.560028	1.06201e-05
3930.59	0.559723	0.0169464
3931.43	0.560883	-3.08228e-06
3932.33	0.560425	5.37109e-06
3933.23	0.560059	0.00934448
3934.07	0.560272	3.96729e-06
3934.97	0.560608	5.34058e-06
3935.87	0.560181	0.000234528
3936.71	0.560089	4.76074e-06
3937.61	0.561462	-2.2583e-06
3938.51	0.561096	4.18091e-05
3939.35	0.561218	-3.87573e-06
3940.25	0.560364	4.05884e-06
3941.15	0.560547	1.97754e-05
3941.99	0.560059	4.79126e-06
3942.89	0.560028	7.2937e-06
3943.79	0.560272	1.84326e-05
3944.63	0.560699	-3.05176e-08
3945.53	0.561615	-2.31934e-06
3946.43	0.560669	1.28174e-05
3947.29	-0.697662	-0.0248871
3948.17	0.560028	6.16455e-06
3949.07	0.560547	9.27734e-06
3949.93	-0.699005	-0.0183899
3950.81	0.561188	-1.43433e-06
3951.71	0.560028	1.26343e-05
3952.59	0.000674438	0.00717346
3953.45	0.561096	-7.62939e-07
3954.35	0.560272	9.46045e-06
3955.23	-0.000518799	0.0041391
3956.09	0.561371	-2.99072e-06
3956.99	0.561157	2.68555e-06
3957.89	0.559113	0.0169464
3958.73	0.560272	4.66919e-06
3959.63	0.561676	-2.28882e-06
3960.53	0.561005	0.00939026
3961.37	0.560913	-1.2207e-06
3962.27	0.560577	3.87573e-06
3963.17	0.561646	0.000231842
3964.01	0.561523	-4.91333e-06
3964.91	0.560028	7.53784e-06
3965.81	0.560333	4.6936e-05
3966.65	0.560059	6.83594e-06
3967.55	0.560547	5.12695e-06
3968.45	0.559998	2.64282e-05
3969.29	0.561127	-2.56348e-06
3970.19	0.560303	4.94385e-06
3971.09	0.560089	2.01416e-05
3971.93	0.560608	4.57764e-07
3972.83	0.560883	-1.2207e-07
3973.73	0.560089	1.62048e-05
3974.59	-0.698425	-0.0249084
3975.47	0.560822	1.70898e-06
3976.37	0.560059	1.15967e-05
3977.23	-0.697845	-0.0184357
3978.11	0.560242	3.78418e-06
3979.01	0.560059	1.22986e-05
3979.89	-0.000476074	0.00716003
3980.75	0.561218	-6.10352e-08
3981.65	0.560242	7.23267e-06
3982.53	-0.000534058	0.00412384
3983.39	0.560303	2.86865e-06
3984.29	0.560272	7.84302e-06
3985.19	0.559845	0.0169525
3986.03	0.561249	-2.44141e-06
3986.93	0.561066	8.23975e-07
3987.83	0.560577	0.00944824
3988.67	0.560303	4.85229e-06
3989.57	0.560699	5.09644e-06
3990.47	0.559998	0.000250244
3991.31	0.560455	2.71606e-06
3992.21	0.561554	-2.41089e-06
3993.11	0.561432	3.94897e-05
3993.95	0.56076	4.88281e-07
3994.85	0.559906	7.96509e-06
3995.75	0.561554	1.77002e-05
3996.59	0.561676	-4.45557e-06
3997.49	0.561523	-2.99072e-06
3998.39	0.560028	2.03857e-05
3999.23	0.560791	1.31226e-06
4000.13	0.560608	4.79126e-06
4001.03	0.560425	1.31226e-05
4001.89	-0.697144	-0.0249329
4002.77	0.561432	-3.96729e-06
4003.67	0.56015	1.297e-05
4004.53	-0.697418	-0.0184601
4005.41	0.561554	-3.96729e-06
4006.31	0.560333	9.91821e-06
4007.19	-0.000494385	0.00713837
4008.05	0.56076	8.8501e-07
4008.95	0.561401	1.25122e-06
4009.83	-0.000146484	0.00411835
4010.69	0.560028	6.53076e-06
4011.59	0.561157	2.04468e-06
4012.49	0.560699	0.0169647
4013.33	0.560242	5.24902e-06
4014.23	0.560455	5.46265e-06
4015.13	0.561157	0.00950623
4015.97	0.560516	3.87573e-06
4016.87	0.561127	2.7771e-06
4017.77	0.560608	0.000252441
4018.61	0.561493	-5.98145e-06
4019.51	0.56076	3.54004e-06
4020.41	0.560547	4.84619e-05
4021.25	0.56012	5.79834e-06
4022.15	0.560211	6.89697e-06
4023.05	0.561218	1.98975e-05
4023.89	0.560547	-3.05176e-08
4024.79	0.560394	5.21851e-06
4025.69	0.561523	8.94165e-06
4026.53	0.56012	5.43213e-06
4027.43	0.560913	1.2207e-06
4028.33	0.561218	8.60596e-06
4029.19	-0.697296	-0.0249451
4030.07	0.560211	5.15747e-06
4030.97	0.560089	1.32141e-05
4031.83	-0.697571	-0.0184875
4032.71	0.56131	-2.59399e-06
4033.61	0.560852	9.33838e-06
4034.49	-0.000335693	0.0071228
4035.35	0.56076	-1.19019e-06
4036.25	0.561462	5.49316e-07
4037.13	6.71387e-05	0.00410553
4037.99	0.561523	-3.11279e-06
4038.89	0.559967	9.39941e-06
4039.79	0.559174	0.016983
4040.63	0.560303	5.46265e-06
4041.53	0.560883	2.99072e-06
4042.43	0.560303	0.00958862
4043.27	0.561066	-1.61743e-06
4044.17	0.560272	7.72095e-06
4045.07	0.560883	0.000259094
4045.91	0.560974	1.40381e-06
4046.81	0.560516	2.28882e-06
4047.71	0.561401	4.14429e-05
4048.55	0.560181	5.43213e-06
4049.45	0.560333	4.15039e-06
4050.35	0.560059	2.85645e-05
4051.19	0.561279	-3.78418e-06
4052.09	0.560181	7.01904e-06
4052.99	0.56012	1.88599e-05
4053.83	0.560059	5.27954e-06
4054.73	0.56015	6.80542e-06
4055.63	0.561188	1.04675e-05
4056.49	-0.698273	-0.0249542
4057.37	0.561615	-2.92969e-06
4058.27	0.560699	9.18579e-06
4059.13	-0.698578	-0.0185059
4060.01	0.560181	5.24902e-06
4060.91	0.561371	1.34277e-06
4061.79	-0.000350952	0.00709961
4062.65	0.561554	-6.04248e-06
4063.55	0.561218	2.04468e-06
4064.43	0.000509644	0.00409058
4065.29	0.560089	6.37817e-06
4066.19	0.561554	-1.40381e-06
4067.09	0.559204	0.0169952
4067.93	0.560516	2.83813e-06
4068.83	0.560608	5.76782e-06
4069.73	0.559662	0.0096283
4070.57	0.560791	0
4071.47	0.561493	-2.10571e-06
4072.37	0.560364	0.000271729
4073.21	0.561035	-3.05176e-08
4074.11	0.560242	5.00488e-06
4075.01	0.561371	4.48914e-05
4075.85	0.561127	-1.80054e-06
4076.75	0.56015	6.34766e-06
4077.65	0.561646	1.75476e-05
4078.49	0.560883	-1.64795e-06
4079.39	0.560242	3.63159e-06
4080.29	0.561462	1.04675e-05
4081.13	0.559998	4.45557e-06
4082.03	0.560669	2.28882e-06
4082.93	0.561462	6.04248e-06
4083.79	-0.69751	-0.0249786
4084.67	0.561096	-1.98364e-06
4085.57	0.56012	1.36414e-05
4086.43	-0.698639	-0.0185333
4087.31	0.561249	-1.80054e-06
4088.21	0.561554	1.2207e-06
4089.09	-0.000466919	0.00707977
4089.95	0.561462	-3.41797e-06
4090.85	0.56131	2.71606e-06
4091.73	0.000344849	0.00408936
4092.59	0.561493	-3.90625e-06
4093.49	0.561279	8.54492e-07
4094.39	0.559631	0.0170074
4095.23	0.561157	-1.15967e-06
4096.13	0.559967	8.42285e-06
4097.03	0.559998	0.00966492
4097.87	0.559998	6.16455e-06
4098.77	0.561401	-1.98364e-06
4099.67	0.56012	0.00027713
4100.51	0.560089	5.31006e-06
4101.41	0.559998	9.24683e-06
4102.31	0.560577	4.95911e-05
4103.15	0.561279	-5.15747e-06
4104.05	0.561188	-3.96729e-07
4104.95	0.560486	2.55127e-05
4105.79	0.561462	-3.57056e-06
4106.69	0.561096	-9.15527e-08
4107.59	0.560211	1.89514e-05
4108.43	0.560455	-1.52588e-07
4109.33	0.560883	8.23975e-07
4110.23	0.561035	1.04065e-05
4111.09	-0.697998	-0.0249695
4111.97	0.561371	-3.84521e-06
4112.87	0.560242	1.3031e-05
4113.73	-0.698273	-0.0185547
4114.61	0.561035	-3.05176e-07
4115.51	0.56012	1.07727e-05
4116.39	-0.000274658	0.00705444
4117.25	0.560272	4.42505e-06
4118.15	0.561157	1.0376e-06
4119.03	0.000704956	0.0040683
4119.89	0.559998	3.66211e-06
4120.79	0.560791	5.64575e-06
4121.69	0.559265	0.0170074
4122.53	0.561005	4.57764e-07
4123.43	0.561462	-1.52588e-07
4124.33	0.561127	0.00970154
4125.17	0.561676	-5.5542e-06
4126.07	0.560028	7.8125e-06
4126.97	0.560059	0.00028421
4127.81	0.561584	-4.88281e-06
4127.95	0.560547	2.86865e-06