File: Edgar/20240607/20240607/electrodeposition_pulsed_potential_20240607_A/pulses_0_to_1000.txt
Time (s)	WE(1).Potential (V)	WE(1).Current (A)
183.139	-0.698578	-0.00298035
183.599	0.000500488	3.69263e-06
184.079	-0.000564575	8.23364e-05
184.539	-0.698944	-0.00255859
184.999	0.000796509	9.64355e-06
185.479	6.71387e-05	9.56116e-05
185.939	-0.698822	-0.00274475
186.399	-0.000241089	2.09351e-05
186.879	-0.000222778	0.000125092
187.339	-0.698792	-0.00303711
187.799	0.000350952	3.01208e-05
188.279	0.000582886	0.000140411
188.739	-0.699249	-0.00337738
189.199	8.54492e-05	3.10364e-05
189.679	-0.000363159	0.000167938
190.139	-0.699463	-0.00376007
190.599	-0.000561523	3.8269e-05
191.079	-0.000631714	0.000192108
191.539	-0.699677	-0.00416809
191.999	0.000799561	3.0365e-05
192.479	0.000964355	0.000209137
192.939	-0.69989	-0.00456787
193.399	-0.000360107	4.63257e-05
193.879	-0.000457764	0.000250183
194.339	-0.700012	-0.00497711
194.799	-0.000375366	4.62952e-05
195.279	0.000515747	0.000276154
195.739	-0.698761	-0.00538849
196.199	0.000830078	4.67224e-05
196.679	0.000512695	0.00030658
197.139	-0.698395	-0.00579346
197.599	-0.000183105	5.84717e-05
198.079	0.000894165	0.000349213
198.539	-0.698944	-0.00619751
198.999	0.000863647	6.35376e-05
199.479	-0.000497437	0.000405579
199.939	-0.699097	-0.0066217
200.399	0.000640869	7.27844e-05
200.879	-0.000195313	0.000458099
201.339	-0.69986	-0.00704193
201.799	-0.000411987	8.79517e-05
202.279	0.0003479	0.000527039
202.739	-0.698395	-0.00747894
203.199	0.000631714	9.12476e-05
203.679	0.000595093	0.000594177
204.139	-0.698486	-0.00789795
204.599	0.000338745	8.72498e-05
205.079	-0.000265503	0.000679016
205.539	-0.698364	-0.00829773
205.999	0.000411987	8.90198e-05
206.479	0.000701904	0.000762024
206.939	-0.698761	-0.00865479
207.399	-3.35693e-05	8.79517e-05
207.879	0.00065918	0.000865173
208.339	-0.698517	-0.00900269
208.799	-0.000704956	8.79211e-05
209.279	0.00103149	0.000984192
209.739	-0.699646	-0.00932617
210.199	-0.000442505	8.41064e-05
210.679	0.000756836	0.0011261
211.139	-0.699524	-0.00964661
211.599	0.000808716	6.73218e-05
212.079	0.000817871	0.00129028
212.539	-0.698242	-0.00993042
212.999	-0.000332642	7.40356e-05
213.479	-0.000378418	0.00147491
213.939	-0.699707	-0.0102051
214.399	0.000692749	6.24084e-05
214.879	-0.000311279	0.00168121
215.339	-0.698425	-0.0104675
215.799	-8.54492e-05	6.57959e-05
216.279	0.000561523	0.00189819
216.739	-0.699371	-0.0107056
217.199	0.000546265	5.63965e-05
217.679	0.000814819	0.00214722
218.139	-0.699005	-0.0109497
218.599	2.13623e-05	5.2002e-05
219.079	0.000579834	0.00240234
219.539	-0.698395	-0.0111725
219.999	0.000802612	4.50134e-05
220.479	-0.000384521	0.00267181
220.939	-0.698944	-0.0113831
221.399	0.00071106	4.24194e-05
221.879	0.000656128	0.00293518
222.339	-0.699463	-0.0115875
222.799	-9.15527e-05	4.37622e-05
223.279	-0.00039978	0.00320892
223.739	-0.698273	-0.0117737
224.199	-9.76562e-05	3.91541e-05
224.679	0.000595093	0.00346527
225.139	-0.698334	-0.0119629
225.599	0.000305176	4.12903e-05
226.079	3.66211e-05	0.00373047
226.539	-0.698242	-0.012146
226.999	0.000686646	3.1189e-05
227.479	-0.000323486	0.0039859
227.939	-0.699554	-0.0123077
228.399	-0.000134277	4.02832e-05
228.879	-1.83105e-05	0.00423645
229.339	-0.699463	-0.0124664
229.799	-0.000109863	3.6438e-05
230.279	-0.000161743	0.00447388
230.739	-0.699493	-0.0126251
231.199	-5.49316e-05	3.40881e-05
231.679	-0.000488281	0.00470398
232.139	-0.698486	-0.0127808
232.599	-3.66211e-05	3.40576e-05
233.079	-0.000363159	0.00493134
233.539	-0.698853	-0.0129272
233.999	-0.000213623	2.75574e-05
234.479	0.000790405	0.00513306
234.939	-0.698517	-0.0130737
235.399	-0.000344849	2.734375E-05
235.879	0.000604248	0.00533722
236.339	-0.699463	-0.0131989
236.799	-0.000430298	2.771e-05
237.279	0.000222778	0.00554199
237.739	-0.699463	-0.013324
238.199	0.000814819	2.05688e-05
238.679	-0.00027771	0.00572754
239.139	-0.698975	-0.013443
239.599	0.000668335	2.07214e-05
240.079	0.000708008	0.00590057
240.539	-0.698334	-0.0135803
240.999	0.000430298	1.85547e-05
241.479	-0.000231934	0.00607635
241.939	-0.698578	-0.0136841
242.399	-0.000421143	2.55127e-05
242.879	-0.000262451	0.00624542
243.339	-0.698303	-0.0138123
243.799	0.000305176	1.83411e-05
244.279	0.000894165	0.00639404
244.739	-0.699249	-0.0139008
245.199	3.66211e-05	1.69678e-05
245.679	0.000860596	0.00654602
246.139	-0.698029	-0.0140228
246.599	-0.000228882	2.45056e-05
247.079	-0.000558472	0.00669708
247.539	-0.699402	-0.0141205
247.999	-0.000463867	2.29492e-05
248.479	0.000796509	0.00682953
248.939	-0.698334	-0.0142242
249.399	0.000891113	1.18713e-05
249.879	0.000872803	0.00695984
250.339	-0.698273	-0.0143219
250.799	-0.00067749	2.14233e-05
251.279	-0.000317383	0.00709442
251.739	-0.699127	-0.0144012
252.199	0.000875854	1.06812e-05
252.679	0.000106812	0.00721863
253.139	-0.698151	-0.0145081
253.599	-0.000378418	1.67542e-05
254.079	-0.000500488	0.00734039
254.539	-0.697876	-0.0145935
254.999	-0.000405884	2.28271e-05
255.479	-9.15527e-05	0.0074527
255.939	-0.698364	-0.014682
256.399	-0.000262451	1.85242e-05
256.879	-0.000372314	0.00757141
257.339	-0.698486	-0.0147644
257.799	-0.000567627	2.05688e-05
258.279	0.000756836	0.00766296
258.739	-0.697998	-0.01484375
259.199	0.000360107	9.00269e-06
259.679	-0.000598145	0.00777893
260.139	-0.698059	-0.0149231
260.599	-0.00010376	1.66321e-05
261.079	-0.000302124	0.00786133
261.539	-0.699371	-0.0149872
261.999	-0.000558472	2.05383e-05
262.479	0.000598145	0.00796204
262.939	-0.698975	-0.0150757
263.399	-0.000683594	2.09961e-05
263.879	0.000466919	0.00804749
264.339	-0.698242	-0.0151459
264.799	0.000653076	1.00403e-05
265.279	0.000683594	0.00814514
265.739	-0.698639	-0.0152069
266.199	-0.000558472	2.2583e-05
266.679	-7.62939e-05	0.00823364
267.139	-0.698761	-0.0152802
267.599	-0.000665283	2.06909e-05
268.079	0.000756836	0.00830688
268.539	-0.69809	-0.0153473
268.999	0.000869751	1.03455e-05
269.479	0.000393677	0.00839844
269.939	-0.69809	-0.0154114
270.399	0.000823975	1.0498e-05
270.879	-0.000158691	0.00845947
271.339	-0.698975	-0.0154816
271.799	0.000906372	1.27563e-05
272.279	-0.000689697	0.00853882
272.739	-0.69809	-0.0155548
273.199	0.000186157	1.87988e-05
273.679	-0.000268555	0.00862427
274.139	-0.69812	-0.0156006
274.599	-0.000686646	2.38037e-05
275.079	-0.000170898	0.00869141
275.539	-0.699371	-0.0156616
275.999	-0.000341797	2.30408e-05
276.479	-0.00067749	0.0087616
276.939	-0.699371	-0.0157166
277.399	0.000967407	1.53503e-05
277.879	-0.000424194	0.00882263
278.339	-0.699249	-0.0157684
278.799	-0.000286865	2.28271e-05
279.279	-0.000796509	0.00888367
279.739	-0.698486	-0.0158447
280.199	0.000946045	1.61438e-05
280.679	0.000415039	0.0089386
281.139	-0.699554	-0.0158936
281.599	0.000634766	1.66321e-05
282.079	0.000469971	0.00900269
282.539	-0.699371	-0.0159454
282.999	0.00055542	2.12097e-05
283.479	-0.000750732	0.00906372
283.939	-0.698334	-0.0160095
284.399	0.000619507	1.98975e-05
284.879	0.00017395	0.00910339
285.339	-0.699371	-0.0160492
285.799	0.000970459	1.98975e-05
286.279	0.000653076	0.00916443
286.739	-0.699127	-0.016098
287.199	-0.000421143	2.95715e-05
287.679	-0.000204468	0.00921021
288.139	-0.697754	-0.016153
288.599	0.000494385	2.28271e-05
289.079	-0.00083313	0.00927734
289.539	-0.698669	-0.0161926
289.999	-4.88281e-05	3.12195e-05
290.479	0.000509644	0.00932617
290.939	-0.699463	-0.0162476
291.399	0.000942993	2.39258e-05
291.879	0.000552368	0.0093811
292.339	-0.699341	-0.0162903
292.799	0.000311279	2.75269e-05
293.279	-0.000836182	0.00941772
293.739	-0.698029	-0.0163513
294.199	-0.000109863	3.80249e-05
294.679	0.000772095	0.00947876
295.139	-0.698883	-0.01640625
295.599	0.000512695	3.83301e-05
296.079	0.000405884	0.00950623
296.539	-0.698975	-0.0164307
296.999	-0.000601196	4.22668e-05
297.479	0.000787354	0.00955811
297.939	-0.698212	-0.0164917
298.399	0.00088501	3.24707e-05
298.879	0.000717163	0.00960083
299.339	-0.699402	-0.0165161
299.799	0.000778198	3.41492e-05
300.279	-0.000418091	0.00964661
300.739	-0.697998	-0.0165771
301.199	0.000897217	3.94897e-05
301.679	0.000485229	0.00967712
302.139	-0.699097	-0.0166077
302.599	0.000531006	4.34875e-05
303.079	-0.000646973	0.00973206
303.539	-0.697998	-0.0166595
303.999	-1.52588e-05	4.84314e-05
304.479	-0.000494385	0.00976868
304.939	-0.697723	-0.0166962
305.399	0.000772095	4.79431e-05
305.879	-0.000817871	0.00980225
306.339	-0.697998	-0.0167511
306.799	0.000598145	4.88281e-05
307.279	0.000601196	0.00984802
307.739	-0.699219	-0.0167908
308.199	-0.00045166	5.5542e-05
308.679	0.000701904	0.00986938
309.139	-0.699066	-0.016806
309.599	-0.000561523	6.15234e-05
310.079	-0.000787354	0.00990601
310.539	-0.699005	-0.016861
310.999	0.000430298	5.65186e-05
311.479	-0.000799561	0.00994263
311.939	-0.698273	-0.0169037
312.399	0.000445557	5.94482e-05
312.879	0.000109863	0.00998535
313.339	-0.699371	-0.0169312
313.799	0.000787354	5.859375E-05
314.279	-0.000830078	0.0100037
314.739	-0.697815	-0.0169739
315.199	0.000570679	6.20422e-05
315.679	6.10352e-05	0.0100464
316.139	-0.69931	-0.0169983
316.599	0.000616455	6.20117e-05
317.079	-0.000473022	0.0100739
317.539	-0.697968	-0.0170441
317.999	-0.000524902	7.67822e-05
318.479	0.000613403	0.0100983
318.939	-0.699005	-0.0170776
319.399	0.000894165	6.68335e-05
319.879	-0.000759888	0.0101318
320.339	-0.699219	-0.0171204
320.799	-0.00027771	8.27942e-05
321.279	0.000198364	0.0101624
321.739	-0.697723	-0.0171509
322.199	-0.000588989	8.40149e-05
322.679	0.000817871	0.0101868
323.139	-0.698761	-0.0171906
323.599	-0.000500488	8.04749e-05
324.079	0.000393677	0.0102081
324.539	-0.699188	-0.0172211
324.999	0.000585937	8.05664e-05
325.479	-0.000299072	0.0102356
325.939	-0.697723	-0.0172516
326.399	-0.00057373	9.38721e-05
326.879	-9.15527e-06	0.0102814
327.339	-0.697876	-0.0172913
327.799	-0.00057373	9.58252e-05
328.279	0.000228882	0.0103149
328.739	-0.699127	-0.0173157
329.199	0.000427246	8.79211e-05
329.679	-0.000802612	0.0103241
330.139	-0.699005	-0.0173431
330.599	-0.000210571	9.71375e-05
331.079	0.000769043	0.0103577
331.539	-0.697845	-0.017392
331.999	0.000787354	9.62524e-05
332.479	-0.000765991	0.0103851
332.939	-0.698212	-0.0174194
333.399	-0.000402832	0.000108643
333.879	-0.000900269	0.0104034
334.339	-0.697968	-0.0174591
334.799	0.000753784	0.000102051
335.279	-0.000405884	0.0104187
335.739	-0.698883	-0.0174713
336.199	-0.000259399	0.000113403
336.679	0.000384521	0.0104462
337.139	-0.698761	-0.0175018
337.599	-0.000439453	0.000118744
338.079	-0.000289917	0.0104797
338.539	-0.697876	-0.0175507
338.999	0.00065918	0.000115631
339.479	-0.000201416	0.0105072
339.939	-0.699005	-0.0175781
340.399	0.000875854	0.000116364
340.879	-0.000704956	0.0105225
341.339	-0.697754	-0.0176178
341.799	-0.000143433	0.000130219
342.279	-0.000823975	0.0105408
342.739	-0.697968	-0.01763
343.199	-0.000415039	0.000135315
343.679	-0.000357056	0.0105774
344.139	-0.697937	-0.0176666
344.599	-0.000143433	0.000138489
345.079	-0.000872803	0.0105835
345.539	-0.698273	-0.0177032
345.999	-0.000540161	0.00014389
346.479	0.000152588	0.0106171
346.939	-0.698212	-0.0177307
347.399	-3.96729e-05	0.000144135
347.879	0.00057373	0.0106293
348.339	-0.698761	-0.0177429
348.799	-0.000161743	0.000150848
349.279	-0.00022583	0.0106445
349.739	-0.698303	-0.0177673
350.199	0.000442505	0.000148468
350.679	0.000671387	0.010672
351.139	-0.697662	-0.0178131
351.599	0.000909424	0.000152161
352.079	-0.000213623	0.0106812
352.539	-0.698425	-0.0178314
352.999	0.000747681	0.000152557
353.479	0.000805664	0.0107086
353.939	-0.697693	-0.017865
354.399	0.0010498	0.00015976
354.879	8.8501e-05	0.0107208
355.339	-0.69928	-0.0178802
355.799	0.000372314	0.000168701
356.279	-0.000918579	0.0107544
356.739	-0.699432	-0.0179138
357.199	-0.000390625	0.000173218
357.679	7.32422e-05	0.0107574
358.139	-0.69928	-0.0179413
358.599	-0.000567627	0.00018277
359.079	-1.2207e-05	0.0107941
359.539	-0.699402	-0.0179657
359.999	-0.000683594	0.000185699
360.479	-0.000286865	0.0107971
360.939	-0.699219	-0.0179962
361.399	-2.74658e-05	0.000189575
361.879	0.00020752	0.0108124
362.339	-0.697784	-0.0180237
362.799	0.000137329	0.00018924
363.279	-0.000750732	0.0108368
363.739	-0.698975	-0.0180359
364.199	0.000692749	0.000193909
364.679	0	0.0108459
365.139	-0.697784	-0.0180725
365.599	-0.00039978	0.000205536
366.079	-3.66211e-05	0.0108643
366.539	-0.698303	-0.0181091
366.999	-0.000445557	0.00021051
367.479	0.000323486	0.0108795
367.939	-0.699066	-0.0181183
368.399	-0.000521851	0.00021698
368.879	-0.000546265	0.0108917
369.339	-0.697662	-0.0181458
369.799	-0.000570679	0.000224365
370.279	0.000439453	0.0109222
370.739	-0.698761	-0.0181793
371.199	0.000854492	0.000218781
371.679	0.000717163	0.0109344
372.139	-0.698547	-0.0181885
372.599	-0.00067749	0.000236206
373.079	-0.000921631	0.0109528
373.539	-0.697815	-0.0182281
373.999	-7.93457e-05	0.000237701
374.479	0.000259399	0.0109589
374.939	-0.697845	-0.0182373
375.399	0.000552368	0.000240662
375.879	-0.000213623	0.0109802
376.339	-0.69931	-0.0182617
376.799	-5.18799e-05	0.000243011
377.279	-0.000350952	0.0109985
377.739	-0.69928	-0.0182922
378.199	-0.000289917	0.000255371
378.679	0.000109863	0.0110077
379.139	-0.699097	-0.0183044
379.599	-0.000109863	0.000258545
380.079	-0.000778198	0.0110138
380.539	-0.697754	-0.0183441
380.999	0.000939941	0.000254944
381.479	-0.000875854	0.0110291
381.939	-0.697998	-0.0183685
382.399	0.000701904	0.000261963
382.879	0.000244141	0.0110321
383.339	-0.698608	-0.0183746
383.799	-0.00055542	0.000277649
384.279	-0.000970459	0.0110596
384.739	-0.698669	-0.0184204
385.199	0.000836182	0.000271332
385.679	8.23975e-05	0.011084
386.139	-0.698792	-0.0184143
386.599	-0.000509644	0.000289856
387.079	-0.000149536	0.0110779
387.539	-0.697754	-0.0184509
387.999	0.00100098	0.000290436
388.479	-0.000842285	0.0110992
388.939	-0.698883	-0.0184601
389.399	-0.00012207	0.000298706
389.879	-2.13623e-05	0.0111053
390.339	-0.699036	-0.0184814
390.799	9.46045e-05	0.00030368
391.279	-0.000180054	0.0111359
391.739	-0.697845	-0.0185211
392.199	-4.88281e-05	0.000309998
392.679	-0.000344849	0.0111481
393.139	-0.698273	-0.0185455
393.599	0.000650024	0.000312256
394.079	4.88281e-05	0.011142
394.539	-0.697662	-0.0185547
394.999	-0.000402832	0.000327393
395.479	-0.00012207	0.0111511
395.939	-0.698883	-0.0185608
396.399	0.000143433	0.000325775
396.879	-0.0009552	0.0111786
397.339	-0.698029	-0.0185913
397.799	-0.000540161	0.000339996
398.279	0.000579834	0.0111786
398.739	-0.69928	-0.0186127
399.199	0.000912476	0.000333069
399.679	0.00012207	0.0111847
400.139	-0.699219	-0.018634
400.599	0.000872803	0.000341034
401.079	-0.000827026	0.0112091
401.539	-0.698181	-0.0186523
401.999	-0.000689697	0.000355743
402.479	-0.000863647	0.0112244
402.939	-0.698029	-0.018689
403.399	-0.000134277	0.000363251
403.879	0.000769043	0.0112244
404.339	-0.697998	-0.018689
404.799	-0.000756836	0.000370087
405.279	1.52588e-05	0.0112274
405.739	-0.697968	-0.0187164
406.199	-0.000653076	0.000376587
406.679	0.000363159	0.0112396
407.139	-0.697845	-0.0187317
407.599	6.40869e-05	0.000378235
408.079	-0.000793457	0.011261
408.539	-0.699097	-0.0187592
408.999	-0.000485229	0.000384583
409.479	-0.000213623	0.0112762
409.939	-0.698456	-0.0187744
410.399	0.000939941	0.00038327
410.879	0.000283813	0.0112671
411.339	-0.698364	-0.0187775
411.799	-0.000588989	0.000402252
412.279	0.000595093	0.0112885
412.739	-0.699188	-0.018811
413.199	0.00078125	0.000397003
413.679	0.00038147	0.0112854
414.139	-0.699249	-0.0188202
414.599	0.000863647	0.000405365
415.079	-0.000140381	0.0113159
415.539	-0.697815	-0.0188446
415.999	-0.000686646	0.000417725
416.479	0.000408936	0.0113251
416.939	-0.698364	-0.018869
417.399	-0.000540161	0.000428436
417.879	-0.000881958	0.0113159
418.339	-0.697693	-0.0188812
418.799	0.000424194	0.000424164
419.279	-0.000845337	0.0113373
419.739	-0.697754	-0.0188934
420.199	0.000531006	0.000432648
420.679	0.000341797	0.0113464
421.139	-0.699188	-0.0189178
421.599	0.000769043	0.000438538
422.079	-0.000952148	0.0113434
422.539	-0.697937	-0.0189453
422.999	-0.000186157	0.00045578
423.479	0.00012207	0.0113495
423.939	-0.698944	-0.0189484
424.399	0.0009552	0.000450592
424.879	-0.000634766	0.0113556
425.339	-0.697906	-0.0189728
425.799	-0.00067749	0.000469025
426.279	0.000125122	0.0113647
426.739	-0.698639	-0.018985
427.199	-8.23975e-05	0.00046756
427.679	-0.000915527	0.0113831
428.139	-0.698212	-0.0190033
428.599	-0.000259399	0.000479279
429.079	-0.00106506	0.0113953
429.539	-0.69751	-0.0190216
429.999	0.0009552	0.000484528
430.479	-0.000759888	0.0114075
430.939	-0.697754	-0.0190399
431.399	-0.000509644	0.000493866
431.879	0.000143433	0.0114014
432.339	-0.698059	-0.0190643
432.799	-0.000186157	0.000499786
433.279	0.000521851	0.0114136
433.739	-0.69809	-0.0190826
434.199	0.000524902	0.000510254
434.679	-0.000115967	0.0114075
435.139	-0.699249	-0.0190857
435.599	0.000808716	0.000510864
436.079	-0.000811768	0.011438
436.539	-0.699066	-0.0190979
436.999	0.000811768	0.000514832
437.479	-6.71387e-05	0.0114258
437.939	-0.698975	-0.0191162
438.399	-0.000344849	0.000531311
438.879	-0.000894165	0.0114502
439.339	-0.698792	-0.0191254
439.799	0.00103149	0.000527649
440.279	-0.000341797	0.011438
440.739	-0.698517	-0.0191437
441.199	0.000656128	0.000531311
441.679	5.79834e-05	0.0114471
442.139	-0.699219	-0.019162
442.599	0.000552368	0.000543213
443.079	-0.000878906	0.0114655
443.539	-0.697723	-0.0191833
443.999	0.00100098	0.000545349
444.479	-0.000628662	0.0114685
444.939	-0.697479	-0.0192017
445.399	-0.00045166	0.000555725
445.879	0.000494385	0.0114655
446.339	-0.699188	-0.0192139
446.799	0.00104065	0.000560303
447.279	-0.000616455	0.0114777
447.739	-0.698395	-0.0192291
448.199	0.000177002	0.000572205
448.679	-0.000109863	0.0114777
449.139	-0.699097	-0.0192383
449.599	0.000195313	0.000583191
450.079	0.000540161	0.0114868
450.539	-0.698212	-0.0192719
450.999	-0.000558472	0.000593262
451.479	-0.000439453	0.0115082
451.939	-0.698517	-0.0192871
452.399	2.13623e-05	0.000597839
452.879	-0.000622559	0.0115021
453.339	-0.698975	-0.0192841
453.799	0.000601196	0.000601196
454.279	0.000509644	0.0115021
454.739	-0.698456	-0.0193146
455.199	-0.000308228	0.000614929
455.679	0.00022583	0.0115082
456.139	-0.697906	-0.0193237
456.599	-0.00055542	0.000623169
457.079	-0.000167847	0.0115143
457.539	-0.699127	-0.0193268
457.999	0.000738525	0.000621338
458.479	0.000515747	0.0115295
458.939	-0.69812	-0.0193573
459.399	-0.000228882	0.000635376
459.879	-0.000561523	0.0115234
460.339	-0.697601	-0.0193604
460.799	0.000186157	0.000643616
461.279	0.000570679	0.0115448
461.739	-0.697754	-0.0193909
462.199	0.000326538	0.000641785
462.679	0.000286865	0.0115326
463.139	-0.699066	-0.0193939
463.599	0.000698853	0.000650024
464.079	-0.000756836	0.0115601
464.539	-0.697906	-0.0194214
464.999	0.00112	0.000655518
465.479	0.000363159	0.0115631
465.939	-0.697662	-0.0194275
466.399	0.000817871	0.00065918
466.879	0.000616455	0.011557
467.339	-0.698029	-0.0194489
467.799	-0.000552368	0.000678406
468.279	-5.79834e-05	0.0115784
468.739	-0.697815	-0.0194641
469.199	5.49316e-05	0.000684204
469.679	2.13623e-05	0.0115631
470.139	-0.698395	-0.0194702
470.599	-0.000485229	0.000693665
471.079	-0.000726318	0.0115845
471.539	-0.699036	-0.0194763
471.999	0.00100098	0.000690308
472.479	-0.000714111	0.0115845
472.939	-0.699249	-0.0194855
473.399	0.000561523	0.000694885
473.879	0.000610352	0.0115845
474.339	-0.697632	-0.0195099
474.799	0.000906372	0.000702515
475.279	-7.62939e-05	0.0115845
475.739	-0.698425	-0.0195282
476.199	5.79834e-05	0.000718384
476.679	-0.000790405	0.0115936
477.139	-0.699005	-0.0195343
477.599	0.000387573	0.000717468
478.079	0.00015564	0.0115875
478.539	-0.698242	-0.0195557
478.999	-0.000354004	0.000737305
479.479	-0.000860596	0.0116119
479.939	-0.698883	-0.0195557
480.399	0.000991821	0.000733337
480.879	0.000637817	0.0116119
481.339	-0.69751	-0.0195801
481.799	-0.000363159	0.000752563
482.279	0.000192261	0.0116089
482.739	-0.698517	-0.0195984
483.199	-0.000143433	0.000757751
483.679	-0.000119019	0.0116028
484.139	-0.698425	-0.0196045
484.599	-0.000558472	0.000765991
485.079	-0.000460815	0.0116364
485.539	-0.698303	-0.0196136
485.999	-0.000598145	0.000770264
486.479	0.000668335	0.0116241
486.939	-0.698608	-0.019635
487.399	-0.000518799	0.000779419
487.879	0.000326538	0.0116211
488.339	-0.697815	-0.0196503
488.799	0.000598145	0.000777588
489.279	-0.00072937	0.0116272
489.739	-0.699219	-0.0196564
490.199	0.0011261	0.000785217
490.679	-0.000198364	0.0116302
491.139	-0.699158	-0.0196686
491.599	-0.000442505	0.000800171
492.079	5.49316e-05	0.0116302
492.539	-0.698761	-0.0196777
492.999	-0.00022583	0.000805054
493.479	-0.000817871	0.0116486
493.939	-0.698853	-0.0196899
494.399	0.00115051	0.000805359
494.879	0.000616455	0.0116425
495.339	-0.697937	-0.0197052
495.799	0.000994873	0.000813904
496.279	-0.000927734	0.0116608
496.739	-0.698761	-0.0197083
497.199	-0.000112915	0.0008255
497.679	-0.000686646	0.0116699
498.139	-0.698303	-0.0197205
498.599	0.00110168	0.000827942
499.079	-0.000921631	0.0116699
499.539	-0.698761	-0.0197418
499.999	-5.79834e-05	0.000839844
500.479	-0.000234985	0.011676
500.939	-0.698792	-0.0197479
501.399	-0.000296021	0.00085022
501.879	0.000473022	0.0116638
502.339	-0.698395	-0.0197784
502.799	-0.000515747	0.000856323
503.279	-0.00017395	0.0116638
503.739	-0.697723	-0.0197845
504.199	0.000946045	0.000856018
504.679	-0.00093689	0.0116821
505.139	-0.698883	-0.0197998
505.599	0.000869751	0.000863647
506.079	-0.000411987	0.0116699
506.539	-0.698792	-0.019812
506.999	-0.000311279	0.000884399
507.479	0.00022583	0.0116852
507.939	-0.699036	-0.019809
508.399	-0.000231934	0.000887451
508.879	-0.000177002	0.0116882
509.339	-0.699066	-0.0198334
509.799	0.00098877	0.000887756
510.279	-0.000210571	0.0117035
510.739	-0.698669	-0.0198425
511.199	-0.00015564	0.000904236
511.679	0.000259399	0.0116913
512.139	-0.698151	-0.0198608
512.599	0.000280762	0.000905457
513.079	0.000610352	0.0116943
513.539	-0.69751	-0.01987
513.999	0.000637817	0.000910645
514.479	-5.18799e-05	0.0117096
514.939	-0.697479	-0.0198792
515.399	0.000930786	0.000915833
515.879	-0.000540161	0.0116882
516.339	-0.697906	-0.0198792
516.799	-0.000640869	0.000932007
517.279	-0.000698853	0.0117065
517.739	-0.698639	-0.0198914
518.199	0.000942993	0.000930786
518.679	-0.000350952	0.0117157
519.139	-0.69751	-0.0199158
519.599	0.000726318	0.000938721
520.079	-0.00101013	0.0117126
520.539	-0.697906	-0.0199371
520.999	0.000344849	0.000944519
521.479	0.000326538	0.0117035
521.939	-0.699158	-0.0199219
522.399	0.00102539	0.000952759
522.879	0.000628662	0.0117096
523.339	-0.699036	-0.0199371
523.799	0.00103455	0.000959473
524.279	0.000198364	0.011731
524.739	-0.698914	-0.0199585
525.199	0.000680542	0.000967102
525.679	0.000588989	0.0117157
526.139	-0.698273	-0.0199738
526.599	-0.000646973	0.000982361
527.079	-0.000961304	0.0117279
527.539	-0.697693	-0.0199768
527.999	0.000915527	0.000984192
528.479	-0.000604248	0.011731
528.939	-0.699097	-0.0199829
529.399	0.00101318	0.000989685
529.879	-0.000970459	0.0117218
530.339	-0.69754	-0.0200043
530.799	0.00111694	0.000998535
531.279	-0.000756836	0.0117432
531.739	-0.697632	-0.0200195
532.199	0.0010437	0.00100372
532.679	0.000201416	0.0117279
533.139	-0.698853	-0.0200134
533.599	0.000698853	0.00101227
534.079	0.000302124	0.0117462
534.539	-0.697754	-0.0200287
534.999	-0.000561523	0.00103027
535.479	-0.000823975	0.0117401
535.939	-0.69754	-0.020047
536.399	-0.000265503	0.00103577
536.879	0.00038147	0.011734
537.339	-0.697845	-0.02005
537.799	-0.000152588	0.00104553
538.279	-0.000970459	0.0117432
538.739	-0.698639	-0.0200653
539.199	0.000634766	0.00104614
539.679	-0.000311279	0.0117523
540.139	-0.697388	-0.0200745
540.599	0.000378418	0.00104767
541.079	0.000384521	0.0117523
541.539	-0.698639	-0.0200714
541.999	-0.000448608	0.00106689
542.479	-0.000964355	0.0117554
542.939	-0.698914	-0.0200928
543.399	0.000561523	0.00106567
543.879	0.000506592	0.0117523
544.339	-0.697876	-0.0201141
544.799	0.00102844	0.00107178
545.279	0.00010376	0.0117493
545.739	-0.69751	-0.0201233
546.199	0.00102234	0.0010788
546.679	0.000613403	0.0117523
547.139	-0.698273	-0.0201294
547.599	-0.000180054	0.0010968
548.079	0.000531006	0.0117584
548.539	-0.698944	-0.0201355
548.999	0.000732422	0.00109344
549.479	-0.00093689	0.0117584
549.939	-0.698944	-0.0201385
550.399	0.000439453	0.00109924
550.879	-0.000170898	0.0117493
551.339	-0.697723	-0.020163
551.799	-2.74658e-05	0.00111298
552.279	-0.000689697	0.0117706
552.739	-0.699158	-0.0201599
553.199	-0.000457764	0.00112823
553.679	-0.000811768	0.0117584
554.139	-0.699036	-0.020166
554.599	-0.000460815	0.00113586
555.079	0.000650024	0.0117615
555.539	-0.697601	-0.0201904
555.999	-0.00067749	0.00114197
556.479	0.000604248	0.0117645
556.939	-0.697571	-0.0202057
557.399	0.000537109	0.0011441
557.879	-0.0009552	0.0117767
558.339	-0.699158	-0.0201996
558.799	-0.000473022	0.00115723
559.279	0.000714111	0.0117737
559.739	-0.698334	-0.0202026
560.199	0.000686646	0.00115295
560.679	-0.000790405	0.0117798
561.139	-0.698883	-0.0202148
561.599	-0.000567627	0.00117218
562.079	-0.00088501	0.0117798
562.539	-0.698761	-0.0202179
562.999	-0.000167847	0.00118042
563.479	0.00045166	0.0117828
563.939	-0.697662	-0.0202484
564.399	0.0009552	0.00117554
564.879	0.000247192	0.0117859
565.339	-0.699158	-0.0202454
565.799	0.000775146	0.00118195
566.279	-0.000958252	0.0117889
566.739	-0.6987	-0.0202515
567.199	-0.000402832	0.001203
567.679	0.00043335	0.0117737
568.139	-0.698761	-0.0202698
568.599	0.00104065	0.00119781
569.079	-0.000732422	0.0117767
569.539	-0.699097	-0.0202759
569.999	-5.49316e-05	0.00121033
570.479	-0.0010376	0.0117889
570.939	-0.698761	-0.0202759
571.399	0.000784302	0.00120941
571.879	-0.000131226	0.011795
572.339	-0.699036	-0.0202881
572.799	-0.000524902	0.00123108
573.279	-0.000411987	0.0117798
573.739	-0.698151	-0.0203125
574.199	-0.000170898	0.00123047
574.679	-0.000250244	0.0118042
575.139	-0.698456	-0.0203156
575.599	0.000384521	0.00123962
576.079	0.000613403	0.011792
576.539	-0.697723	-0.0203339
576.999	0.000839233	0.00124817
577.479	-0.000894165	0.0118011
577.939	-0.699097	-0.0203308
578.399	6.40869e-05	0.00125793
578.879	-0.000421143	0.011792
579.339	-0.697632	-0.0203461
579.799	0.0009765625	0.00125519
580.279	-0.000830078	0.011792
580.739	-0.699036	-0.020343
581.199	-0.000375366	0.00127045
581.679	-0.00088501	0.0118042
582.139	-0.698944	-0.0203461
582.599	-0.000640869	0.00127808
583.079	-0.000634766	0.0118103
583.539	-0.699127	-0.0203644
583.999	-0.000415039	0.00128571
584.479	0.000518799	0.0118073
584.939	-0.69873	-0.0203674
585.399	-0.000158691	0.00129089
585.879	-0.000299072	0.0118103
586.339	-0.697906	-0.0203918
586.799	-0.000109863	0.00130219
587.279	-0.000796509	0.0118164
587.739	-0.698822	-0.0203888
588.199	-0.000125122	0.00131256
588.679	-0.00098877	0.0118073
589.139	-0.699036	-0.0203979
589.599	0.000228882	0.00131012
590.079	-0.000958252	0.0118134
590.539	-0.697449	-0.0204193
590.999	-0.000244141	0.00132172
591.479	0.000256348	0.0117981
591.939	-0.698303	-0.0204254
592.399	-0.000192261	0.00132904
592.879	-0.000805664	0.0118195
593.339	-0.698395	-0.0204376
593.799	-0.000387573	0.00134216
594.279	-0.000427246	0.0118195
594.739	-0.698975	-0.0204285
595.199	-0.000119019	0.00134857
595.679	0.000375366	0.0118011
596.139	-0.697601	-0.0204498
596.599	0.000949097	0.00134521
597.079	-0.000900269	0.0118073
597.539	-0.698334	-0.0204559
597.999	0.000366211	0.00135254
598.479	-0.00106201	0.0118134
598.939	-0.698822	-0.0204498
599.399	-7.32422e-05	0.00136444
599.879	-0.000167847	0.0118073
600.339	-0.698883	-0.020459
600.799	0.000881958	0.00136414
601.279	-1.83105e-05	0.0118042
601.739	-0.697632	-0.0204865
602.199	0.00101318	0.00137177
602.679	-0.000619507	0.0118195
603.139	-0.699097	-0.0204803
603.599	0.000253296	0.00138763
604.079	-0.000848389	0.0118164
604.539	-0.697968	-0.0205017
604.999	0.000970459	0.00138794
605.479	-0.00107422	0.0118195
605.939	-0.697906	-0.0205078
606.399	-0.000137329	0.00139893
606.879	-8.23975e-05	0.0118164
607.339	-0.698059	-0.02052
607.799	0.00113831	0.0014032
608.279	-0.000897217	0.0118317
608.739	-0.699066	-0.0205109
609.199	-0.000534058	0.00141907
609.679	-7.62939e-05	0.0118286
610.139	-0.699066	-0.0205139
610.599	3.05176e-05	0.00142487
611.079	-0.000283813	0.0118103
611.539	-0.69754	-0.0205414
611.999	0.000942993	0.00142212
612.479	0.00072937	0.0118225
612.939	-0.69809	-0.0205353
613.399	0.000497437	0.00142975
613.879	0.000445557	0.0118225
614.339	-0.698425	-0.0205536
614.799	-0.00067749	0.00144684
615.279	0.000317383	0.0118134
615.739	-0.697571	-0.0205597
616.199	-0.000564575	0.0014566
616.679	-0.000604248	0.0118195
617.139	-0.698975	-0.0205627
617.599	-0.000350952	0.00146332
618.079	-0.00090332	0.0118286
618.539	-0.698822	-0.0205627
618.999	0.00101013	0.00146057
619.479	0.000604248	0.0118256
619.939	-0.698181	-0.0205719
620.399	0.000839233	0.00146576
620.879	-0.0009552	0.0118286
621.339	-0.698975	-0.020575
621.799	-0.000234985	0.00148712
622.279	-0.000619507	0.0118347
622.739	-0.697479	-0.0205933
623.199	0.000518799	0.0014798
623.679	0.00050354	0.0118195
624.139	-0.697754	-0.0205933
624.599	0.000527954	0.00149323
625.079	0.000442505	0.0118256
625.539	-0.697754	-0.0206146
625.999	0.000958252	0.00149475
626.479	0.000515747	0.0118164
626.939	-0.697937	-0.0206238
627.399	1.2207e-05	0.00151123
627.879	0.000723267	0.0118256
628.339	-0.698059	-0.0206146
628.799	0.000164795	0.00151062
629.279	0.00055542	0.0118256
629.739	-0.697723	-0.0206268
630.199	0.000720215	0.00151276
630.679	-0.000241089	0.0118195
631.139	-0.69754	-0.020639
631.599	-0.000476074	0.00153137
632.079	-0.000704956	0.0118164
632.539	-0.697571	-0.0206543
632.999	0.00032959	0.00153656
633.479	-0.000610352	0.0118347
633.939	-0.699036	-0.0206421
634.399	-0.000491333	0.00154846
634.879	-0.000262451	0.0118195
635.339	-0.699036	-0.0206573
635.799	0.000946045	0.00154266
636.279	0.000161743	0.0118378
636.739	-0.699097	-0.0206604
637.199	0.000247192	0.0015509
637.679	0.000570679	0.0118286
638.139	-0.698639	-0.0206635
638.599	-0.000646973	0.00156982
639.079	0.000515747	0.0118225
639.539	-0.69751	-0.0206787
639.999	-0.000183105	0.00157654
640.479	-0.000656128	0.0118134
640.939	-0.698029	-0.0207001
641.399	0.000338745	0.00157867
641.879	-0.000137329	0.0118378
642.339	-0.698517	-0.0206818
642.799	-0.000534058	0.00158936
643.279	0.000543213	0.0118195
643.739	-0.697449	-0.020697
644.199	-0.000244141	0.00159821
644.679	-0.000991821	0.0118195
645.139	-0.697571	-0.0207031
645.599	-9.76562e-05	0.00159882
646.079	0.000317383	0.0118195
646.539	-0.698944	-0.0207062
646.999	-0.00038147	0.00160614
647.479	-0.000601196	0.0118134
647.939	-0.69751	-0.0207245
648.399	-0.000436401	0.00162018
648.879	9.15527e-06	0.0118317
649.339	-0.698334	-0.0207367
649.799	0.000842285	0.00161743
650.279	0.000619507	0.0118256
650.739	-0.698975	-0.0207214
651.199	-5.49316e-05	0.00162628
651.679	0.000601196	0.0118286
652.139	-0.698425	-0.0207336
652.599	-0.000469971	0.00163605
653.079	0.000564575	0.0118195
653.539	-0.698639	-0.0207336
653.999	-0.000323486	0.00165009
654.479	0.000582886	0.0118256
654.939	-0.698517	-0.0207428
655.399	-0.000656128	0.00165497
655.879	0.000250244	0.0118164
656.339	-0.698242	-0.0207581
656.799	-0.000616455	0.00166046
657.279	0.000628662	0.0118225
657.739	-0.699005	-0.0207581
658.199	1.2207e-05	0.00166138
658.679	0.000354004	0.0118256
659.139	-0.698608	-0.0207611
659.599	-0.00057373	0.0016748
660.079	0.000491333	0.0118195
660.539	-0.697601	-0.0207855
660.999	0.00101624	0.00167084
661.479	0.000250244	0.0118317
661.939	-0.698975	-0.0207916
662.399	-0.000219727	0.00168457
662.88	-0.00101013	0.0118164
663.34	-0.697571	-0.0208038
663.8	0.00112915	0.00168732
664.28	-0.000552368	0.0118317
664.74	-0.698853	-0.0207947
665.2	-0.000567627	0.0017041
665.68	-0.000512695	0.0118164
666.14	-0.697968	-0.0208191
666.6	0.00098877	0.00169952
667.08	0.000338745	0.0118225
667.54	-0.697693	-0.020813
668	-2.13623e-05	0.00171631
668.48	-0.000238037	0.0118286
668.94	-0.697937	-0.020816
669.4	0.000177002	0.0017218
669.88	-0.000366211	0.0118286
670.34	-0.698639	-0.0208191
670.8	-0.000579834	0.00173096
671.28	-0.000570679	0.0118164
671.74	-0.698486	-0.0208344
672.2	0.000686646	0.00172668
672.68	-0.000640869	0.0118317
673.14	-0.698761	-0.0208435
673.6	0.00113525	0.0017334
674.08	0.000476074	0.0118103
674.54	-0.698334	-0.0208344
675	0.000643921	0.00174896
675.48	-0.000839233	0.0118164
675.94	-0.697815	-0.0208618
676.4	0.000393677	0.00175323
676.88	0.000527954	0.0118195
677.34	-0.698578	-0.0208466
677.8	-9.15527e-06	0.00175812
678.28	-0.000146484	0.0118103
678.74	-0.697662	-0.020874
679.2	0.000161743	0.00176849
679.68	-0.000958252	0.0118164
680.14	-0.699036	-0.0208588
680.6	-3.35693e-05	0.00177216
681.08	-0.000878906	0.0118164
681.54	-0.697845	-0.020871
682	-0.000378418	0.00178619
682.48	-0.000430298	0.0118042
682.94	-0.69751	-0.0208832
683.4	-1.52588e-05	0.00178925
683.88	0.000180054	0.0118164
684.34	-0.697998	-0.020874
684.8	0.000741577	0.001796875
685.28	0.000445557	0.0118164
685.74	-0.699066	-0.0208862
686.2	0.000772095	0.0017926
686.68	-0.00083313	0.0118256
687.14	-0.697418	-0.0209015
687.6	-0.00039978	0.00181396
688.08	0.00039978	0.0118073
688.54	-0.698059	-0.0209137
689	-0.000390625	0.00181519
689.48	-0.000125122	0.0118225
689.94	-0.698914	-0.0209076
690.4	0.000708008	0.00181366
690.88	-0.000823975	0.0118103
691.34	-0.697479	-0.0209229
691.8	0.000265503	0.00182922
692.28	-0.00109253	0.0118103
692.74	-0.698212	-0.0209137
693.2	-0.000137329	0.00183777
693.68	0.000527954	0.0118011
694.14	-0.697662	-0.0209351
694.6	-0.000402832	0.0018457
695.08	-0.00093689	0.0118073
695.54	-0.697693	-0.0209412
696	-4.57764e-05	0.00184174
696.48	-0.000952148	0.0118134
696.94	-0.698029	-0.020932
697.4	-0.000524902	0.00186096
697.88	0.000598145	0.0118073
698.34	-0.698364	-0.0209473
698.8	-0.000332642	0.00186584
699.28	-2.74658e-05	0.0118134
699.74	-0.69754	-0.0209564
700.2	-0.000604248	0.00187286
700.68	-0.000759888	0.0118134
701.14	-0.69809	-0.0209503
701.6	0.000915527	0.00186615
702.08	-0.000738525	0.0118011
702.54	-0.698914	-0.0209564
703	0.000473022	0.00187988
703.48	-0.000149536	0.0117889
703.94	-0.698395	-0.0209717
704.4	-0.000283813	0.00189209
704.88	-0.000164795	0.011792
705.34	-0.698792	-0.0209656
705.8	0.000991821	0.00188812
706.28	-0.000436401	0.011792
706.74	-0.697815	-0.0209686
707.2	-2.74658e-05	0.00190002
707.68	-0.000906372	0.0118042
708.14	-0.698029	-0.020993
708.6	0.000970459	0.00190521
709.08	-0.000897217	0.0118103
709.54	-0.698822	-0.0209839
710	0.00111694	0.00190857
710.48	0.000350952	0.0118073
710.94	-0.697845	-0.020993
711.4	-0.000372314	0.00192566
711.88	-0.000961304	0.0118011
712.34	-0.698853	-0.0209991
712.8	-0.000265503	0.00192841
713.28	0.000567627	0.011792
713.74	-0.697418	-0.0210114
714.2	0.00103455	0.00192719
714.68	-0.000204468	0.0118073
715.14	-0.698486	-0.0210022
715.6	-9.76562e-05	0.00194519
716.08	-0.000592041	0.0118073
716.54	-0.699036	-0.0210052
717	-0.000585937	0.00195251
717.48	-0.000613403	0.0118103
717.94	-0.699066	-0.0210175
718.4	-0.000476074	0.00195557
718.88	-0.000708008	0.0117859
719.34	-0.698822	-0.0210144
719.8	-0.000357056	0.00196564
720.28	-0.000692749	0.0118042
720.74	-0.698608	-0.0210205
721.2	0.000521851	0.00196686
721.68	0.000564575	0.0117828
722.14	-0.697479	-0.0210358
722.6	0.000744629	0.00197144
723.08	0.000601196	0.0117859
723.54	-0.697418	-0.0210388
724	0.00112	0.0019754
724.48	0.000558472	0.0117859
724.94	-0.698151	-0.0210388
725.4	0.00110474	0.00198242
725.88	-0.000320435	0.0117981
726.34	-0.698578	-0.0210388
726.8	8.8501e-05	0.00199615
727.28	-0.000698853	0.011792
727.74	-0.698822	-0.0210419
728.2	-0.000161743	0.0020047
728.68	-0.000970459	0.011792
729.14	-0.698944	-0.0210632
729.6	-0.000247192	0.00201019
730.08	-0.00090332	0.011795
730.54	-0.699036	-0.0210632
731	-0.000338745	0.00201721
731.48	-0.00067749	0.011792
731.94	-0.699036	-0.0210724
732.4	-0.00017395	0.00201782
732.88	0.000250244	0.0117737
733.34	-0.69812	-0.0210876
733.8	0.000991821	0.00201843
734.28	0.000769043	0.0117798
734.74	-0.697723	-0.0210724
735.2	-0.000241089	0.00203552
735.68	0.000756836	0.0117798
736.14	-0.697723	-0.0210968
736.6	-0.000524902	0.00204468
737.08	-0.000912476	0.0117828
737.54	-0.697601	-0.0211029
738	0.00105896	0.00203766
738.48	0.000619507	0.0117706
738.94	-0.697327	-0.0210999
739.4	0.000985718	0.00204926
739.88	-0.000735474	0.0117859
740.34	-0.698578	-0.021106
740.8	-0.000714111	0.00206055
741.28	0.000619507	0.0117737
741.74	-0.698273	-0.0210968
742.2	-0.000567627	0.0020694
742.68	-0.00098877	0.0117767
743.14	-0.698212	-0.021109
743.6	0.00027771	0.00207153
744.08	-0.000888062	0.0117798
744.54	-0.699066	-0.021109
745	0.000332642	0.00207275
745.48	-4.88281e-05	0.0117828
745.94	-0.699066	-0.021109
746.4	-0.00032959	0.00208374
746.88	0.000610352	0.0117645
747.34	-0.698303	-0.0211243
747.8	-0.000274658	0.00209442
748.28	-0.000469971	0.0117584
748.74	-0.697632	-0.0211273
749.2	0.000653076	0.00209381
749.68	-0.0010437	0.0117737
750.14	-0.69809	-0.0211426
750.6	0.00102539	0.00209625
751.08	-0.000418091	0.0117554
751.54	-0.698456	-0.0211456
752	0.000979614	0.00210175
752.48	-0.000814819	0.0117737
752.94	-0.697632	-0.0211548
753.4	0.000830078	0.0021109
753.88	0.000521851	0.0117676
754.34	-0.699097	-0.0211426
754.8	0.000515747	0.00212036
755.28	-0.000933838	0.0117645
755.74	-0.697906	-0.0211487
756.2	0.000344849	0.00212952
756.68	-0.000900269	0.0117676
757.14	-0.697906	-0.02117
757.6	0.00100708	0.00212555
758.08	-0.000787354	0.0117676
758.54	-0.697571	-0.0211578
759	-0.000497437	0.00213776
759.48	-0.000692749	0.0117645
759.94	-0.697388	-0.0211731
760.4	0.000213623	0.00214966
760.88	0.000302124	0.0117645
761.34	-0.698151	-0.0211792
761.8	0.000167847	0.00215302
762.28	0.000326538	0.0117615
762.74	-0.698212	-0.0211792
763.2	0.000183105	0.00216003
763.68	0.000579834	0.0117554
764.14	-0.699066	-0.0211761
764.6	0.000863647	0.00216064
765.08	0.000610352	0.0117493
765.54	-0.698669	-0.0211884
766	0.000836182	0.00216675
766.48	0.000418091	0.0117432
766.94	-0.698242	-0.0211975
767.4	8.23975e-05	0.00217896
767.88	-0.000457764	0.0117615
768.34	-0.697876	-0.0211914
768.8	5.79834e-05	0.0021814
769.28	0.000292969	0.0117401
769.74	-0.698456	-0.0212006
770.2	0.000973511	0.00218384
770.68	-0.000408936	0.0117554
771.14	-0.699005	-0.0211945
771.6	0.00101624	0.00218964
772.08	0.000152588	0.0117554
772.54	-0.697693	-0.0212097
773	8.8501e-05	0.00220398
773.48	0.000610352	0.0117523
773.94	-0.698547	-0.0212036
774.4	-0.000637817	0.00221222
774.88	0.000546265	0.0117493
775.34	-0.698273	-0.021228
775.8	-0.000598145	0.00221924
776.28	-0.00107727	0.0117432
776.74	-0.699127	-0.0212189
777.2	0.00050354	0.0022229
777.68	0.000311279	0.0117462
778.14	-0.697235	-0.0212219
778.6	0.000534058	0.00221954
779.08	-0.00083313	0.0117462
779.54	-0.699158	-0.0212311
780	-0.000616455	0.0022403
780.48	-0.000686646	0.0117493
780.94	-0.699005	-0.021228
781.4	0.000891113	0.00223114
781.88	-0.000839233	0.0117462
782.34	-0.698364	-0.0212463
782.8	0.000921631	0.00223694
783.28	-0.000488281	0.0117249
783.74	-0.697632	-0.0212463
784.2	-0.00050354	0.00225677
784.68	0.000494385	0.0117279
785.14	-0.698822	-0.0212372
785.6	0.000286865	0.00225342
786.08	-0.000326538	0.0117401
786.54	-0.699036	-0.0212494
787	0.000256348	0.00225891
787.48	-0.000897217	0.011734
787.94	-0.698639	-0.0212585
788.4	-0.000143433	0.00227264
788.88	0.000289917	0.0117218
789.34	-0.698273	-0.0212555
789.8	-5.79834e-05	0.00227325
790.28	-2.74658e-05	0.0117401
790.74	-0.697632	-0.0212769
791.2	0.000137329	0.00228424
791.68	-0.000415039	0.0117218
792.14	-0.698669	-0.0212585
792.6	-0.000509644	0.00229065
793.08	-7.62939e-05	0.0117371
793.54	-0.69754	-0.0212769
794	0.000909424	0.00228851
794.48	-0.000787354	0.0117249
794.94	-0.698212	-0.021286
795.4	-0.000134277	0.00230316
795.88	0.000778198	0.011731
796.34	-0.697662	-0.0212769
796.8	0.000924683	0.00230042
797.28	-0.000125122	0.011731
797.74	-0.697693	-0.021286
798.2	0.000161743	0.00230804
798.68	-0.00112	0.0117218
799.14	-0.698151	-0.0213043
799.6	-0.000189209	0.00232117
800.08	-0.00110779	0.0117249
800.54	-0.697632	-0.0213043
801	0.000958252	0.00231598
801.48	-0.00102844	0.0117279
801.94	-0.697235	-0.0212982
802.4	0.000430298	0.00232452
802.88	-0.000772095	0.011731
803.34	-0.698395	-0.0212952
803.8	-0.000582886	0.00233826
804.28	0.000289917	0.0117218
804.74	-0.699158	-0.0213104
805.2	0.000640869	0.00233398
805.68	0.000341797	0.0117004
806.14	-0.698914	-0.0213165
806.6	0.00106201	0.00234436
807.08	-0.000128174	0.0116974
807.54	-0.698792	-0.0213165
808	-0.000744629	0.00235626
808.48	-0.0006073	0.0117035
808.94	-0.698975	-0.0213104
809.4	0.000912476	0.00235077
809.88	-0.000967407	0.0117157
810.34	-0.698273	-0.0213226
810.8	0.00100708	0.00235809
811.28	0.000125122	0.0117218
811.74	-0.697754	-0.0213257
812.2	0.000845337	0.0023642
812.68	0.000280762	0.0117126
813.14	-0.697418	-0.0213379
813.6	0.000723267	0.00237
814.08	0.000265503	0.0117096
814.54	-0.69754	-0.0213379
815	0.000836182	0.00237579
815.48	0.000170898	0.0117096
815.94	-0.697693	-0.0213379
816.4	0.000772095	0.00238129
816.88	0.000537109	0.0116974
817.34	-0.69751	-0.0213531
817.8	-0.000531006	0.00239685
818.28	0.000238037	0.0116943
818.74	-0.697784	-0.0213623
819.2	-0.000189209	0.00240021
819.68	0.000469971	0.0117035
820.14	-0.69809	-0.0213501
820.6	0.0006073	0.0023999
821.08	-0.000296021	0.0117096
821.54	-0.698517	-0.021347
822	0.00090332	0.0024057
822.48	-0.000674438	0.0116974
822.94	-0.699036	-0.0213593
823.4	0.00090332	0.00241333
823.88	-9.15527e-05	0.0116913
824.34	-0.698578	-0.0213593
824.8	-3.66211e-05	0.00242218
825.28	-0.00101013	0.0116943
825.74	-0.697449	-0.0213715
826.2	-0.000552368	0.00243622
826.68	0.00012207	0.0116882
827.14	-0.697388	-0.0213898
827.6	-0.000387573	0.00244385
828.08	0.000592041	0.0116943
828.54	-0.698883	-0.0213806
829	0.000881958	0.00243835
829.48	0.000720215	0.0116943
829.94	-0.698975	-0.0213806
830.4	0.000997925	0.00244354
830.88	-6.40869e-05	0.0117004
831.34	-0.698486	-0.0213837
831.8	0.000863647	0.00244781
832.28	-0.00104675	0.0116913
832.74	-0.698761	-0.021405
833.2	0.000708008	0.0024527
833.68	-0.000738525	0.0116882
834.14	-0.697235	-0.0213959
834.6	0.000668335	0.00245911
835.08	-0.000366211	0.0116791
835.54	-0.698975	-0.0213928
836	0.000726318	0.00246948
836.48	3.96729e-05	0.011676
836.94	-0.697388	-0.0214111
837.4	-0.000558472	0.00247803
837.88	0.000509644	0.0116882
838.34	-0.697968	-0.0214203
838.8	-3.05176e-05	0.0024881
839.28	-0.000964355	0.0116882
839.74	-0.698883	-0.021402
840.2	0.00107727	0.00248016
840.68	0.00039978	0.0116699
841.14	-0.697357	-0.0214172
841.6	-0.000723267	0.0024939
842.08	-0.000628662	0.0116852
842.54	-0.6987	-0.021405
843	0.000579834	0.00250061
843.48	-1.52588e-05	0.011673
843.94	-0.697601	-0.0214264
844.4	2.74658e-05	0.00249878
844.88	-0.000375366	0.0116852
845.34	-0.698364	-0.0214233
845.8	-0.000314331	0.0025177
846.28	0.000534058	0.0116669
846.74	-0.697418	-0.0214325
847.2	-0.000631714	0.00252136
847.68	-0.000769043	0.011673
848.14	-0.698792	-0.0214294
848.6	-0.000286865	0.00252655
849.08	-0.000643921	0.0116791
849.54	-0.698639	-0.0214264
850	0.000961304	0.00251923
850.48	4.27246e-05	0.011676
850.94	-0.698822	-0.0214264
851.4	-0.000256348	0.00253754
851.88	-0.000692749	0.0116608
852.34	-0.697479	-0.0214447
852.8	-0.000317383	0.00254364
853.28	0.000384521	0.0116669
853.74	-0.697815	-0.0214539
854.2	-0.000592041	0.00254761
854.68	-0.000109863	0.0116577
855.14	-0.697998	-0.0214539
855.6	-0.00015564	0.00254852
856.08	2.13623e-05	0.0116547
856.54	-0.697754	-0.0214661
857	-7.93457e-05	0.00255371
857.48	0.000405884	0.0116577
857.94	-0.69751	-0.0214661
858.4	-0.00050354	0.00256409
858.88	0.000375366	0.0116547
859.34	-0.697388	-0.0214752
859.8	0.000631714	0.0025592
860.28	0.000302124	0.0116638
860.74	-0.698639	-0.0214569
861.2	-0.000662231	0.00257599
861.68	0.000634766	0.0116547
862.14	-0.698761	-0.02146
862.6	2.44141e-05	0.00257324
863.08	-0.000479126	0.0116516
863.54	-0.699036	-0.0214661
864	-0.000115967	0.00258575
864.48	-0.000973511	0.0116516
864.94	-0.699005	-0.0214691
865.4	0.00057373	0.00258545
865.88	-0.000613403	0.0116608
866.34	-0.697601	-0.0214722
866.8	0.000195313	0.00258972
867.28	0.000604248	0.0116486
867.74	-0.698151	-0.0214844
868.2	-0.000662231	0.00260284
868.68	-0.000979614	0.0116516
869.14	-0.698059	-0.0214752
869.6	0.000259399	0.00259827
870.08	-0.000317383	0.0116364
870.54	-0.698547	-0.0214844
871	0.000494385	0.00260315
871.48	-0.000692749	0.0116394
871.94	-0.697845	-0.0214844
872.4	-0.000506592	0.00261719
872.88	-0.000561523	0.0116516
873.34	-0.698608	-0.0214935
873.8	0.000564575	0.00261353
874.28	-0.000790405	0.0116455
874.74	-0.698975	-0.0214905
875.2	-0.000274658	0.00262543
875.68	0.000460815	0.0116364
876.14	-0.697479	-0.0215027
876.6	0.000875854	0.00262695
877.08	-0.00098877	0.0116425
877.54	-0.698517	-0.0214996
878	-0.000161743	0.00264038
878.48	0.000463867	0.0116302
878.94	-0.69809	-0.0215149
879.4	-0.000531006	0.00264221
879.88	0.000311279	0.0116241
880.34	-0.698059	-0.021521
880.8	-0.000585937	0.0026535
881.28	-0.000698853	0.0116302
881.74	-0.698883	-0.0215149
882.2	0.000195313	0.00265411
882.68	-0.000311279	0.0116364
883.1	0.000192261	0.00040979