File: Edgar/20240607/20240607/electrodeposition_pulsed_potential_20240607_A/pulses_4000_to_5000.txt
Time (s)	WE(1).Potential (V)	WE(1).Current (A)
3019.07	-0.698395	-0.0246765
3019.53	0.00090332	0.00423401
3020.01	-0.000430298	0.0091156
3020.47	-0.697327	-0.0219391
3020.93	5.49316e-05	0.00523743
3021.41	-0.000772095	0.00943909
3021.87	-0.698425	-0.0217865
3022.33	-0.000415039	0.00533386
3022.81	0.000274658	0.00948486
3023.27	-0.698853	-0.0217346
3023.73	-0.000784302	0.00535767
3024.21	-0.00100098	0.00950623
3024.67	-0.698395	-0.0217224
3025.13	-0.000466919	0.00537079
3025.61	-0.00043335	0.00950623
3026.07	-0.697876	-0.0217316
3026.53	-0.000582886	0.00538483
3027.01	-0.000939941	0.00952759
3027.47	-0.697968	-0.0217072
3027.93	0.000247192	0.00538635
3028.41	-0.000930786	0.00953369
3028.87	-0.698822	-0.0217163
3029.33	-0.000357056	0.00539551
3029.81	-0.000210571	0.00953064
3030.27	-0.698639	-0.0217072
3030.73	-2.13623e-05	0.00539764
3031.21	-5.79834e-05	0.00953369
3031.67	-0.698151	-0.0217072
3032.13	-0.000341797	0.00540314
3032.61	-0.000942993	0.00953979
3033.07	-0.698883	-0.0216949
3033.53	0.000827026	0.00539886
3034.01	-0.000210571	0.00953064
3034.47	-0.697266	-0.021698
3034.93	0.000817871	0.00539673
3035.41	-0.000143433	0.00955505
3035.87	-0.697235	-0.021701
3036.33	9.15527e-06	0.00540863
3036.81	0.000268555	0.00953674
3037.27	-0.698059	-0.0216827
3037.73	0.000170898	0.00540894
3038.21	0.00062561	0.00954285
3038.67	-0.697296	-0.0216797
3039.13	-0.000350952	0.00541534
3039.61	0.000723267	0.0095459
3040.07	-0.698059	-0.021698
3040.53	-0.000222778	0.00541718
3041.01	-6.10352e-06	0.00953674
3041.47	-0.697357	-0.0216919
3041.93	-0.000354004	0.00541962
3042.41	8.54492e-05	0.00953979
3042.87	-0.69754	-0.0216888
3043.33	-0.000631714	0.00541687
3043.81	0.000439453	0.00955505
3044.27	-0.698853	-0.0216797
3044.73	-0.000488281	0.00542664
3045.21	1.52588e-05	0.00956116
3045.67	-0.698303	-0.0216675
3046.13	-0.000686646	0.0054245
3046.61	-0.000769043	0.00955811
3047.07	-0.698486	-0.0216736
3047.53	-0.000683594	0.00542786
3048.01	0.000674438	0.00954895
3048.47	-0.698303	-0.0216827
3048.93	0.000949097	0.00541687
3049.41	-0.00057373	0.00956116
3049.87	-0.69809	-0.0216888
3050.33	-2.44141e-05	0.00542572
3050.81	-0.00088501	0.009552
3051.27	-0.698914	-0.0216675
3051.73	-0.000524902	0.00543182
3052.21	-0.000897217	0.00955811
3052.67	-0.697723	-0.0216858
3053.13	-0.000415039	0.00542877
3053.61	-0.000350952	0.00955811
3054.07	-0.698059	-0.0216797
3054.53	-0.000350952	0.00543518
3055.01	-0.000738525	0.00953979
3055.47	-0.698944	-0.0216614
3055.93	-0.000723267	0.00543335
3056.41	0.000708008	0.00955811
3056.87	-0.698486	-0.0216614
3057.33	0.000262451	0.00542999
3057.81	-0.000210571	0.00956116
3058.27	-0.697815	-0.0216797
3058.73	-0.000674438	0.00543579
3059.21	-0.000900269	0.009552
3059.67	-0.69809	-0.0216614
3060.13	-0.000320435	0.00543091
3060.61	-0.000204468	0.00954285
3061.07	-0.698608	-0.0216736
3061.53	0.000741577	0.00542328
3062.01	-0.000152588	0.00953369
3062.47	-0.698975	-0.0216644
3062.93	0.00085144	0.0054245
3063.41	0.000601196	0.0095459
3063.87	-0.697845	-0.0216736
3064.33	0.000765991	0.00543213
3064.81	-0.000927734	0.0095459
3065.27	-0.698639	-0.0216583
3065.73	0.000708008	0.00542816
3066.21	0.000820923	0.00954895
3066.67	-0.697449	-0.0216675
3067.13	0.000701904	0.00542786
3067.61	-0.000726318	0.00953674
3068.07	-0.698914	-0.0216553
3068.53	0.000268555	0.00543274
3069.01	-0.000949097	0.0095459
3069.47	-0.69751	-0.0216614
3069.93	-0.000695801	0.00544312
3070.41	4.27246e-05	0.009552
3070.87	-0.697693	-0.0216522
3071.33	0.000839233	0.00543152
3071.81	-0.000219727	0.00953674
3072.27	-0.697449	-0.0216614
3072.73	-0.000259399	0.00544189
3073.21	0.000253296	0.00953064
3073.67	-0.697296	-0.0216675
3074.13	-0.000683594	0.00544464
3074.61	0.000543213	0.00953674
3075.07	-0.698853	-0.0216522
3075.53	0.000842285	0.00543793
3076.01	-0.00093689	0.0095459
3076.47	-0.698517	-0.0216644
3076.93	-0.000662231	0.0054483
3077.41	0.000396729	0.00953369
3077.87	-0.697327	-0.0216675
3078.33	-0.000549316	0.00544281
3078.81	-0.00103455	0.00953979
3079.27	-0.69812	-0.0216522
3079.73	0.00032959	0.00543793
3080.21	0.000561523	0.00953064
3080.67	-0.698944	-0.0216553
3081.13	-0.000192261	0.00544769
3081.61	-0.000552368	0.00954895
3082.07	-0.698975	-0.0216553
3082.53	-0.000613403	0.00544861
3083.01	-0.000717163	0.009552
3083.47	-0.698517	-0.0216644
3083.93	-2.44141e-05	0.00544464
3084.41	-0.000344849	0.00953369
3084.87	-0.698517	-0.0216583
3085.33	0.000863647	0.00543976
3085.81	-0.000164795	0.00954895
3086.27	-0.697388	-0.0216675
3086.73	-0.00062561	0.00545288
3087.21	-0.000521851	0.00952759
3087.67	-0.698639	-0.0216431
3088.13	0.00085144	0.00544678
3088.61	-0.00103149	0.00953369
3089.07	-0.697601	-0.0216644
3089.53	9.15527e-06	0.00544586
3090.01	0.000466919	0.00953064
3090.47	-0.698608	-0.0216461
3090.93	-0.000537109	0.00545715
3091.41	-0.000765991	0.0095459
3091.87	-0.697754	-0.0216675
3092.33	0.000924683	0.00544373
3092.81	0.000598145	0.00952148
3093.27	-0.698944	-0.0216614
3093.73	0.000378418	0.00544525
3094.21	0.000424194	0.00952454
3094.67	-0.697266	-0.0216614
3095.13	0.000119019	0.00544739
3095.61	4.57764e-05	0.00952148
3096.07	-0.698364	-0.0216492
3096.53	0.000848389	0.00544708
3097.01	-0.000238037	0.00952759
3097.47	-0.698242	-0.0216461
3097.93	-0.000714111	0.00545837
3098.41	4.88281e-05	0.00953979
3098.87	-0.698792	-0.0216431
3099.33	0.000924683	0.00544556
3099.81	0.000769043	0.00953674
3100.27	-0.698944	-0.0216492
3100.73	-0.000546265	0.00545776
3101.21	0.000640869	0.00951538
3101.67	-0.698822	-0.0216522
3102.13	-0.000473022	0.00545868
3102.61	0.000439453	0.00951538
3103.07	-0.698151	-0.0216583
3103.53	-0.000115967	0.00545227
3104.01	0.000531006	0.00953064
3104.47	-0.697479	-0.0216644
3104.93	0.000860596	0.00545105
3105.41	-0.000921631	0.00952454
3105.87	-0.698822	-0.02164
3106.33	-0.000131226	0.00546143
3106.81	0.000427246	0.00950928
3107.27	-0.697876	-0.0216431
3107.73	0.000872803	0.00545349
3108.21	-0.000823975	0.00953064
3108.67	-0.697357	-0.0216583
3109.13	0.000698853	0.00545837
3109.61	0.000772095	0.00952759
3110.07	-0.697784	-0.0216461
3110.53	0.000360107	0.00545868
3111.01	0.000787354	0.00951843
3111.47	-0.698456	-0.0216553
3111.93	-0.000457764	0.00546387
3112.41	-0.000524902	0.00953064
3112.87	-0.6987	-0.021637
3113.33	0.000296021	0.00546021
3113.81	-4.27246e-05	0.00952454
3114.27	-0.698853	-0.021637
3114.73	0.00050354	0.00545441
3115.21	0.000643921	0.00951538
3115.67	-0.699066	-0.0216461
3116.13	-0.000430298	0.00546112
3116.61	6.10352e-06	0.00950012
3117.07	-0.699005	-0.0216431
3117.53	0.000598145	0.00545593
3118.01	0.000671387	0.00951233
3118.47	-0.698792	-0.0216461
3118.93	-0.000152588	0.00546478
3119.41	-0.000588989	0.00952148
3119.87	-0.698761	-0.0216461
3120.33	0.00022583	0.0054657
3120.81	-2.13623e-05	0.00952148
3121.27	-0.69751	-0.0216522
3121.73	-0.000683594	0.00546478
3122.21	0.000823975	0.00950928
3122.67	-0.698547	-0.0216339
3123.13	-0.000524902	0.00546631
3123.61	0.000646973	0.00950317
3124.07	-0.697876	-0.0216492
3124.53	0.000595093	0.00545441
3125.01	-9.76562e-05	0.00951538
3125.47	-0.698334	-0.0216278
3125.93	0.000942993	0.00545593
3126.41	-0.000750732	0.00951538
3126.87	-0.697296	-0.0216492
3127.33	6.10352e-05	0.00546082
3127.81	0.000564575	0.00949707
3128.27	-0.697601	-0.0216492
3128.73	-0.000332642	0.00547089
3129.21	-0.000384521	0.00949707
3129.67	-0.698883	-0.0216309
3130.13	0.000448608	0.00545837
3130.61	-0.000735474	0.00951843
3131.07	-0.698395	-0.0216339
3131.53	0.000192261	0.00546783
3132.01	-0.00101013	0.00950623
3132.47	-0.698486	-0.0216492
3132.93	0.000991821	0.00546051
3133.41	0.000619507	0.00950928
3133.87	-0.697662	-0.0216339
3134.33	0.000650024	0.00546112
3134.81	-0.000460815	0.00950928
3135.27	-0.697662	-0.0216461
3135.73	0.0009552	0.00545837
3136.21	0.000531006	0.00949707
3136.67	-0.69873	-0.0216278
3137.13	-0.000674438	0.00547089
3137.61	-0.000930786	0.00950317
3138.07	-0.699005	-0.021637
3138.53	0.000231934	0.0054599
3139.01	-0.000576782	0.00949097
3139.47	-0.697784	-0.0216309
3139.93	0.000924683	0.00546112
3140.41	-0.000100708	0.00951233
3140.87	-0.697296	-0.0216461
3141.33	-0.000576782	0.00547272
3141.81	-0.000463867	0.00949402
3142.27	-0.698944	-0.0216248
3142.73	0.000540161	0.00546814
3143.21	-0.00039978	0.00950928
3143.67	-0.697266	-0.0216431
3144.13	0.00107727	0.00546295
3144.61	9.46045e-05	0.00950012
3145.07	-0.698547	-0.02164
3145.53	-0.000442505	0.00547119
3146.01	0.000262451	0.00948486
3146.47	-0.698242	-0.0216309
3146.93	0.00022583	0.00547119
3147.41	-0.000866699	0.00950317
3147.87	-0.697388	-0.0216339
3148.33	0.000793457	0.00546661
3148.81	-0.000219727	0.00950012
3149.27	-0.697235	-0.0216309
3149.73	0.000930786	0.00546326
3150.21	0.000396729	0.00949707
3150.67	-0.697205	-0.0216339
3151.13	0.000872803	0.00546295
3151.61	0.000234985	0.00950012
3152.07	-0.698914	-0.0216217
3152.53	6.71387e-05	0.00547089
3153.01	0.00038147	0.00949097
3153.47	-0.698822	-0.0216309
3153.93	-0.000616455	0.0054718
3154.41	-0.000167847	0.00949707
3154.87	-0.698914	-0.0216278
3155.33	-0.000314331	0.00546631
3155.81	-1.2207e-05	0.00950317
3156.27	-0.698822	-0.0216339
3156.73	0.000689697	0.00546509
3157.21	-0.000799561	0.00948486
3157.67	-0.697998	-0.021637
3158.13	-6.10352e-06	0.00547363
3158.61	8.23975e-05	0.00949402
3159.07	-0.697296	-0.0216309
3159.53	-0.000418091	0.00547668
3160.01	-0.00071106	0.00950012
3160.47	-0.697906	-0.02164
3160.93	-0.000646973	0.00547821
3161.41	-0.000921631	0.00950012
3161.87	-0.698151	-0.0216217
3162.33	-3.96729e-05	0.0054718
3162.81	-0.000180054	0.00948181
3163.27	-0.698761	-0.0216217
3163.73	0.000869751	0.00546997
3164.21	0.000140381	0.00947571
3164.67	-0.698822	-0.0216248
3165.13	0.000228882	0.00547577
3165.61	0.000320435	0.00947876
3166.07	-0.698822	-0.021637
3166.53	-0.000430298	0.00548462
3167.01	0.000466919	0.00948486
3167.47	-0.697296	-0.0216339
3167.93	0.000933838	0.00547424
3168.41	-0.000540161	0.00947571
3168.87	-0.698486	-0.0216248
3169.33	-0.00017395	0.00547607
3169.81	-0.000268555	0.00947571
3170.27	-0.698242	-0.021637
3170.73	0.000747681	0.00547241
3171.21	0.000546265	0.00947266
3171.67	-0.697235	-0.0216339
3172.13	0.000930786	0.00547363
3172.61	0.000616455	0.00948486
3173.07	-0.699036	-0.0216309
3173.53	-0.000106812	0.00548248
3174.01	-0.000161743	0.00949707
3174.47	-0.697266	-0.021637
3174.93	-0.00065918	0.0054834
3175.41	-0.000698853	0.00949402
3175.87	-0.697296	-0.0216339
3176.33	-0.000372314	0.00548218
3176.81	-0.000500488	0.00949402
3177.27	-0.697357	-0.021637
3177.73	0.000964355	0.00547272
3178.21	-0.00083313	0.00949097
3178.67	-0.698334	-0.0216339
3179.13	0.00104675	0.00547699
3179.61	-0.000930786	0.00948486
3180.07	-0.698608	-0.0216217
3180.53	-0.00055542	0.00548492
3181.01	-0.000537109	0.00949097
3181.47	-0.697388	-0.0216339
3181.93	0.000790405	0.00547516
3182.41	0.000222778	0.0094696
3182.87	-0.698944	-0.0216248
3183.33	-0.000396729	0.00548798
3183.81	5.79834e-05	0.00949097
3184.27	-0.699127	-0.0216278
3184.73	0.000674438	0.00547638
3185.21	0.000186157	0.00946655
3185.67	-0.698853	-0.0216248
3186.13	0.000109863	0.00547974
3186.61	-0.000933838	0.00947571
3187.07	-0.697357	-0.0216278
3187.53	-0.000592041	0.00549042
3188.01	0.000631714	0.00947571
3188.47	-0.698273	-0.0216278
3188.93	-0.000680542	0.00549164
3189.41	0.000585937	0.00947876
3189.87	-0.698853	-0.0216156
3190.33	0.000622559	0.00547668
3190.81	-0.000143433	0.00948486
3191.27	-0.697296	-0.0216248
3191.73	0.0009552	0.00547882
3192.21	-0.00071106	0.00946045
3192.67	-0.698395	-0.0216278
3193.13	0.000912476	0.00548035
3193.61	0.000125122	0.0094635
3194.07	-0.698944	-0.0216125
3194.53	0.000668335	0.00547913
3195.01	0.000308228	0.00946045
3195.47	-0.698303	-0.0216309
3195.93	0.000210571	0.00548767
3196.41	-0.000891113	0.00947571
3196.87	-0.699036	-0.0216217
3197.33	-0.000466919	0.00548767
3197.81	-0.000930786	0.00947876
3198.27	-0.698486	-0.0216125
3198.73	-0.000143433	0.00548981
3199.21	-0.000457764	0.00948486
3199.67	-0.698883	-0.0216125
3200.13	0.000344849	0.00548187
3200.61	-2.13623e-05	0.00946045
3201.07	-0.698883	-0.0216217
3201.53	0	0.00548584
3202.01	-0.000866699	0.00947266
3202.47	-0.697418	-0.0216248
3202.93	0.000915527	0.00548035
3203.41	-0.000802612	0.00947876
3203.87	-0.697601	-0.0216217
3204.33	0.00088501	0.00548218
3204.81	-0.00101624	0.00946655
3205.27	-0.697571	-0.0216187
3205.73	-1.83105e-05	0.00549255
3206.21	0.000637817	0.0094696
3206.67	-0.697632	-0.0216309
3207.13	0.000604248	0.00548553
3207.61	-0.000918579	0.0094696
3208.07	-0.69873	-0.0216064
3208.53	2.13623e-05	0.00549164
3209.01	-5.49316e-05	0.00946045
3209.47	-0.697815	-0.0216064
3209.93	-0.000280762	0.00549194
3210.41	0.000509644	0.00945129
3210.87	-0.698639	-0.0216278
3211.33	0.00083313	0.00548584
3211.81	0.000332642	0.00945435
3212.27	-0.698761	-0.0216187
3212.73	0.000192261	0.00549225
3213.21	0.000720215	0.0094635
3213.67	-0.698914	-0.0216125
3214.13	0.000830078	0.00548767
3214.61	-0.000839233	0.0094635
3215.07	-0.697723	-0.0216248
3215.53	0.000668335	0.00549316
3216.01	0.000741577	0.0094635
3216.47	-0.698029	-0.0216217
3216.93	0.00078125	0.00549103
3217.41	0.000488281	0.00945435
3217.87	-0.69751	-0.0216125
3218.33	0.000894165	0.00548492
3218.81	0.000698853	0.0094635
3219.27	-0.697327	-0.0216187
3219.73	0.000326538	0.00548767
3220.21	0.000485229	0.00945435
3220.67	-0.697449	-0.0216217
3221.13	-0.000595093	0.00549835
3221.61	-5.79834e-05	0.00945435
3222.07	-0.697449	-0.0216095
3222.53	-0.000259399	0.00549744
3223.01	-0.000271606	0.00944824
3223.47	-0.697876	-0.0216034
3223.93	1.2207e-05	0.00549683
3224.41	-8.23975e-05	0.00944824
3224.87	-0.697662	-0.0216125
3225.33	0.000921631	0.00549133
3225.81	-0.000753784	0.0094635
3226.27	-0.697693	-0.0216248
3226.73	0.00072937	0.00549072
3227.21	-0.000939941	0.0094574
3227.67	-0.69754	-0.0216217
3228.13	-0.000485229	0.00550385
3228.61	0.000558472	0.00944824
3229.07	-0.697327	-0.0216187
3229.53	-0.000231934	0.00549591
3230.01	-0.000350952	0.00946655
3230.47	-0.698822	-0.0216095
3230.93	0.000717163	0.00549103
3231.41	2.13623e-05	0.00944824
3231.87	-0.697357	-0.0216187
3232.33	-0.000622559	0.00550568
3232.81	-0.000854492	0.00946045
3233.27	-0.698181	-0.0216156
3233.73	6.10352e-05	0.00550018
3234.21	8.8501e-05	0.00945435
3234.67	-0.697388	-0.0216217
3235.13	0.000280762	0.00549957
3235.61	0.00067749	0.00944824
3236.07	-0.697174	-0.0216095
3236.53	-0.000408936	0.00550476
3237.01	0.000717163	0.00944824
3237.47	-0.697632	-0.0216003
3237.93	-1.52588e-05	0.00549805
3238.41	-0.000634766	0.0094574
3238.87	-0.698273	-0.0216125
3239.33	-0.000238037	0.00550323
3239.81	0.000308228	0.00943909
3240.27	-0.698822	-0.0215912
3240.73	0.000778198	0.00549652
3241.21	-0.000878906	0.00945129
3241.67	-0.697479	-0.0216156
3242.13	0.00108337	0.00549408
3242.61	0.000393677	0.0094574
3243.07	-0.698608	-0.0216034
3243.53	0.000906372	0.00549255
3244.01	-1.2207e-05	0.0094574
3244.47	-0.698792	-0.0216003
3244.93	0.000415039	0.00549652
3245.41	-0.000866699	0.00944824
3245.87	-0.697968	-0.0216003
3246.33	-0.000283813	0.0055014
3246.81	-0.000912476	0.00944824
3247.27	-0.698242	-0.0215973
3247.73	-5.18799e-05	0.00549835
3248.21	0.000335693	0.00943604
3248.67	-0.697662	-0.0215912
3249.13	0.000674438	0.00549438
3249.61	0.00067749	0.00944214
3250.07	-0.698425	-0.0216095
3250.53	0.000662231	0.00550079
3251.01	-0.000775146	0.00944824
3251.47	-0.698578	-0.0216003
3251.93	-0.000253296	0.0055069
3252.41	-0.000881958	0.00944519
3252.87	-0.697601	-0.0216034
3253.33	-0.00022583	0.00550201
3253.81	-3.05176e-06	0.00943298
3254.27	-0.697357	-0.0216064
3254.73	-0.00065918	0.00550903
3255.21	0.00067749	0.00943604
3255.67	-0.698486	-0.0215973
3256.13	0.00103149	0.00549744
3256.61	0.000115967	0.00942993
3257.07	-0.698669	-0.0215973
3257.53	0.000350952	0.00549683
3258.01	-0.000485229	0.00943604
3258.47	-0.698242	-0.0215973
3258.93	0.000927734	0.00549713
3259.41	0.000518799	0.00943604
3259.87	-0.69812	-0.0216003
3260.33	0.000854492	0.00549622
3260.81	0.000402832	0.00944519
3261.27	-0.697449	-0.0216064
3261.73	0.000552368	0.00549835
3262.21	0.000643921	0.00943604
3262.67	-0.698486	-0.0215881
3263.13	-0.000442505	0.00550751
3263.61	0.000341797	0.00942993
3264.07	-0.698853	-0.0215851
3264.53	-0.000497437	0.00550629
3265.01	-0.000146484	0.00942688
3265.47	-0.698334	-0.0215912
3265.93	6.71387e-05	0.00550293
3266.41	0.000228882	0.00942078
3266.87	-0.698303	-0.0215851
3267.33	0.000897217	0.00549957
3267.81	1.83105e-05	0.00942993
3268.27	-0.69809	-0.0215912
3268.73	-0.000540161	0.00550568
3269.21	-0.000839233	0.00944519
3269.67	-0.698669	-0.0215973
3270.13	0.000848389	0.00550079
3270.61	0.000253296	0.00944214
3271.07	-0.698669	-0.0215851
3271.53	-0.000720215	0.00551331
3272.01	0.000808716	0.00943298
3272.47	-0.697571	-0.0215912
3272.93	-0.000680542	0.0055127
3273.41	4.27246e-05	0.00943909
3273.87	-0.697357	-0.0215973
3274.33	-0.000650024	0.00551331
3274.81	-0.000802612	0.00943909
3275.27	-0.697449	-0.0215912
3275.73	-0.00065918	0.00551361
3276.21	-0.00088501	0.00943298
3276.67	-0.697601	-0.0216003
3277.13	-0.000640869	0.00551331
3277.61	-0.00085144	0.00943298
3278.07	-0.698059	-0.021579
3278.53	-0.000567627	0.00551453
3279.01	-0.000836182	0.00943298
3279.47	-0.698486	-0.0215942
3279.93	-0.00045166	0.00551422
3280.41	-0.000769043	0.00943604
3280.87	-0.698944	-0.021582
3281.33	8.8501e-05	0.00551208
3281.81	0.00010376	0.00943298
3282.27	-0.698822	-0.0215729
3282.73	0.000454712	0.00551178
3283.21	0.000616455	0.00942688
3283.67	-0.698395	-0.021579
3284.13	0.000622559	0.00550293
3284.61	-0.000970459	0.00942688
3285.07	-0.697327	-0.0215942
3285.53	-0.000738525	0.00551483
3286.01	0.000595093	0.00943298
3286.47	-0.697845	-0.0215942
3286.93	0.000579834	0.00550934
3287.41	0.000253296	0.00941772
3287.87	-0.698853	-0.0215759
3288.33	0.000909424	0.00550446
3288.81	0.000405884	0.00941467
3289.27	-0.698853	-0.0215759
3289.73	0.000393677	0.00550751
3290.21	-0.000878906	0.00943298
3290.67	-0.697235	-0.0215912
3291.13	0.000540161	0.00551208
3291.61	0.00045166	0.00942688
3292.07	-0.699005	-0.0215851
3292.53	-0.00067749	0.00552002
3293.01	-0.000485229	0.00943298
3293.47	-0.697479	-0.0215942
3293.93	-0.000265503	0.00551605
3294.41	-0.000921631	0.00942688
3294.87	-0.698425	-0.0215759
3295.33	-0.00067749	0.00552063
3295.81	-0.000476074	0.00943298
3296.27	-0.69754	-0.021582
3296.73	-0.000421143	0.00551727
3297.21	-0.000869751	0.00942383
3297.67	-0.698853	-0.0215759
3298.13	0.000576782	0.00551697
3298.61	-0.000567627	0.00941467
3299.07	-0.697815	-0.021579
3299.53	0.000421143	0.00551971
3300.01	-0.000912476	0.00942078
3300.47	-0.697754	-0.021582
3300.93	0.000567627	0.00551666
3301.41	-0.000970459	0.00942383
3301.87	-0.697632	-0.021579
3302.33	0.000680542	0.00551605
3302.81	0.000289917	0.00941162
3303.27	-0.698029	-0.0215729
3303.73	-0.00062561	0.0055249
3304.21	-0.000769043	0.00942688
3304.67	-0.697723	-0.0215881
3305.13	0.000894165	0.00551361
3305.61	0.000512695	0.00941162
3306.07	-0.697876	-0.0215942
3306.53	-0.00022583	0.00552551
3307.01	-0.000878906	0.00942688
3307.47	-0.698761	-0.0215729
3307.93	0.000720215	0.00551788
3308.41	-0.000717163	0.00942993
3308.87	-0.697571	-0.0215912
3309.33	0.00027771	0.00551666
3309.81	0.000668335	0.00941772
3310.27	-0.697632	-0.021579
3310.73	0.000366211	0.00551575
3311.21	0.00065918	0.00941772
3311.67	-0.697693	-0.0215759
3312.13	0.000140381	0.0055188
3312.61	0.000332642	0.00940552
3313.07	-0.697998	-0.0215759
3313.53	0.000842285	0.00551544
3314.01	0.000384521	0.00940552
3314.47	-0.698395	-0.0215759
3314.93	-0.000335693	0.00551941
3315.41	5.79834e-05	0.00942993
3315.87	-0.698395	-0.021582
3316.33	-0.000183105	0.00552887
3316.81	-0.000100708	0.00941162
3317.27	-0.69809	-0.0215729
3317.73	1.2207e-05	0.00551971
3318.21	-0.000411987	0.00942993
3318.67	-0.697449	-0.0215759
3319.13	0.000149536	0.00552155
3319.61	5.18799e-05	0.00940247
3320.07	-0.697388	-0.0215851
3320.53	-3.66211e-05	0.00552124
3321.01	0.000521851	0.00940552
3321.47	-0.697388	-0.021582
3321.93	-0.000289917	0.0055249
3322.41	0.000720215	0.00941467
3322.87	-0.697418	-0.0215729
3323.33	-0.00067749	0.0055304
3323.81	0.000631714	0.00940857
3324.27	-0.697266	-0.0215851
3324.73	-0.000646973	0.00553101
3325.21	0.000671387	0.00941162
3325.67	-0.698395	-0.021582
3326.13	-0.00045166	0.00553192
3326.61	0.000613403	0.00941162
3327.07	-0.6987	-0.0215637
3327.53	0.000482178	0.00552429
3328.01	7.32422e-05	0.00939941
3328.47	-0.697784	-0.021582
3328.93	-0.000561523	0.00552887
3329.41	-0.00065918	0.00941772
3329.87	-0.698914	-0.0215759
3330.33	-2.13623e-05	0.00553223
3330.81	0.000512695	0.00941467
3331.27	-0.697662	-0.0215637
3331.73	6.10352e-06	0.00552124
3332.21	-0.000805664	0.00942078
3332.67	-0.698639	-0.0215759
3333.13	0.000393677	0.00553192
3333.61	0.00043335	0.00940247
3334.07	-0.698303	-0.0215576
3334.53	0.000839233	0.00552216
3335.01	9.46045e-05	0.00941467
3335.47	-0.69751	-0.0215637
3335.93	0.000540161	0.00552765
3336.41	0.00067749	0.00940857
3336.87	-0.697327	-0.0215729
3337.33	-6.71387e-05	0.00553192
3337.81	0.000582886	0.00941467
3338.27	-0.698578	-0.0215729
3338.73	0.000744629	0.00552582
3339.21	0.000268555	0.00941772
3339.67	-0.697662	-0.0215607
3340.13	0.000445557	0.00552917
3340.61	-0.000408936	0.00941772
3341.07	-0.698639	-0.0215607
3341.53	-0.000262451	0.00553009
3342.01	-0.00020752	0.00940247
3342.47	-0.698792	-0.0215576
3342.93	0.000906372	0.00552429
3343.41	0.000402832	0.00939941
3343.87	-0.698761	-0.0215607
3344.33	0.00071106	0.00552887
3344.81	0.000701904	0.00940247
3345.27	-0.698639	-0.0215607
3345.73	0.00085144	0.00552765
3346.21	0.000708008	0.00939941
3346.67	-0.697571	-0.0215668
3347.13	0.00055542	0.00553558
3347.61	0.000735474	0.00940552
3348.07	-0.697479	-0.0215759
3348.53	0.00101318	0.00552826
3349.01	0.000784302	0.00940247
3349.47	-0.698364	-0.0215729
3349.93	0	0.00553802
3350.41	-0.000701904	0.00941162
3350.87	-0.69751	-0.0215607
3351.33	-0.000109863	0.00553375
3351.81	0.000494385	0.00940857
3352.27	-0.698853	-0.0215546
3352.73	0.000939941	0.00552734
3353.21	-0.000540161	0.00941772
3353.67	-0.697632	-0.0215759
3354.13	-0.000643921	0.00554169
3354.61	-0.00090332	0.00940552
3355.07	-0.697266	-0.0215729
3355.53	0.000570679	0.00553253
3356.01	0.000656128	0.00939941
3356.47	-0.697205	-0.0215668
3356.93	-0.000704956	0.00554047
3357.41	-7.62939e-05	0.00941162
3357.87	-0.69751	-0.0215698
3358.33	-0.000534058	0.00554138
3358.81	0.000646973	0.00940247
3359.27	-0.698486	-0.0215546
3359.73	0.000680542	0.00553345
3360.21	0.000546265	0.00940552
3360.67	-0.697296	-0.0215729
3361.13	-0.000521851	0.00554016
3361.61	-7.93457e-05	0.00941772
3362.07	-0.697998	-0.0215607
3362.53	4.88281e-05	0.00553284
3363.01	-0.000628662	0.00941467
3363.47	-0.697937	-0.0215546
3363.93	-0.000387573	0.00554535
3364.41	0.000161743	0.00939026
3364.87	-0.698547	-0.0215454
3365.33	-0.000646973	0.005546875
3365.81	-8.8501e-05	0.00939636
3366.27	-0.698395	-0.0215607
3366.73	0.0010437	0.0055365
3367.21	-0.000469971	0.00940857
3367.67	-0.697357	-0.0215637
3368.13	0.000650024	0.00553467
3368.61	0.000598145	0.00939941
3369.07	-0.698853	-0.0215576
3369.53	-0.000418091	0.00554535
3370.01	-0.000708008	0.00940552
3370.47	-0.697449	-0.0215698
3370.93	-0.000564575	0.00554352
3371.41	-0.000900269	0.00940552
3371.87	-0.697418	-0.0215729
3372.33	-0.000238037	0.00554626
3372.81	-0.00010376	0.00940857
3373.27	-0.699036	-0.0215607
3373.73	0.000552368	0.00554199
3374.21	0.00055542	0.00938721
3374.67	-0.697357	-0.0215637
3375.13	-0.00071106	0.00554718
3375.61	-0.000521851	0.00941162
3376.07	-0.697693	-0.0215698
3376.53	0.000436401	0.00553741
3377.01	-0.000918579	0.00939941
3377.47	-0.697571	-0.0215668
3377.93	-0.000534058	0.00554596
3378.41	-0.000610352	0.00940552
3378.87	-0.698578	-0.0215576
3379.33	-0.000680542	0.00554901
3379.81	0.000378418	0.00939941
3380.27	-0.698334	-0.0215485
3380.73	-0.000314331	0.00555145
3381.21	-0.000842285	0.00939636
3381.67	-0.698914	-0.0215485
3382.13	-7.93457e-05	0.00555115
3382.61	-0.00088501	0.00940247
3383.07	-0.698517	-0.0215729
3383.53	0.000558472	0.00555145
3384.01	0.000598145	0.00940552
3384.47	-0.698334	-0.0215515
3384.93	0.000650024	0.00554413
3385.41	-0.000854492	0.00939941
3385.87	-0.698364	-0.0215759
3386.33	0.000613403	0.00554596
3386.81	-0.000930786	0.00940552
3387.27	-0.698853	-0.0215546
3387.73	-3.05176e-05	0.00554962
3388.21	0.000509644	0.00939941
3388.67	-0.698639	-0.0215515
3389.13	-4.57764e-05	0.0055545
3389.61	-0.000836182	0.00939941
3390.07	-0.699005	-0.0215515
3390.53	0.00065918	0.00554474
3391.01	0.000497437	0.00939636
3391.47	-0.697601	-0.0215698
3391.93	-0.000454712	0.00555908
3392.41	-0.000891113	0.00939331
3392.87	-0.697235	-0.0215607
3393.33	0.000906372	0.0055484
3393.81	0.000540161	0.00939331
3394.27	-0.697601	-0.0215668
3394.73	-0.000192261	0.00555237
3395.21	0.000241089	0.00939026
3395.67	-0.698456	-0.0215607
3396.13	0.00015564	0.00554932
3396.61	-0.000509644	0.00939331
3397.07	-0.698853	-0.0215454
3397.53	0.000109863	0.00554871
3398.01	-0.000961304	0.00939331
3398.47	-0.698212	-0.0215454
3398.93	-0.000695801	0.0055545
3399.41	-0.000436401	0.00939941
3399.87	-0.69809	-0.0215424
3400.33	-0.00038147	0.00555237
3400.81	-0.000268555	0.00939941
3401.27	-0.698883	-0.0215424
3401.73	-0.000714111	0.00555939
3402.21	-0.000494385	0.00939636
3402.67	-0.698334	-0.0215546
3403.13	-0.00057373	0.00555695
3403.61	0.000515747	0.00939331
3404.07	-0.698029	-0.0215424
3404.53	0.000787354	0.00554962
3405.01	-0.000280762	0.00940247
3405.47	-0.698639	-0.0215393
3405.93	0.000442505	0.00554962
3406.41	-0.000952148	0.00939026
3406.87	-0.697937	-0.0215576
3407.33	0.000772095	0.00555267
3407.81	6.10352e-05	0.00937805
3408.27	-0.698639	-0.0215332
3408.73	-0.000662231	0.00556122
3409.21	0.000662231	0.00937805
3409.67	-0.697998	-0.0215393
3410.13	0.000231934	0.00555115
3410.61	-5.79834e-05	0.00939026
3411.07	-0.698547	-0.0215302
3411.53	0.000637817	0.00555359
3412.01	-0.000888062	0.00938721
3412.47	-0.698029	-0.0215363
3412.93	-0.00057373	0.00555847
3413.41	0.000247192	0.00937805
3413.87	-0.69751	-0.0215576
3414.33	0.000860596	0.00554962
3414.81	0.000695801	0.00938416
3415.27	-0.698151	-0.0215485
3415.73	7.93457e-05	0.00555481
3416.21	-0.000592041	0.00937805
3416.67	-0.698395	-0.0215576
3417.13	0.000875854	0.00555176
3417.61	0.000695801	0.00937805
3418.07	-0.697449	-0.0215424
3418.53	-0.000738525	0.00556335
3419.01	-0.000924683	0.00939026
3419.47	-0.698883	-0.0215363
3419.93	-0.000460815	0.00555664
3420.41	-0.000967407	0.00939331
3420.87	-0.697449	-0.0215515
3421.33	0.00100098	0.00555328
3421.81	-0.000946045	0.00937805
3422.27	-0.698883	-0.0215393
3422.73	-0.00022583	0.00556732
3423.21	-0.000640869	0.00939636
3423.67	-0.698975	-0.0215393
3424.13	0.000866699	0.00555542
3424.61	0.000167847	0.0093689
3425.07	-0.698822	-0.0215454
3425.53	-0.000643921	0.00556854
3426.01	-0.000238037	0.00937195
3426.47	-0.697357	-0.0215546
3426.93	0.000720215	0.0055545
3427.41	-0.000805664	0.00937805
3427.87	-0.697784	-0.0215363
3428.33	-0.00062561	0.00556793
3428.81	-0.000744629	0.00939026
3429.27	-0.698914	-0.0215302
3429.73	0.000341797	0.00556152
3430.21	0.00020752	0.00938416
3430.67	-0.698303	-0.021524
3431.13	0.000808716	0.00555908
3431.61	-0.000485229	0.00940247
3432.07	-0.698334	-0.0215546
3432.53	-0.00043335	0.0055719
3433.01	-0.00093689	0.00939636
3433.47	-0.697327	-0.0215698
3433.93	-0.000314331	0.00556519
3434.41	-0.00010376	0.00938721
3434.87	-0.698944	-0.0215546
3435.33	-3.05176e-06	0.00556885
3435.81	-0.000152588	0.00940247
3436.27	-0.697571	-0.021579
3436.73	0.000616455	0.00555847
3437.21	-0.000527954	0.00938721
3437.67	-0.698395	-0.0215637
3438.13	-0.000854492	0.00556976
3438.61	0.000442505	0.00938721
3439.07	-0.698395	-0.0215576
3439.53	-0.000717163	0.00556824
3440.01	-0.000143433	0.0093811
3440.47	-0.698761	-0.0215576
3440.93	-0.000341797	0.00557434
3441.41	-0.00093689	0.00940552
3441.87	-0.697754	-0.0215607
3442.33	-0.000646973	0.00557251
3442.81	0.000369263	0.00940552
3443.27	-0.697479	-0.021579
3443.73	0.000326538	0.00556763
3444.21	0.000643921	0.00939331
3444.67	-0.697479	-0.0215851
3445.13	0.000579834	0.0055661
3445.61	0.000650024	0.00939331
3446.07	-0.697784	-0.021579
3446.53	0.000930786	0.00556335
3447.01	7.93457e-05	0.00939636
3447.47	-0.698273	-0.0215576
3447.93	0.000317383	0.00556946
3448.41	8.23975e-05	0.00939941
3448.87	-0.697205	-0.0215668
3449.33	0.000765991	0.00556427
3449.81	-0.000408936	0.00938416
3450.27	-0.698944	-0.0215637
3450.73	-0.000238037	0.00556915
3451.21	-0.000750732	0.00939026
3451.67	-0.697357	-0.0215668
3452.13	-0.000646973	0.00557312
3452.61	-0.000836182	0.00939941
3453.07	-0.697845	-0.0215698
3453.53	-0.000512695	0.00557648
3454.01	-0.000445557	0.00938416
3454.47	-0.697327	-0.0215729
3454.93	-0.000619507	0.00557495
3455.41	0.000622559	0.00938416
3455.87	-0.698456	-0.0215576
3456.33	-0.000741577	0.00557404
3456.81	0.000634766	0.00938416
3457.27	-0.697357	-0.0215729
3457.73	0.00101929	0.0055661
3458.21	7.01904e-05	0.00940247
3458.67	-0.698303	-0.0215668
3459.13	0.000744629	0.00557159
3459.61	-0.000808716	0.00938416
3460.07	-0.698425	-0.0215546
3460.53	-0.000686646	0.00557892
3461.01	0.000738525	0.00939331
3461.47	-0.697723	-0.0215637
3461.93	5.79834e-05	0.00557526
3462.41	0.000637817	0.00937805
3462.87	-0.697906	-0.0215729
3463.33	0.000958252	0.00556824
3463.81	0.000271606	0.00937195
3464.27	-0.697418	-0.0215729
3464.73	0.000256348	0.00557434
3465.21	0.000570679	0.00938721
3465.67	-0.698273	-0.0215546
3466.13	-0.000506592	0.00557617
3466.61	-0.000933838	0.00939026
3467.07	-0.697388	-0.0215698
3467.53	2.74658e-05	0.00557739
3468.01	0.000289917	0.00937805
3468.47	-0.697357	-0.0215607
3468.93	-0.000662231	0.00557983
3469.41	-0.000515747	0.00939941
3469.87	-0.698608	-0.0215576
3470.33	0.000314331	0.00557556
3470.81	0.000424194	0.00938721
3471.27	-0.69873	-0.0215485
3471.73	-0.000637817	0.00557953
3472.21	-0.000811768	0.00938721
3472.67	-0.697662	-0.0215637
3473.13	0.000869751	0.00556976
3473.61	0.000311279	0.009375
3474.07	-0.698517	-0.0215454
3474.53	-0.00055542	0.00558228
3475.01	0.000439453	0.00938721
3475.47	-0.698853	-0.0215515
3475.93	-0.000280762	0.00557678
3476.41	0.00017395	0.00938721
3476.87	-0.698578	-0.0215607
3477.33	0.000909424	0.00556915
3477.81	0.000497437	0.00938721
3478.27	-0.698792	-0.0215515
3478.73	-0.000817871	0.00558014
3479.21	0.000436401	0.00939331
3479.67	-0.6987	-0.0215485
3480.13	0.000292969	0.00558014
3480.61	0.000570679	0.009375
3481.07	-0.698639	-0.0215515
3481.53	0.000927734	0.00557007
3482.01	-0.000531006	0.00937195
3482.47	-0.698334	-0.0215454
3482.93	0.000601196	0.00557831
3483.41	0.000408936	0.00938721
3483.87	-0.698151	-0.0215546
3484.33	0.000582886	0.00558014
3484.81	-0.000283813	0.00939941
3485.27	-0.698334	-0.0215576
3485.73	0.000909424	0.0055777
3486.21	0.000366211	0.00938721
3486.67	-0.697968	-0.0215515
3487.13	-0.000350952	0.00558563
3487.61	0.000598145	0.009375
3488.07	-0.697601	-0.0215546
3488.53	-0.000527954	0.00559052
3489.01	0.00057373	0.009375
3489.47	-0.69809	-0.0215668
3489.93	-6.40869e-05	0.0055838
3490.41	0.000634766	0.0093811
3490.87	-0.698944	-0.0215576
3491.33	0.0006073	0.00557587
3491.81	0.000216675	0.00938416
3492.27	-0.698517	-0.0215424
3492.73	0.000686646	0.00557861
3493.21	0.000613403	0.00938416
3493.67	-0.697449	-0.0215576
3494.13	0.000408936	0.00557983
3494.61	-0.000134277	0.00938721
3495.07	-0.697998	-0.0215485
3495.53	-0.000415039	0.00559021
3496.01	-0.000274658	0.0093689
3496.47	-0.698639	-0.0215546
3496.93	-0.000286865	0.00558502
3497.41	0.000524902	0.00937805
3497.87	-0.697418	-0.0215576
3498.33	0.000912476	0.00557861
3498.81	-0.000683594	0.00939026
3499.27	-0.698273	-0.0215424
3499.73	-0.00038147	0.00558533
3500.21	0.000170898	0.00938721
3500.67	-0.697388	-0.0215637
3501.13	0.000476074	0.00557892
3501.61	-0.000704956	0.00938416
3502.07	-0.697388	-0.0215576
3502.53	0.000344849	0.00557617
3503.01	-0.00102539	0.00937195
3503.47	-0.698944	-0.0215454
3503.93	-0.00038147	0.00559357
3504.41	-0.00103149	0.0093689
3504.87	-0.69754	-0.0215485
3505.33	-0.000518799	0.00559357
3505.81	0.00071106	0.009375
3506.27	-0.697906	-0.0215515
3506.73	-0.000585937	0.00559387
3507.21	-0.000744629	0.00938416
3507.67	-0.697998	-0.0215454
3508.13	-0.000192261	0.00559357
3508.61	0.000668335	0.0093689
3509.07	-0.697266	-0.0215485
3509.53	0.000921631	0.00558441
3510.01	-0.000863647	0.00937195
3510.47	-0.698669	-0.0215485
3510.93	-0.000598145	0.00559204
3511.41	0.000534058	0.00936584
3511.87	-0.698212	-0.0215363
3512.33	0.000366211	0.00558472
3512.81	0.00062561	0.00937195
3513.27	-0.697388	-0.0215546
3513.73	0.000506592	0.0055835
3514.21	0.000524902	0.00937195
3514.67	-0.698944	-0.0215485
3515.13	0.000708008	0.0055838
3515.61	0.000662231	0.00935974
3516.07	-0.697266	-0.0215454
3516.53	-0.000509644	0.00559448
3517.01	-0.000598145	0.00936584
3517.47	-0.697449	-0.0215546
3517.93	-0.000222778	0.00559479
3518.41	-0.000354004	0.00937805
3518.87	-0.698761	-0.0215332
3519.33	0.000750732	0.00558624
3519.81	0.000494385	0.00937195
3520.27	-0.697723	-0.0215393
3520.73	-0.000585937	0.00559631
3521.21	-0.000790405	0.00937195
3521.67	-0.698517	-0.0215302
3522.13	-0.000656128	0.00559845
3522.61	-0.000402832	0.00937805
3523.07	-0.69751	-0.0215485
3523.53	0.000283813	0.00559845
3524.01	-0.000460815	0.00935974
3524.47	-0.697418	-0.0215454
3524.93	0.000820923	0.00559448
3525.41	-0.000881958	0.009375
3525.87	-0.697357	-0.0215485
3526.33	0.0003479	0.00558594
3526.81	0.000735474	0.00937195
3527.27	-0.697968	-0.0215515
3527.73	0.000695801	0.00558807
3528.21	0.000759888	0.00936584
3528.67	-0.697601	-0.0215363
3529.13	0.000408936	0.0055957
3529.61	-0.000598145	0.00936279
3530.07	-0.698639	-0.021524
3530.53	-0.000680542	0.00560028
3531.01	-0.000408936	0.00935669
3531.47	-0.698853	-0.0215302
3531.93	-0.000421143	0.00559601
3532.41	-0.000891113	0.00935974
3532.87	-0.697479	-0.0215363
3533.33	0.000497437	0.00559357
3533.81	0.000656128	0.00935974
3534.27	-0.698914	-0.0215332
3534.73	-0.000375366	0.00559906
3535.21	-0.000570679	0.009375
3535.67	-0.697235	-0.0215302
3536.13	-0.00027771	0.00559723
3536.61	-0.000231934	0.009375
3537.07	-0.697601	-0.0215485
3537.53	-0.0006073	0.00560333
3538.01	0.000622559	0.00935974
3538.47	-0.697418	-0.0215332
3538.93	0.000552368	0.00559662
3539.41	0.000473022	0.00934753
3539.87	-0.698639	-0.0215271
3540.33	0.000933838	0.00559357
3540.81	0.000466919	0.00935364
3541.27	-0.698883	-0.0215363
3541.73	0.000720215	0.00559662
3542.21	-0.000131226	0.0093689
3542.67	-0.697388	-0.0215393
3543.13	-0.000491333	0.00560486
3543.61	-7.93457e-05	0.00935364
3544.07	-0.698975	-0.0215302
3544.53	0.000820923	0.00559662
3545.01	-0.000650024	0.00937195
3545.47	-0.697327	-0.0215363
3545.93	-0.00045166	0.00560699
3546.41	-0.000842285	0.00935974
3546.87	-0.698608	-0.021524
3547.33	0.000146484	0.0055957
3547.81	0.000323486	0.00934448
3548.27	-0.698029	-0.0215424
3548.73	-0.000738525	0.00560547
3549.21	-0.000878906	0.00936584
3549.67	-0.698029	-0.021524
3550.13	0.000619507	0.00559479
3550.61	-0.0010376	0.00935974
3551.07	-0.697845	-0.0215393
3551.53	0.00104065	0.00559845
3552.01	-0.00102234	0.00935364
3552.47	-0.697266	-0.0215363
3552.93	0.000488281	0.00560333
3553.41	-0.000921631	0.00934448
3553.87	-0.697571	-0.0215393
3554.33	0.000598145	0.00560059
3554.81	-0.00100403	0.00935059
3555.27	-0.698822	-0.0215179
3555.73	-0.000524902	0.00560516
3556.21	0.000460815	0.00935364
3556.67	-0.698029	-0.0215332
3557.13	0.000305176	0.00560455
3557.61	0.000622559	0.00934753
3558.07	-0.698792	-0.0215271
3558.53	-0.000576782	0.0056076
3559.01	-0.00027771	0.00934448
3559.47	-0.698792	-0.021521
3559.93	0.000741577	0.00559692
3560.41	0.000592041	0.00935059
3560.87	-0.698547	-0.0215363
3561.33	0.000799561	0.00560028
3561.81	8.54492e-05	0.00935059
3562.27	-0.697388	-0.0215302
3562.73	0.000537109	0.00560272
3563.21	-0.00010376	0.00935974
3563.67	-0.698853	-0.0215302
3564.13	0.000891113	0.00560059
3564.61	0.00043335	0.00935364
3565.07	-0.697266	-0.0215302
3565.53	0.000961304	0.00560059
3566.01	-0.0003479	0.00935364
3566.47	-0.699066	-0.021521
3566.93	0.000894165	0.0056015
3567.41	4.27246e-05	0.00935364
3567.87	-0.697205	-0.021524
3568.33	0.000756836	0.00560211
3568.81	0.00017395	0.00935059
3569.27	-0.698639	-0.0215179
3569.73	0.000814819	0.00560364
3570.21	-0.000720215	0.00935669
3570.67	-0.698517	-0.021524
3571.13	-0.000445557	0.00561401
3571.61	-0.000616455	0.00934753
3572.07	-0.697327	-0.021524
3572.53	0.000921631	0.0056012
3573.01	-0.00062561	0.00935364
3573.47	-0.697327	-0.0215179
3573.93	0.000927734	0.00560303
3574.41	-2.13623e-05	0.00935364
3574.87	-0.698273	-0.021521
3575.33	-3.66211e-05	0.00560608
3575.81	0.000161743	0.00933838
3576.27	-0.698181	-0.0215088
3576.73	2.13623e-05	0.00560486
3577.21	-0.000637817	0.00935364
3577.67	-0.697906	-0.021524
3578.13	0.000540161	0.00560364
3578.61	-0.000350952	0.00935364
3579.07	-0.697784	-0.021521
3579.53	0.000262451	0.00560333
3580.01	6.10352e-06	0.00935364
3580.47	-0.698792	-0.0215179
3580.93	-0.000497437	0.00561188
3581.41	0.000750732	0.00935364
3581.87	-0.697601	-0.021521
3582.33	0.000204468	0.00561401
3582.81	-0.000872803	0.00934448
3583.27	-0.698242	-0.0215179
3583.73	0.000765991	0.00560883
3584.21	-0.000875854	0.00934143
3584.67	-0.697723	-0.0215118
3585.13	-0.000576782	0.00562042
3585.61	0.000402832	0.00933228
3586.07	-0.698425	-0.0215118
3586.53	-0.000582886	0.00561981
3587.01	0.000601196	0.00934448
3587.47	-0.698853	-0.0215057
3587.93	-0.0003479	0.00561829
3588.41	-0.00017395	0.00934753
3588.87	-0.698364	-0.021521
3589.33	0.000192261	0.00561066
3589.81	-0.000653076	0.00934753
3590.27	-0.697418	-0.0215179
3590.73	0.000546265	0.00560974
3591.21	6.40869e-05	0.00933228
3591.67	-0.697388	-0.0215149
3592.13	-0.000460815	0.00562164
3592.61	0.000106812	0.00934143
3593.07	-0.697693	-0.021521
3593.53	0.0003479	0.00561188
3594.01	-0.00072937	0.00934448
3594.47	-0.698639	-0.0215179
3594.93	0.000762939	0.00561035
3595.41	-0.000170898	0.00933533
3595.87	-0.698639	-0.0215057
3596.33	-0.000421143	0.00562256
3596.81	0.000598145	0.00933838
3597.27	-0.697632	-0.0215118
3597.73	0.000762939	0.00561188
3598.21	-0.000695801	0.00933533
3598.67	-0.697449	-0.021521
3599.13	-0.000430298	0.00562225
3599.61	0.000253296	0.00934143
3600.07	-0.698761	-0.0215118
3600.53	0.000775146	0.00561371
3601.01	-0.000146484	0.00932922
3601.47	-0.69751	-0.0215179
3601.93	-0.00043335	0.00562347
3602.41	-0.000738525	0.00934143
3602.87	-0.698669	-0.0215027
3603.33	0.000146484	0.00561493
3603.81	0.000518799	0.00933533
3604.27	-0.697968	-0.0215179
3604.73	-2.74658e-05	0.00562378
3605.21	-5.18799e-05	0.00932617
3605.67	-0.698639	-0.0215088
3606.13	-0.000177002	0.00562469
3606.61	-0.000646973	0.00933228
3607.07	-0.698853	-0.0214996
3607.53	-0.000640869	0.00562347
3608.01	-0.000775146	0.00932922
3608.47	-0.698792	-0.0215057
3608.93	-0.000302124	0.00562866
3609.41	-0.000836182	0.00932617
3609.87	-0.69873	-0.0215027
3610.33	0.000872803	0.00561737
3610.81	-0.000427246	0.00934448
3611.27	-0.69754	-0.0215118
3611.73	-0.00017395	0.00561859
3612.21	0.000695801	0.00933533
3612.67	-0.697876	-0.0214996
3613.13	-0.000686646	0.00562531
3613.61	0.000180054	0.00932312
3614.07	-0.69873	-0.0214935
3614.53	0.000900269	0.00561646
3615.01	-0.000964355	0.00932922
3615.47	-0.698425	-0.0215027
3615.93	0.000839233	0.00561676
3616.41	0.000292969	0.00933838
3616.87	-0.697723	-0.0215027
3617.33	-0.000158691	0.00562653
3617.81	0.000360107	0.00932922
3618.27	-0.697723	-0.0215149
3618.73	0.000769043	0.00561768
3619.21	-0.000689697	0.00933228
3619.67	-0.698761	-0.0214996
3620.13	-0.000311279	0.00562439
3620.61	-0.000772095	0.00933533
3621.07	-0.698486	-0.0215057
3621.53	0.000784302	0.00561798
3622.01	-0.000442505	0.00932312
3622.47	-0.69754	-0.0215118
3622.93	0.000372314	0.00562469
3623.41	0.000396729	0.00932922
3623.87	-0.698303	-0.0215057
3624.33	0.000509644	0.00562042
3624.81	0.000115967	0.00931702
3625.27	-0.697601	-0.0214996
3625.73	8.8501e-05	0.00562317
3626.21	-0.000350952	0.00931396
3626.67	-0.69873	-0.0215057
3627.13	0.000778198	0.00562164
3627.61	7.62939e-05	0.00933838
3628.07	-0.697479	-0.0215057
3628.53	0.000741577	0.00562164
3629.01	-0.00085144	0.00932312
3629.47	-0.697235	-0.0215057
3629.93	0.000808716	0.00562164
3630.41	-0.000854492	0.00932007
3630.87	-0.698151	-0.0214935
3631.33	0.000845337	0.00562317
3631.81	7.01904e-05	0.00931702
3632.27	-0.698944	-0.0214905
3632.73	-0.000631714	0.00563477
3633.21	0.000488281	0.00932617
3633.67	-0.697357	-0.0214996
3634.13	0.000765991	0.00562439
3634.61	0.000119019	0.00931396
3635.07	-0.698792	-0.0214996
3635.53	-0.00015564	0.005625
3636.01	-0.000567627	0.00932922
3636.47	-0.697571	-0.0214996
3636.93	-0.00043335	0.00563416
3637.41	0.00065918	0.00932007
3637.87	-0.697723	-0.0215027
3638.33	0.00027771	0.00563019
3638.81	-0.000839233	0.00932312
3639.27	-0.698639	-0.0214874
3639.73	0.00102539	0.00562439
3640.21	0.00067749	0.00931702
3640.67	-0.698822	-0.0214935
3641.13	0.000619507	0.00562134
3641.61	-0.000558472	0.00931091
3642.07	-0.697388	-0.0214996
3642.53	0.000131226	0.00562256
3643.01	-0.000808716	0.00931091
3643.47	-0.698669	-0.0214874
3643.93	-0.000357056	0.00563721
3644.41	0.000814819	0.00932312
3644.87	-0.698334	-0.0214874
3645.33	0.000610352	0.00562317
3645.81	-0.000759888	0.00931702
3646.27	-0.6987	-0.0214844
3646.73	0.000866699	0.00562653
3647.21	0.000421143	0.00931091
3647.67	-0.697693	-0.0214844
3648.13	-0.000143433	0.00562897
3648.61	0.000646973	0.00931091
3649.07	-0.697388	-0.0214935
3649.53	9.76562e-05	0.00562927
3650.01	0.000338745	0.00932007
3650.47	-0.698273	-0.0214783
3650.93	0.000668335	0.00562592
3651.41	-0.000497437	0.00932922
3651.87	-0.698944	-0.0214874
3652.33	0.000909424	0.00562592
3652.81	-0.000411987	0.00932617
3653.27	-0.698883	-0.0214813
3653.73	0.000805664	0.00562622
3654.21	0.000177002	0.00932617
3654.67	-0.698395	-0.0214813
3655.13	-0.000491333	0.00563538
3655.61	0.000680542	0.00931091
3656.07	-0.697296	-0.0214905
3656.53	0.000863647	0.00562714
3657.01	0.000491333	0.00931702
3657.47	-0.698212	-0.0214752
3657.93	0.000418091	0.00563293
3658.41	-0.000485229	0.00932617
3658.87	-0.697937	-0.0214966
3659.33	-0.000231934	0.00564026
3659.81	-0.000814819	0.00932007
3660.27	-0.698273	-0.0214783
3660.73	-0.000637817	0.0056427
3661.21	-0.000888062	0.00931702
3661.67	-0.697388	-0.0214844
3662.13	-0.000598145	0.00564087
3662.61	3.96729e-05	0.00931702
3663.07	-0.698029	-0.0214783
3663.53	0.000280762	0.00563538
3664.01	0.000552368	0.00931702
3664.47	-0.698914	-0.0214783
3664.93	0.000643921	0.00563599
3665.41	0.000634766	0.00931091
3665.87	-0.698853	-0.0214844
3666.33	0.000814819	0.00563354
3666.81	0.000445557	0.00929871
3667.27	-0.697815	-0.0214844
3667.73	0.000280762	0.00563385
3668.21	-0.00088501	0.00931091
3668.67	-0.697266	-0.0214905
3669.13	-6.71387e-05	0.00563721
3669.61	-0.000283813	0.00931702
3670.07	-0.698608	-0.0214813
3670.53	-0.000289917	0.00564392
3671.01	0.000692749	0.00930481
3671.47	-0.698364	-0.0214783
3671.93	0.000683594	0.00563232
3672.41	-0.000170898	0.00929871
3672.87	-0.697418	-0.0214844
3673.33	0.000326538	0.00563507
3673.81	-0.000680542	0.00932007
3674.27	-0.698517	-0.0214874
3674.73	-0.000424194	0.00564697
3675.21	0.000524902	0.00930176
3675.67	-0.697388	-0.0214844
3676.13	-0.000366211	0.00564819
3676.61	-0.000445557	0.00929871
3677.07	-0.697388	-0.0214966
3677.53	-0.000167847	0.00563507
3678.01	0.000839233	0.00930786
3678.47	-0.698853	-0.0214752
3678.93	0.000524902	0.00563293
3679.41	0.000588989	0.00931396
3679.87	-0.698578	-0.0214752
3680.33	-0.000708008	0.00564819
3680.81	-0.00027771	0.00929565
3681.27	-0.698914	-0.0214783
3681.73	0.000994873	0.00563507
3682.21	6.10352e-06	0.00931396
3682.67	-0.697968	-0.0214935
3683.13	-0.000662231	0.00564789
3683.61	0.000769043	0.00930786
3684.07	-0.698608	-0.0214752
3684.53	0.000485229	0.0056424
3685.01	0.000479126	0.0092926
3685.47	-0.697327	-0.0214874
3685.93	0.000274658	0.00563843
3686.41	0.000534058	0.00930176
3686.87	-0.697296	-0.0214844
3687.33	-1.52588e-05	0.0056424
3687.81	0.000637817	0.00929565
3688.27	-0.697266	-0.0214874
3688.73	-0.000463867	0.00564545
3689.21	0.000708008	0.0092926
3689.67	-0.697327	-0.0214844
3690.13	-0.000692749	0.00565002
3690.61	0.000695801	0.00930176
3691.07	-0.697937	-0.0214783
3691.53	-0.000445557	0.00564697
3692.01	-0.000747681	0.00931091
3692.47	-0.697968	-0.0214874
3692.93	0.000918579	0.00563934
3693.41	0.000125122	0.0092926
3693.87	-0.6987	-0.0214661
3694.33	-0.000588989	0.0056485
3694.81	-0.000183105	0.00931091
3695.27	-0.697723	-0.0214661
3695.73	0.000918579	0.00563995
3696.21	-0.000445557	0.00929871
3696.67	-0.697571	-0.0214905
3697.13	-0.000299072	0.00565247
3697.61	0.000735474	0.0092926
3698.07	-0.69873	-0.0214844
3698.53	0.000744629	0.00563965
3699.01	-0.000741577	0.00931091
3699.47	-0.699066	-0.0214783
3699.93	-0.000671387	0.00565399
3700.41	0.000280762	0.00930786
3700.87	-0.698975	-0.0214783
3701.33	0.000231934	0.00564972
3701.81	-0.000717163	0.00929871
3702.27	-0.698334	-0.0214661
3702.73	-0.000424194	0.00565033
3703.21	-0.000790405	0.00930481
3703.67	-0.699005	-0.0214661
3704.13	-0.000332642	0.00565552
3704.61	-0.000897217	0.00930176
3705.07	-0.698669	-0.0214783
3705.53	-0.000442505	0.00565033
3706.01	-0.00043335	0.0092804
3706.47	-0.698242	-0.0214813
3706.93	0.000585937	0.00564392
3707.41	0.000518799	0.0092865
3707.87	-0.698059	-0.0214844
3708.33	0.000787354	0.00564423
3708.81	0.000595093	0.00930481
3709.27	-0.697449	-0.0214752
3709.73	0.000650024	0.00564728
3710.21	-0.000500488	0.00930176
3710.67	-0.697357	-0.0214752
3711.13	6.40869e-05	0.00565308
3711.61	-0.000537109	0.00930176
3712.07	-0.698029	-0.021463
3712.53	-0.00055542	0.00565674
3713.01	-0.000726318	0.00930176
3713.47	-0.698059	-0.0214691
3713.93	-0.000561523	0.00565125
3714.41	-0.000927734	0.00929871
3714.87	-0.698639	-0.021463
3715.33	0.000915527	0.00564331
3715.81	1.83105e-05	0.00927734
3716.27	-0.698944	-0.021463
3716.73	-0.0006073	0.00565094
3717.21	0.000646973	0.00929565
3717.67	-0.697906	-0.0214813
3718.13	0.000585937	0.00565277
3718.61	-0.0010376	0.00928955
3719.03	-0.000585937	0.00357544