File: Edgar/20240607/20240607/electrodeposition_pulsed_potential_20240607_A/pulses_2000_to_3000.txt
Time (s)	WE(1).Potential (V)	WE(1).Current (A)
1601.09	-0.697266	-0.0234802
1601.55	0.000897217	0.00376678
1602.03	-0.000762939	0.0105347
1602.49	-0.698364	-0.0221619
1602.95	-0.000622559	0.0041803
1603.43	0.000390625	0.0106506
1603.89	-0.698364	-0.02211
1604.35	0.000894165	0.00422363
1604.83	-0.000970459	0.0106812
1605.29	-0.697449	-0.0220978
1605.75	-0.000445557	0.00425751
1606.23	0.000112915	0.0106964
1606.69	-0.698151	-0.0220856
1607.15	0.000805664	0.00425995
1607.63	-0.000671387	0.0107208
1608.09	-0.698578	-0.0220734
1608.55	0.000918579	0.00427246
1609.03	-0.000167847	0.0107147
1609.49	-0.698822	-0.022049
1609.95	-0.000665283	0.00428467
1610.43	-0.000393677	0.0107239
1610.89	-0.697815	-0.0220673
1611.35	0.000570679	0.00428497
1611.83	0.000509644	0.01073
1612.29	-0.698914	-0.0220459
1612.75	-0.000241089	0.00428833
1613.23	0.000466919	0.010733
1613.69	-0.698761	-0.022052
1614.15	0.000839233	0.00429291
1614.63	-8.23975e-05	0.010733
1615.09	-0.697327	-0.022052
1615.55	0.000183105	0.00430634
1616.03	-0.000268555	0.0107574
1616.49	-0.698212	-0.0220581
1616.95	0.000341797	0.00431061
1617.43	-0.000274658	0.0107452
1617.89	-0.697449	-0.0220581
1618.35	-0.000775146	0.00431854
1618.83	-0.00085144	0.0107574
1619.29	-0.697266	-0.0220673
1619.75	-0.000466919	0.00432709
1620.23	0.000534058	0.0107574
1620.69	-0.698761	-0.022049
1621.15	0.000964355	0.00431854
1621.63	-0.00101013	0.0107483
1622.09	-0.697601	-0.0220642
1622.55	-0.000643921	0.00433502
1623.03	0.000463867	0.0107483
1623.49	-0.697388	-0.0220551
1623.95	-0.000689697	0.00433502
1624.43	0.000442505	0.0107635
1624.89	-0.698914	-0.0220428
1625.35	-0.000189209	0.00433716
1625.83	0.000439453	0.0107452
1626.29	-0.697388	-0.0220581
1626.75	0.000473022	0.00434235
1627.23	-0.000570679	0.0107422
1627.69	-0.697388	-0.0220581
1628.15	0.000527954	0.00434052
1628.63	-0.000970459	0.0107574
1629.09	-0.698792	-0.0220459
1629.55	-0.000656128	0.00434998
1630.03	0.000308228	0.0107422
1630.49	-0.698883	-0.0220459
1630.95	0.000332642	0.00434052
1631.43	0.000460815	0.0107422
1631.89	-0.697693	-0.022052
1632.35	-0.000656128	0.00435028
1632.83	0.000640869	0.0107422
1633.29	-0.698395	-0.0220398
1633.75	0.000222778	0.00434753
1634.23	0.000357056	0.0107422
1634.69	-0.69754	-0.022049
1635.15	-0.000473022	0.00435455
1635.63	0.0006073	0.0107483
1636.09	-0.697479	-0.0220428
1636.55	0.000592041	0.00435181
1637.03	-0.000592041	0.0107544
1637.49	-0.6987	-0.0220367
1637.95	0.000265503	0.00435699
1638.43	-0.000753784	0.0107544
1638.89	-0.698853	-0.0220276
1639.35	0.000643921	0.00435303
1639.83	-0.000146484	0.0107544
1640.29	-0.698883	-0.0220398
1640.75	-0.000256348	0.00436798
1641.23	-0.000808716	0.0107361
1641.69	-0.698608	-0.0220276
1642.15	0.000558472	0.00436157
1642.63	-0.000643921	0.0107513
1643.09	-0.698151	-0.0220428
1643.55	-0.000405884	0.00436951
1644.03	-0.000509644	0.010733
1644.49	-0.698059	-0.0220428
1644.95	-0.000570679	0.00437653
1645.43	0.000268555	0.01073
1645.89	-0.698364	-0.0220276
1646.35	-0.000656128	0.00437836
1646.83	-0.00083313	0.010733
1647.29	-0.697327	-0.0220428
1647.75	0.00039978	0.00437042
1648.23	-0.000866699	0.010733
1648.69	-0.697815	-0.0220245
1649.15	0.000570679	0.00437073
1649.63	0.00065918	0.010733
1650.09	-0.698029	-0.022049
1650.55	0.000601196	0.00437225
1651.03	-0.000979614	0.010733
1651.49	-0.697205	-0.0220337
1651.95	0.000631714	0.00437439
1652.43	0.000524902	0.01073
1652.89	-0.697571	-0.0220428
1653.35	0.000848389	0.00437653
1653.83	-0.000524902	0.0107239
1654.29	-0.698181	-0.0220428
1654.75	-0.000411987	0.00438995
1655.23	0.000549316	0.0107391
1655.69	-0.698822	-0.0220276
1656.15	-0.000186157	0.00438568
1656.63	-0.000576782	0.0107452
1657.09	-0.697418	-0.0220459
1657.55	0.000927734	0.00438263
1658.03	-0.00093689	0.010733
1658.49	-0.69812	-0.0220367
1658.95	0.000457764	0.00438629
1659.43	-0.000378418	0.0107391
1659.89	-0.69809	-0.0220215
1660.35	0.000823975	0.00438812
1660.83	-0.000842285	0.01073
1661.29	-0.697754	-0.0220398
1661.75	-0.000622559	0.00439728
1662.23	-0.000656128	0.0107391
1662.69	-0.697662	-0.0220276
1663.15	0.000842285	0.00439331
1663.63	-0.000183105	0.0107208
1664.09	-0.697357	-0.0220398
1664.55	0.000741577	0.00440002
1665.03	-0.000860596	0.0107269
1665.49	-0.697479	-0.0220276
1665.95	0.000808716	0.00439545
1666.43	3.05176e-06	0.010733
1666.89	-0.698517	-0.0220276
1667.35	0.000765991	0.00440338
1667.83	-0.000860596	0.0107117
1668.29	-0.698517	-0.0220276
1668.75	-0.000244141	0.00440918
1669.23	0.000436401	0.0107147
1669.69	-0.69754	-0.0220337
1670.15	0.000497437	0.00440063
1670.63	-0.000866699	0.0107147
1671.09	-0.69751	-0.0220367
1671.55	-0.000469971	0.00441376
1672.03	0.000469971	0.0107147
1672.49	-0.698547	-0.0220215
1672.95	-0.000488281	0.00441345
1673.43	0.000561523	0.0107147
1673.89	-0.697632	-0.0220337
1674.35	-0.000457764	0.0044162
1674.83	0.000546265	0.0107117
1675.29	-0.697968	-0.0220245
1675.75	-0.000283813	0.00441528
1676.23	-0.000921631	0.0107086
1676.69	-0.697296	-0.0220306
1677.15	-0.000231934	0.00441681
1677.63	-0.000933838	0.0107178
1678.09	-0.69812	-0.0220367
1678.55	-0.000338745	0.00442505
1679.03	0.000201416	0.0107025
1679.49	-0.698303	-0.0220367
1679.95	-0.000610352	0.00442688
1680.43	0.000445557	0.0107178
1680.89	-0.698547	-0.0220123
1681.35	0.000708008	0.0044165
1681.83	0.000561523	0.0107025
1682.29	-0.699005	-0.0220245
1682.75	0.000982666	0.00441925
1683.23	0.00057373	0.0107117
1683.69	-0.698029	-0.0220367
1684.15	0.00088501	0.00442108
1684.63	-0.000784302	0.0107025
1685.09	-0.697388	-0.0220306
1685.55	-0.000427246	0.00442902
1686.03	-0.000253296	0.0107086
1686.49	-0.697388	-0.0220306
1686.95	-0.00055542	0.00443695
1687.43	0.000183105	0.0107117
1687.89	-0.698944	-0.0220276
1688.35	0.000509644	0.0044278
1688.83	0.000344849	0.0107117
1689.29	-0.698456	-0.0220306
1689.75	-0.000540161	0.00444336
1690.23	0.000521851	0.0106934
1690.69	-0.698883	-0.0220184
1691.15	0.000762939	0.00443085
1691.63	-0.000650024	0.0107117
1692.09	-0.697266	-0.0220337
1692.55	0.000326538	0.00443512
1693.03	0.000427246	0.0106995
1693.49	-0.698059	-0.0220306
1693.95	0.000100708	0.00444183
1694.43	0.000668335	0.0106934
1694.89	-0.698425	-0.0220245
1695.35	-0.00010376	0.00444092
1695.83	0.000482178	0.0106934
1696.29	-0.698456	-0.0220062
1696.75	0.000640869	0.00444031
1697.23	-0.000201416	0.0106842
1697.69	-0.698761	-0.0220184
1698.15	0.000613403	0.00444519
1698.63	7.01904e-05	0.010675
1699.09	-0.697632	-0.0220184
1699.55	0.000415039	0.00444122
1700.03	-0.00062561	0.0106873
1700.49	-0.698547	-0.0220184
1700.95	0.000869751	0.00444
1701.43	-0.00101624	0.0106873
1701.89	-0.697266	-0.0220306
1702.35	0.00088501	0.00444214
1702.83	-0.000198364	0.0106781
1703.29	-0.698639	-0.0220093
1703.75	0.000299072	0.00444794
1704.23	-0.00104065	0.0106812
1704.69	-0.697296	-0.0220276
1705.15	0.000814819	0.00444977
1705.63	-0.000506592	0.0106934
1706.09	-0.697479	-0.0220184
1706.55	-0.000567627	0.00445831
1707.03	-0.000778198	0.0106873
1707.49	-0.698456	-0.0220245
1707.95	0.000811768	0.0044516
1708.43	0.00027771	0.010672
1708.89	-0.697296	-0.0220306
1709.35	-0.000692749	0.0044632
1709.83	0.00050354	0.0106873
1710.29	-0.698883	-0.0220154
1710.75	0.000942993	0.00445831
1711.23	-0.000408936	0.0106873
1711.69	-0.697876	-0.0220154
1712.15	0.000204468	0.00446442
1712.63	-0.000866699	0.0106781
1713.09	-0.698395	-0.0220123
1713.55	0.00020752	0.0044574
1714.03	-0.000482178	0.0106842
1714.49	-0.697601	-0.0220306
1714.95	0.000814819	0.00445862
1715.43	0.000524902	0.0106781
1715.89	-0.6987	-0.0220184
1716.35	-0.000515747	0.00447296
1716.83	9.15527e-06	0.0106842
1717.29	-0.698059	-0.0220245
1717.75	-0.000537109	0.00446991
1718.23	-0.00015564	0.0106567
1718.69	-0.697876	-0.0220337
1719.15	-0.00057373	0.0044754
1719.63	-0.000799561	0.010672
1720.09	-0.698761	-0.0220093
1720.55	0.000949097	0.00446655
1721.03	0.000567627	0.0106598
1721.49	-0.69809	-0.0220062
1721.95	0.000726318	0.00447144
1722.43	-0.000241089	0.0106628
1722.89	-0.698334	-0.0220276
1723.35	-3.35693e-05	0.00447327
1723.83	0.000512695	0.0106659
1724.29	-0.698059	-0.0220154
1724.75	-0.000311279	0.00448212
1725.23	-0.000292969	0.0106537
1725.69	-0.698669	-0.0220123
1726.15	-0.000802612	0.0044809
1726.63	-0.000881958	0.0106567
1727.09	-0.69873	-0.0220123
1727.55	0.000842285	0.00447266
1728.03	-7.32422e-05	0.0106506
1728.49	-0.698853	-0.0220215
1728.95	0.00057373	0.00447449
1729.43	-0.000830078	0.0106567
1729.89	-0.69809	-0.0220093
1730.35	-0.000634766	0.00448822
1730.83	0.000390625	0.0106476
1731.29	-0.698029	-0.0220093
1731.75	-0.000482178	0.00449036
1732.23	-7.93457e-05	0.0106689
1732.69	-0.698364	-0.0220123
1733.15	0.000817871	0.00448486
1733.63	0.000390625	0.0106567
1734.09	-0.698669	-0.0220093
1734.55	0.000765991	0.00448029
1735.03	-0.000646973	0.0106445
1735.49	-0.698517	-0.0220123
1735.95	0.000802612	0.0044809
1736.43	0.000653076	0.0106445
1736.89	-0.69751	-0.0220184
1737.35	-0.000259399	0.00449188
1737.83	-0.000411987	0.0106628
1738.29	-0.698975	-0.0220184
1738.75	0.000427246	0.00448761
1739.23	4.57764e-05	0.0106415
1739.69	-0.69754	-0.0220184
1740.15	-0.000518799	0.00449677
1740.63	0.000250244	0.0106476
1741.09	-0.698486	-0.0220306
1741.55	-0.000448608	0.00450104
1742.03	0.000576782	0.0106384
1742.49	-0.697815	-0.0220093
1742.95	0.000384521	0.00449127
1743.43	0.000283813	0.0106384
1743.89	-0.698639	-0.0220215
1744.35	0.000640869	0.00449707
1744.83	-0.000808716	0.0106476
1745.29	-0.698517	-0.0220245
1745.75	0.000390625	0.00449524
1746.23	-0.000698853	0.0106476
1746.69	-0.69812	-0.0220215
1747.15	-0.000320435	0.00450836
1747.63	-0.000283813	0.0106323
1748.09	-0.697601	-0.0220337
1748.55	-0.000570679	0.00450989
1749.03	-0.00055542	0.0106506
1749.49	-0.697754	-0.0220276
1749.95	-9.76562e-05	0.00450623
1750.43	0.000604248	0.0106384
1750.89	-0.697784	-0.0220093
1751.35	-1.52588e-05	0.00450714
1751.83	-0.000518799	0.0106445
1752.29	-0.697937	-0.0220245
1752.75	0.000680542	0.00451111
1753.23	-0.000735474	0.0106415
1753.69	-0.697754	-0.0220276
1754.15	-0.000344849	0.00451508
1754.63	0.000488281	0.0106384
1755.09	-0.698822	-0.0220062
1755.55	-6.10352e-06	0.00451324
1756.03	0.000405884	0.0106293
1756.49	-0.698669	-0.0220245
1756.95	-5.49316e-05	0.00451996
1757.43	-0.000476074	0.0106232
1757.89	-0.6987	-0.0220123
1758.35	0.000656128	0.00451447
1758.83	-0.000140381	0.0106201
1759.29	-0.697876	-0.0220154
1759.75	-0.000296021	0.00452057
1760.23	0.000454712	0.0106293
1760.69	-0.697449	-0.0220215
1761.15	-0.000439453	0.00452576
1761.63	0.000445557	0.0106232
1762.09	-0.697906	-0.0220276
1762.55	0.000942993	0.00451965
1763.03	-0.000231934	0.0106232
1763.49	-0.698364	-0.0220093
1763.95	0.00032959	0.00452118
1764.43	-0.000808716	0.0106354
1764.89	-0.697784	-0.0220245
1765.35	0.000720215	0.00451904
1765.83	5.79834e-05	0.0106384
1766.29	-0.697968	-0.0220123
1766.75	-0.000485229	0.00452972
1767.23	-6.40869e-05	0.0106323
1767.69	-0.697571	-0.0220276
1768.15	0.000823975	0.00452423
1768.63	0.000506592	0.0106232
1769.09	-0.698761	-0.0220245
1769.55	0.000704956	0.00452423
1770.03	0.000595093	0.0106201
1770.49	-0.698944	-0.0220154
1770.95	0.000683594	0.00453125
1771.43	0	0.0106262
1771.89	-0.697815	-0.0220123
1772.35	0.000567627	0.00453796
1772.83	-0.00101929	0.0106171
1773.29	-0.697449	-0.0220184
1773.75	0.000720215	0.00453369
1774.23	-0.000939941	0.0106201
1774.69	-0.697998	-0.0220123
1775.15	0.000149536	0.0045401
1775.63	0.000582886	0.0106079
1776.09	-0.698029	-0.0220276
1776.55	-0.000634766	0.00454285
1777.03	-0.000299072	0.0106049
1777.49	-0.69812	-0.0220032
1777.95	-8.23975e-05	0.00454407
1778.43	0.000463867	0.010614
1778.89	-0.698792	-0.0220184
1779.35	0.000567627	0.0045459
1779.83	-4.27246e-05	0.0105988
1780.29	-0.698242	-0.0220215
1780.75	0.00078125	0.00453979
1781.23	0.000280762	0.010611
1781.69	-0.698395	-0.0220184
1782.15	-0.000631714	0.00454865
1782.63	0.000445557	0.010614
1783.09	-0.697723	-0.0220154
1783.55	0.000192261	0.00454224
1784.03	0.00038147	0.0105927
1784.49	-0.697845	-0.0220032
1784.95	0.000109863	0.00454926
1785.43	-9.76562e-05	0.0105957
1785.89	-0.697449	-0.0220184
1786.35	0.00071106	0.0045401
1786.83	-0.000411987	0.0105896
1787.29	-0.698944	-0.0220032
1787.75	0.00022583	0.00454529
1788.23	-0.000640869	0.010611
1788.69	-0.698853	-0.0220093
1789.15	-0.00032959	0.00455597
1789.63	-0.000100708	0.0105865
1790.09	-0.697296	-0.0220184
1790.55	0.000836182	0.00454712
1791.03	-0.000836182	0.0105927
1791.49	-0.698242	-0.0220184
1791.95	0.000546265	0.00454742
1792.43	0.000488281	0.0105957
1792.89	-0.697479	-0.0220154
1793.35	-7.01904e-05	0.00455414
1793.83	0.000473022	0.0105988
1794.29	-0.698975	-0.0220123
1794.75	-0.000634766	0.00456116
1795.23	-0.000445557	0.0106049
1795.69	-0.697266	-0.0220184
1796.15	-0.000259399	0.00455414
1796.63	-0.000823975	0.0106049
1797.09	-0.697388	-0.0220154
1797.55	-0.000634766	0.00456787
1798.03	-0.000952148	0.0105896
1798.49	-0.698761	-0.0220245
1798.95	0.000561523	0.00455933
1799.43	-0.000106812	0.0105774
1799.89	-0.697845	-0.0220093
1800.35	0.000265503	0.00456329
1800.83	-0.000238037	0.0105743
1801.29	-0.6987	-0.0220184
1801.75	0.000619507	0.00456055
1802.23	-0.000823975	0.0105957
1802.69	-0.698853	-0.0220032
1803.15	0.00093689	0.00455963
1803.63	-0.000747681	0.0105774
1804.09	-0.698364	-0.0220062
1804.55	-0.000506592	0.0045752
1805.03	0.000320435	0.0105682
1805.49	-0.697235	-0.0220215
1805.95	0.000912476	0.0045639
1806.43	-0.00020752	0.0105896
1806.89	-0.698761	-0.0220123
1807.35	0.000576782	0.00456604
1807.83	-0.000369263	0.0105927
1808.29	-0.698853	-0.0220062
1808.75	-0.000338745	0.00457458
1809.23	0.000326538	0.0105682
1809.69	-0.698822	-0.0220093
1810.15	0.000692749	0.00456665
1810.63	-0.000643921	0.0105652
1811.09	-0.697327	-0.0220184
1811.55	-0.000674438	0.00458099
1812.03	-2.13623e-05	0.0105835
1812.49	-0.699036	-0.0220062
1812.95	0.000924683	0.00457306
1813.43	-0.000204468	0.0105835
1813.89	-0.697815	-0.0220215
1814.35	0.000982666	0.00457458
1814.83	0.000482178	0.0105713
1815.29	-0.697479	-0.0220215
1815.75	-0.000671387	0.0045874
1816.23	0.000534058	0.0105774
1816.69	-0.698883	-0.0220032
1817.15	-0.000152588	0.00458954
1817.63	-0.00106812	0.0105682
1818.09	-0.698303	-0.0220215
1818.55	-3.35693e-05	0.00458435
1819.03	0.000125122	0.0105774
1819.49	-0.698486	-0.0220001
1819.95	0.000177002	0.00458466
1820.43	0.000595093	0.0105652
1820.89	-0.697418	-0.0220245
1821.35	-0.00071106	0.00459473
1821.83	0.000286865	0.0105774
1822.29	-0.698303	-0.0220184
1822.75	-0.000219727	0.00459473
1823.23	-0.000735474	0.0105743
1823.69	-0.697327	-0.0220154
1824.15	-0.000439453	0.00459808
1824.63	0.000482178	0.010556
1825.09	-0.698853	-0.0220032
1825.55	-0.000549316	0.00459595
1826.03	-0.000857544	0.0105621
1826.49	-0.6987	-0.0220154
1826.95	-0.000372314	0.00459656
1827.43	0.000646973	0.0105591
1827.89	-0.698975	-0.0220001
1828.35	0.00090332	0.00459473
1828.83	0.000704956	0.0105621
1829.29	-0.697327	-0.0220123
1829.75	-0.00067749	0.00460297
1830.23	-0.00072937	0.0105713
1830.69	-0.698944	-0.0220001
1831.15	0.000732422	0.00459564
1831.63	0.00062561	0.010556
1832.09	-0.697418	-0.0220123
1832.55	0.000811768	0.00459747
1833.03	0.000595093	0.010556
1833.49	-0.697845	-0.0220215
1833.95	-0.000442505	0.00460419
1834.43	0.000622559	0.0105469
1834.89	-0.697327	-0.0220184
1835.35	0.000646973	0.00460602
1835.83	-0.0010498	0.010553
1836.29	-0.697662	-0.0220184
1836.75	1.2207e-05	0.00460358
1837.23	0.000637817	0.0105469
1837.69	-0.697662	-0.0220184
1838.15	-0.000436401	0.00460815
1838.63	6.71387e-05	0.0105377
1839.09	-0.69751	-0.0220123
1839.55	0.00105286	0.00460358
1840.03	-0.00102234	0.010556
1840.49	-0.698608	-0.0220123
1840.95	-0.000280762	0.00461487
1841.43	-0.000939941	0.010556
1841.89	-0.69873	-0.0220093
1842.35	0.000436401	0.00461853
1842.83	0.000683594	0.0105469
1843.29	-0.698151	-0.0220276
1843.75	0.000640869	0.00461731
1844.23	0.000119019	0.010556
1844.69	-0.699005	-0.0220123
1845.15	-0.000479126	0.00462341
1845.63	-0.000787354	0.0105469
1846.09	-0.698853	-0.0220123
1846.55	-7.01904e-05	0.0046283
1847.03	0.0003479	0.0105377
1847.49	-0.697723	-0.0220154
1847.95	0.000604248	0.00461761
1848.43	0.000186157	0.010553
1848.89	-0.697266	-0.0220184
1849.35	0.000408936	0.00462372
1849.83	-0.000949097	0.0105499
1850.29	-0.698853	-0.0220032
1850.75	-0.000439453	0.00463013
1851.23	-0.000778198	0.0105469
1851.69	-0.697296	-0.0220123
1852.15	0.000524902	0.00461975
1852.63	-0.000762939	0.010553
1853.09	-0.697449	-0.0220123
1853.55	-0.000680542	0.00462921
1854.03	-0.000183105	0.0105316
1854.49	-0.698029	-0.0220154
1854.95	0.00093689	0.00462494
1855.43	-0.000891113	0.0105469
1855.89	-0.698914	-0.0220123
1856.35	0.000424194	0.00463226
1856.83	-9.15527e-05	0.0105438
1857.29	-0.698029	-0.0220337
1857.75	0.00072937	0.00462708
1858.23	-0.000491333	0.0105499
1858.69	-0.698853	-0.0220184
1859.15	0.000942993	0.00463043
1859.63	0.000592041	0.0105316
1860.09	-0.698792	-0.0220062
1860.55	-0.000326538	0.00464417
1861.03	-0.000601196	0.0105255
1861.49	-0.69751	-0.0220276
1861.95	0.000546265	0.00463776
1862.43	0.000430298	0.0105347
1862.89	-0.698303	-0.0220093
1863.35	0.000924683	0.00463623
1863.83	0.00015564	0.0105194
1864.29	-0.698608	-0.0220062
1864.75	0.000271606	0.00464722
1865.23	0.000738525	0.0105316
1865.69	-0.697754	-0.0220215
1866.15	0.000662231	0.00464081
1866.63	0.000595093	0.0105255
1867.09	-0.697906	-0.0220093
1867.55	0.000100708	0.00464264
1868.03	-0.000909424	0.0105286
1868.49	-0.697296	-0.0220184
1868.95	0.000765991	0.00464752
1869.43	-0.00093689	0.0105316
1869.89	-0.698853	-0.0220062
1870.35	0.00085144	0.004646
1870.83	-6.40869e-05	0.0105194
1871.29	-0.698059	-0.0220154
1871.75	-1.52588e-05	0.00465363
1872.23	-0.000274658	0.0105408
1872.69	-0.698181	-0.0220215
1873.15	-0.000515747	0.0046582
1873.63	-0.00020752	0.0105133
1874.09	-0.697205	-0.0220154
1874.55	-0.000668335	0.0046582
1875.03	0.00067749	0.0105194
1875.49	-0.698334	-0.0220215
1875.95	0.000460815	0.00465515
1876.43	0.000512695	0.0105286
1876.89	-0.697479	-0.0220184
1877.35	0.000869751	0.00464905
1877.83	-0.000720215	0.0105286
1878.29	-0.697327	-0.0220062
1878.75	-0.000604248	0.00466034
1879.23	0.000622559	0.0105103
1879.69	-0.69751	-0.0220062
1880.15	0.000500488	0.00464966
1880.63	9.76562e-05	0.0105103
1881.09	-0.698792	-0.0220032
1881.55	0.000704956	0.00465546
1882.03	-0.000820923	0.0105103
1882.49	-0.698883	-0.0220062
1882.95	8.54492e-05	0.00465881
1883.43	0.000149536	0.0105225
1883.89	-0.69751	-0.0220093
1884.35	0.000540161	0.00465698
1884.83	-0.000888062	0.0105133
1885.29	-0.698059	-0.0220032
1885.75	-0.000546265	0.00466705
1886.23	-0.00038147	0.0105164
1886.69	-0.698334	-0.0220032
1887.15	-0.000588989	0.0046698
1887.63	-0.000915527	0.010498
1888.09	-0.697723	-0.0220093
1888.55	-0.000274658	0.00466492
1889.03	3.66211e-05	0.010495
1889.49	-0.698456	-0.0220215
1889.95	0.000335693	0.00466095
1890.43	0.000170898	0.010495
1890.89	-0.698761	-0.0220093
1891.35	-0.000396729	0.0046756
1891.83	-0.0010498	0.0105011
1892.29	-0.697601	-0.0220215
1892.75	-0.000604248	0.0046756
1893.23	-0.000671387	0.010498
1893.69	-0.69812	-0.0220123
1894.15	0.000552368	0.00466705
1894.63	0.000592041	0.010495
1895.09	-0.698273	-0.0220123
1895.55	-0.000180054	0.00466827
1896.03	-0.00102234	0.010495
1896.49	-0.697479	-0.0220154
1896.95	-0.000192261	0.00467285
1897.43	-0.000747681	0.010495
1897.89	-0.697327	-0.0220062
1898.35	-0.000271606	0.00467529
1898.83	0.000479126	0.0104889
1899.29	-0.698914	-0.0220062
1899.75	0.000115967	0.00467987
1900.23	-0.000250244	0.0105072
1900.69	-0.698456	-0.0220062
1901.15	-0.000222778	0.00467865
1901.63	-0.000604248	0.0104858
1902.09	-0.698761	-0.0220001
1902.55	0.00015564	0.00467682
1903.03	0.000201416	0.0104828
1903.49	-0.698273	-0.0220001
1903.95	-0.000595093	0.00468719
1904.43	0.000265503	0.0104858
1904.89	-0.698486	-0.0220123
1905.35	0.000338745	0.00468201
1905.83	-0.000149536	0.0104828
1906.29	-0.697449	-0.0220154
1906.75	0.000436401	0.0046875
1907.23	-0.000357056	0.010495
1907.69	-0.698059	-0.0220123
1908.15	-0.00012207	0.00468353
1908.63	7.32422e-05	0.010495
1909.09	-0.698944	-0.0219971
1909.55	-0.000109863	0.00468475
1910.03	-0.000323486	0.010498
1910.49	-0.698853	-0.0219971
1910.95	-0.000549316	0.00468628
1911.43	-0.000335693	0.0104767
1911.89	-0.697906	-0.0220032
1912.35	0.000909424	0.00468384
1912.83	-0.000552368	0.0104797
1913.29	-0.699005	-0.0220032
1913.75	0.000628662	0.00468323
1914.23	-0.00098877	0.0104797
1914.69	-0.698364	-0.021991
1915.15	-0.000720215	0.00469574
1915.63	6.10352e-05	0.0104645
1916.09	-0.697662	-0.021994
1916.55	-0.000582886	0.00469482
1917.03	-0.000906372	0.0104858
1917.49	-0.697357	-0.0220093
1917.95	0.000848389	0.00468842
1918.43	0.000201416	0.0104828
1918.89	-0.698944	-0.0219971
1919.35	0.000634766	0.00469147
1919.83	0.000482178	0.0104736
1920.29	-0.698364	-0.0219849
1920.75	0.000341797	0.00469208
1921.23	-0.000839233	0.0104797
1921.69	-0.697723	-0.0220001
1922.15	4.88281e-05	0.00469208
1922.63	-0.000296021	0.0104645
1923.09	-0.697357	-0.0220032
1923.55	0.000860596	0.00469269
1924.03	-0.000613403	0.0104736
1924.49	-0.697174	-0.0219971
1924.95	1.52588e-05	0.00469757
1925.43	-0.000448608	0.0104767
1925.89	-0.698944	-0.0219879
1926.35	-0.000747681	0.00470551
1926.83	-0.000292969	0.0104767
1927.29	-0.698669	-0.0220032
1927.75	0.000695801	0.00470123
1928.23	0.000656128	0.0104614
1928.69	-0.697479	-0.021991
1929.15	0.000543213	0.0046994
1929.63	0.000262451	0.0104523
1930.09	-0.698853	-0.0219879
1930.55	-0.000494385	0.00471344
1931.03	0.000457764	0.0104645
1931.49	-0.698883	-0.021991
1931.95	-0.000415039	0.00470825
1932.43	-0.000701904	0.0104645
1932.89	-0.697876	-0.0220093
1933.35	-0.000387573	0.00470856
1933.83	-0.00071106	0.0104675
1934.29	-0.698944	-0.0219818
1934.75	-0.000494385	0.00471497
1935.23	0.00062561	0.0104492
1935.69	-0.698792	-0.0219849
1936.15	-0.00065918	0.00471436
1936.63	0.000585937	0.0104584
1937.09	-0.698853	-0.0219818
1937.55	1.83105e-05	0.00470795
1938.03	-0.000335693	0.0104675
1938.49	-0.698914	-0.0219818
1938.95	-0.00055542	0.0047171
1939.43	-0.000106812	0.0104614
1939.89	-0.698669	-0.021991
1940.35	-0.000308228	0.00471863
1940.83	-3.05176e-05	0.0104614
1941.29	-0.697754	-0.0219849
1941.75	-0.000592041	0.00472137
1942.23	-0.00083313	0.0104523
1942.69	-0.697388	-0.021994
1943.15	-0.000439453	0.0047171
1943.63	-0.000134277	0.0104431
1944.09	-0.69873	-0.0219788
1944.55	-0.000170898	0.00471527
1945.03	-0.000906372	0.0104492
1945.49	-0.69751	-0.0219849
1945.95	-0.000531006	0.00472107
1946.43	0.000820923	0.0104492
1946.89	-0.698242	-0.0219849
1947.35	6.10352e-06	0.0047229
1947.83	0.000543213	0.0104401
1948.29	-0.697266	-0.0219971
1948.75	-0.000698853	0.00472565
1949.23	0.000198364	0.0104523
1949.69	-0.697479	-0.021991
1950.15	0.000588989	0.00471558
1950.63	0.000100708	0.0104309
1951.09	-0.697388	-0.0220001
1951.55	0.000769043	0.00471863
1952.03	-0.000323486	0.0104492
1952.49	-0.698608	-0.021994
1952.95	-0.000524902	0.00472839
1953.43	0.000653076	0.010437
1953.89	-0.697327	-0.0220001
1954.35	0.000662231	0.00471863
1954.83	0.00055542	0.0104462
1955.29	-0.698853	-0.0219849
1955.75	0.00090332	0.00472137
1956.23	0.000665283	0.010437
1956.69	-0.698944	-0.0219757
1957.15	-0.000588989	0.00473114
1957.63	-0.0003479	0.0104462
1958.09	-0.697266	-0.021994
1958.55	0.00103455	0.00472565
1959.03	0.000299072	0.010434
1959.49	-0.698669	-0.0219757
1959.95	0.000827026	0.00472443
1960.43	-7.93457e-05	0.0104248
1960.89	-0.697937	-0.0219971
1961.35	0.000292969	0.00473236
1961.83	0.000531006	0.0104309
1962.29	-0.698944	-0.0219818
1962.75	0.000466919	0.00472717
1963.23	0.000708008	0.010434
1963.69	-0.697723	-0.0219971
1964.15	-0.000430298	0.00473816
1964.63	0.000482178	0.0104187
1965.09	-0.697723	-0.0219971
1965.55	0.000296021	0.00473358
1966.03	0.0006073	0.0104187
1966.49	-0.698456	-0.0219879
1966.95	-0.000753784	0.00474396
1967.43	0.000741577	0.010434
1967.89	-0.697662	-0.0220001
1968.35	-0.000354004	0.00474091
1968.83	0.000604248	0.0104248
1969.29	-0.697235	-0.0219849
1969.75	0.000912476	0.0047348
1970.23	0.000643921	0.0104187
1970.69	-0.697266	-0.0219849
1971.15	-0.000109863	0.00473663
1971.63	-0.000598145	0.010434
1972.09	-0.697693	-0.021994
1972.55	0.000692749	0.00474152
1973.03	0.0003479	0.0104126
1973.49	-0.697113	-0.0219879
1973.95	-0.000332642	0.00475098
1974.43	-0.00043335	0.0104279
1974.89	-0.697357	-0.0219879
1975.35	0.000762939	0.00473907
1975.83	-0.0009765625	0.0104218
1976.29	-0.698883	-0.0219849
1976.75	0.00055542	0.00474518
1977.23	0.000408936	0.0104156
1977.69	-0.699005	-0.0219818
1978.15	0.000753784	0.00474579
1978.63	0.000296021	0.0104187
1979.09	-0.697388	-0.0219849
1979.55	-7.01904e-05	0.00474609
1980.03	-0.00088501	0.0104218
1980.49	-0.697388	-0.0219879
1980.95	8.23975e-05	0.00475311
1981.43	0.000662231	0.0104126
1981.89	-0.698669	-0.0219727
1982.35	0.000848389	0.0047464
1982.83	-0.00090332	0.0104156
1983.29	-0.697327	-0.0219879
1983.75	0.000515747	0.00475708
1984.23	-0.000704956	0.0104218
1984.69	-0.698639	-0.0219757
1985.15	-0.000454712	0.00475739
1985.63	0.000567627	0.0104095
1986.09	-0.697601	-0.021991
1986.55	0.000750732	0.00475067
1987.03	0.000500488	0.0104034
1987.49	-0.698486	-0.021991
1987.95	0.00105286	0.00475525
1988.43	-0.000811768	0.0104187
1988.89	-0.698578	-0.0219879
1989.35	-0.000650024	0.00476624
1989.83	-0.000772095	0.0104095
1990.29	-0.698059	-0.021991
1990.75	0.000946045	0.00475677
1991.23	0.000662231	0.0104034
1991.69	-0.698975	-0.0219757
1992.15	0.00098877	0.00475769
1992.63	-0.000805664	0.0104126
1993.09	-0.698883	-0.0219757
1993.55	0.00022583	0.00476654
1994.03	0.00057373	0.0104065
1994.49	-0.697388	-0.021991
1994.95	0.000756836	0.00475983
1995.43	0.00062561	0.0104004
1995.89	-0.698456	-0.0219818
1996.35	0.00065918	0.00476898
1996.83	-0.000646973	0.0104095
1997.29	-0.698486	-0.0219757
1997.75	-0.000640869	0.0047757
1998.23	-0.000344849	0.0104004
1998.69	-0.698608	-0.0219788
1999.15	0.000872803	0.00476898
1999.63	-0.000421143	0.0104156
2000.09	-0.698334	-0.021991
2000.55	0.000115967	0.00476959
2001.03	-0.000961304	0.0104065
2001.49	-0.698547	-0.0219696
2001.95	0.000192261	0.00477844
2002.43	-0.000643921	0.0103973
2002.89	-0.697357	-0.021991
2003.35	0.000436401	0.0047757
2003.83	-0.0009765625	0.0104034
2004.29	-0.697632	-0.0219788
2004.75	-0.000308228	0.00477448
2005.23	0.000616455	0.0103912
2005.69	-0.697784	-0.0219818
2006.15	0.000952148	0.00477234
2006.63	6.71387e-05	0.010379
2007.09	-0.697174	-0.0219849
2007.55	-0.000186157	0.00477936
2008.03	4.57764e-05	0.0104004
2008.49	-0.697418	-0.0219818
2008.95	-5.79834e-05	0.0047879
2009.43	0.000756836	0.0103912
2009.89	-0.698792	-0.0219696
2010.35	0.0003479	0.00478394
2010.83	-0.000796509	0.0103912
2011.29	-0.697174	-0.0219788
2011.75	-0.000585937	0.00479156
2012.23	-0.000332642	0.0103851
2012.69	-0.698914	-0.0219757
2013.15	0.000817871	0.00477814
2013.63	0.000228882	0.0103973
2014.09	-0.698914	-0.0219818
2014.55	0.000488281	0.00478333
2015.03	-0.000247192	0.0103973
2015.49	-0.697418	-0.0219727
2015.95	-0.000204468	0.00479004
2016.43	0.000372314	0.0103882
2016.89	-0.698273	-0.0219666
2017.35	0.000784302	0.0047818
2017.83	0.000726318	0.0103851
2018.29	-0.697357	-0.0219879
2018.75	-0.00043335	0.00479736
2019.23	0.000369263	0.010376
2019.69	-0.698456	-0.0219849
2020.15	0.000820923	0.00478668
2020.63	-0.000747681	0.0103851
2021.09	-0.698395	-0.0219788
2021.55	-0.000320435	0.00479034
2022.03	-0.00085144	0.0103882
2022.49	-0.698669	-0.0219788
2022.95	-0.000665283	0.00480042
2023.43	0.000408936	0.0103699
2023.89	-0.69751	-0.0219818
2024.35	-0.000485229	0.00479828
2024.83	0.000384521	0.0103638
2025.29	-0.697601	-0.0219818
2025.75	-0.000765991	0.00480072
2026.23	-0.00107727	0.0103821
2026.69	-0.697876	-0.0219666
2027.15	-1.83105e-05	0.00479584
2027.63	-0.000854492	0.0103821
2028.09	-0.697601	-0.0219696
2028.55	0.00065918	0.00479767
2029.03	-3.05176e-06	0.0103638
2029.49	-0.698639	-0.0219666
2029.95	0.000930786	0.00479889
2030.43	0.000311279	0.0103668
2030.89	-0.697296	-0.0219727
2031.35	-0.000531006	0.00480408
2031.83	-0.000924683	0.010379
2032.29	-0.698547	-0.0219849
2032.75	-0.000634766	0.00480713
2033.23	-0.000720215	0.0103638
2033.69	-0.698029	-0.0219666
2034.15	-0.000582886	0.00480682
2034.63	0.000363159	0.010376
2035.09	-0.697845	-0.0219727
2035.55	0.000723267	0.0047995
2036.03	-0.000927734	0.0103668
2036.49	-0.697662	-0.0219635
2036.95	0.000354004	0.00480164
2037.43	-0.000128174	0.0103577
2037.89	-0.698914	-0.0219727
2038.35	0.00085144	0.00480194
2038.83	0.000341797	0.0103729
2039.29	-0.697388	-0.0219727
2039.75	0.000109863	0.0048111
2040.23	-0.00032959	0.0103577
2040.69	-0.697906	-0.0219696
2041.15	0.000921631	0.00480591
2041.63	-0.000598145	0.0103577
2042.09	-0.697357	-0.0219788
2042.55	-0.000195313	0.00481628
2043.03	-0.00083313	0.0103607
2043.49	-0.698029	-0.0219788
2043.95	-0.000323486	0.00481934
2044.43	-0.000820923	0.0103668
2044.89	-0.69754	-0.0219849
2045.35	-0.000363159	0.00482086
2045.83	-0.000109863	0.0103668
2046.29	-0.697998	-0.0219666
2046.75	0.00012207	0.00481628
2047.23	-0.00020752	0.0103577
2047.69	-0.697418	-0.0219757
2048.15	0.000622559	0.00481659
2048.63	-0.000933838	0.0103577
2049.09	-0.698669	-0.0219788
2049.55	-0.000549316	0.0048233
2050.03	-0.000250244	0.0103638
2050.49	-0.698181	-0.0219574
2050.95	7.62939e-05	0.00482056
2051.43	0.000314331	0.0103546
2051.89	-0.697601	-0.0219818
2052.35	-0.000561523	0.00482758
2052.83	-0.000726318	0.0103638
2053.29	-0.698212	-0.0219604
2053.75	0.000814819	0.00481812
2054.23	-0.000241089	0.0103424
2054.69	-0.697235	-0.0219666
2055.15	0.00071106	0.00481567
2055.63	-0.000317383	0.0103577
2056.09	-0.697571	-0.0219666
2056.55	0.000735474	0.00482483
2057.03	0.000558472	0.0103363
2057.49	-0.698608	-0.0219604
2057.95	0.000949097	0.00481842
2058.43	-0.000411987	0.0103394
2058.89	-0.69751	-0.0219727
2059.35	-0.000299072	0.00482605
2059.83	-0.000421143	0.0103577
2060.29	-0.697693	-0.0219696
2060.75	0.000744629	0.00482666
2061.23	-0.000708008	0.0103546
2061.69	-0.697937	-0.0219635
2062.15	-0.000613403	0.00483368
2062.63	-4.88281e-05	0.0103516
2063.09	-0.6987	-0.0219696
2063.55	0.000402832	0.00482452
2064.03	0.000195313	0.0103333
2064.49	-0.698822	-0.0219635
2064.95	-0.000421143	0.00483246
2065.43	-0.000769043	0.0103302
2065.89	-0.697357	-0.0219666
2066.35	-5.18799e-05	0.00482971
2066.83	-0.000427246	0.0103485
2067.29	-0.698822	-0.0219635
2067.75	-0.000643921	0.00483765
2068.23	0.000674438	0.0103333
2068.69	-0.697327	-0.0219727
2069.15	-0.000564575	0.00483978
2069.63	0.000482178	0.0103302
2070.09	-0.697388	-0.0219696
2070.55	-0.000726318	0.00483673
2071.03	0.000650024	0.0103424
2071.49	-0.697968	-0.0219727
2071.95	0.000183105	0.00483307
2072.43	-0.000854492	0.0103394
2072.89	-0.699036	-0.0219604
2073.35	-0.000662231	0.00484344
2073.83	0.000650024	0.0103333
2074.29	-0.69809	-0.0219543
2074.75	0.00104675	0.00483307
2075.23	0.00027771	0.010318
2075.69	-0.697632	-0.0219543
2076.15	0.000296021	0.00483612
2076.63	-0.000891113	0.0103363
2077.09	-0.698547	-0.0219696
2077.55	0.000708008	0.00483795
2078.03	-0.000982666	0.0103302
2078.49	-0.6987	-0.0219604
2078.95	-0.000506592	0.00483978
2079.43	0.000323486	0.0103149
2079.89	-0.697937	-0.0219757
2080.35	-0.000314331	0.00484802
2080.83	-0.000497437	0.0103363
2081.29	-0.697266	-0.0219635
2081.75	0.000543213	0.00484192
2082.23	0.000314331	0.0103119
2082.69	-0.69754	-0.0219727
2083.15	0.000299072	0.00484711
2083.63	-0.00100708	0.0103271
2084.09	-0.697784	-0.0219727
2084.55	-0.000604248	0.0048526
2085.03	-7.01904e-05	0.0103119
2085.49	-0.698608	-0.0219604
2085.95	-0.000546265	0.00485474
2086.43	-0.000140381	0.0103333
2086.89	-0.698029	-0.0219513
2087.35	-0.000643921	0.00485687
2087.83	7.93457e-05	0.0103149
2088.29	-0.698669	-0.0219604
2088.75	0.000857544	0.00484467
2089.23	-0.000997925	0.010321
2089.69	-0.697845	-0.0219666
2090.15	-0.000683594	0.00485657
2090.63	-0.000604248	0.010318
2091.09	-0.698273	-0.0219452
2091.55	0.00090332	0.00484589
2092.03	0.000592041	0.0103058
2092.49	-0.698761	-0.0219635
2092.95	-0.000717163	0.00486023
2093.43	-0.0009552	0.010318
2093.89	-0.698792	-0.0219482
2094.35	0.000909424	0.00485138
2094.83	0.000137329	0.010321
2095.29	-0.697632	-0.0219666
2095.75	-0.000665283	0.00486298
2096.23	-0.000653076	0.0103058
2096.69	-0.6987	-0.0219452
2097.15	0.000231934	0.00485291
2097.63	-0.000848389	0.010318
2098.09	-0.6987	-0.0219482
2098.55	-9.15527e-06	0.0048642
2099.03	-0.000949097	0.0103119
2099.49	-0.697266	-0.0219635
2099.95	-0.000650024	0.00486877
2100.43	-0.000778198	0.0103058
2100.89	-0.698517	-0.0219452
2101.35	0.000305176	0.00485779
2101.83	-0.000189209	0.0103149
2102.29	-0.69873	-0.0219574
2102.75	0.000286865	0.00486511
2103.23	-0.000854492	0.0103088
2103.69	-0.697266	-0.0219574
2104.15	-0.000134277	0.0048645
2104.63	-0.000949097	0.0103088
2105.09	-0.698547	-0.0219604
2105.55	0.000796509	0.00485992
2106.03	0.000604248	0.0102997
2106.49	-0.69754	-0.0219635
2106.95	0.000549316	0.0048587
2107.43	0.000384521	0.0102997
2107.89	-0.698792	-0.0219452
2108.35	-1.83105e-05	0.00487061
2108.83	-5.79834e-05	0.0102905
2109.29	-0.697449	-0.0219635
2109.75	-0.000170898	0.00487335
2110.23	0.000219727	0.0102905
2110.69	-0.697327	-0.0219604
2111.15	0.000588989	0.00486267
2111.63	-0.000299072	0.0102905
2112.09	-0.698883	-0.0219513
2112.55	-0.000668335	0.00487671
2113.03	0.000143433	0.0103058
2113.49	-0.698608	-0.0219543
2113.95	0.000872803	0.00486847
2114.43	0.000463867	0.0103027
2114.89	-0.698151	-0.0219635
2115.35	0.000939941	0.00486847
2115.83	-7.32422e-05	0.0103058
2116.29	-0.698364	-0.0219543
2116.75	0.000357056	0.00488037
2117.23	-0.000537109	0.0103058
2117.69	-0.697815	-0.0219604
2118.15	-0.000109863	0.0048819
2118.63	-7.32422e-05	0.0102966
2119.09	-0.698761	-0.0219421
2119.55	-0.000369263	0.00488037
2120.03	-0.000292969	0.0102844
2120.49	-0.698669	-0.0219421
2120.95	0.000909424	0.00487244
2121.43	-0.00102539	0.0102936
2121.89	-0.697723	-0.0219482
2122.35	-0.000524902	0.00488739
2122.83	-0.000411987	0.0102997
2123.29	-0.699005	-0.0219513
2123.75	0.000604248	0.00488037
2124.23	-0.000714111	0.0102844
2124.69	-0.698517	-0.0219391
2125.15	-0.000527954	0.00488251
2125.63	-0.000592041	0.0102753
2126.09	-0.698822	-0.0219421
2126.55	-0.000146484	0.00488251
2127.03	0.000604248	0.0102844
2127.49	-0.698303	-0.0219391
2127.95	-0.000683594	0.00489075
2128.43	0.000454712	0.0102722
2128.89	-0.697357	-0.0219574
2129.35	0.000808716	0.00487946
2129.83	0.000689697	0.0102875
2130.29	-0.697784	-0.0219574
2130.75	0.000753784	0.0048877
2131.23	-0.000793457	0.0102783
2131.69	-0.69754	-0.0219574
2132.15	-0.000671387	0.0048941
2132.63	-3.35693e-05	0.0102722
2133.09	-0.697937	-0.0219543
2133.55	-0.000585937	0.00489166
2134.03	-0.000531006	0.0102722
2134.49	-0.698883	-0.0219452
2134.95	-0.000595093	0.00488892
2135.43	0.000741577	0.0102844
2135.89	-0.698792	-0.021936
2136.35	0.000939941	0.00488434
2136.83	-0.000817871	0.0102783
2137.29	-0.697845	-0.0219543
2137.75	0.00090332	0.00488434
2138.23	-0.000921631	0.0102814
2138.69	-0.697266	-0.0219543
2139.15	4.27246e-05	0.00489563
2139.63	0.000622559	0.0102692
2140.09	-0.698975	-0.0219391
2140.55	-0.000338745	0.00490234
2141.03	0.000619507	0.0102692
2141.49	-0.698853	-0.021936
2141.95	0.000158691	0.00489899
2142.43	0.000100708	0.0102783
2142.89	-0.699097	-0.0219421
2143.35	0.000750732	0.00489227
2143.83	-0.000970459	0.0102722
2144.29	-0.697296	-0.0219513
2144.75	-0.000445557	0.00489685
2145.23	-0.000964355	0.0102722
2145.69	-0.698578	-0.021936
2146.15	0.000405884	0.00489624
2146.63	0.000524902	0.0102722
2147.09	-0.697906	-0.021936
2147.55	0.000201416	0.00490326
2148.03	-0.000531006	0.0102631
2148.49	-0.69754	-0.0219452
2148.95	0.000900269	0.00489563
2149.43	-0.000921631	0.0102661
2149.89	-0.698181	-0.0219513
2150.35	0.000622559	0.00490387
2150.83	7.01904e-05	0.0102509
2151.29	-0.698486	-0.0219513
2151.75	-6.71387e-05	0.00490845
2152.23	-0.000942993	0.0102753
2152.69	-0.69754	-0.0219543
2153.15	0.000418091	0.0048996
2153.63	-0.000949097	0.0102661
2154.09	-0.698425	-0.0219299
2154.55	3.35693e-05	0.00489929
2155.03	-6.10352e-05	0.0102509
2155.49	-0.697449	-0.0219513
2155.95	-0.000686646	0.00491058
2156.43	-2.74658e-05	0.0102478
2156.89	-0.697815	-0.0219574
2157.35	0.000701904	0.0049057
2157.83	-0.000894165	0.01026
2158.29	-0.698242	-0.0219452
2158.75	-0.000622559	0.00491486
2159.23	-0.000738525	0.0102661
2159.69	-0.698944	-0.0219391
2160.15	-0.000494385	0.00491241
2160.63	-0.0006073	0.0102631
2161.09	-0.697296	-0.0219482
2161.55	0.000106812	0.00491638
2162.03	-0.000549316	0.0102448
2162.49	-0.697784	-0.021933
2162.95	-0.00062561	0.00492004
2163.43	0.000341797	0.0102478
2163.89	-0.698486	-0.0219452
2164.35	0.0009552	0.00490875
2164.83	0.000738525	0.0102539
2165.29	-0.698364	-0.021936
2165.75	0.000598145	0.00491486
2166.23	-0.000543213	0.0102631
2166.69	-0.697601	-0.0219299
2167.15	-0.000640869	0.0049231
2167.63	-0.000808716	0.0102478
2168.09	-0.698669	-0.0219299
2168.55	-0.00050354	0.00492065
2169.03	0.000500488	0.0102417
2169.49	-0.698761	-0.0219299
2169.95	0.000970459	0.00491364
2170.43	-0.000527954	0.01026
2170.89	-0.698151	-0.0219482
2171.35	0.00043335	0.00492096
2171.83	0.000170898	0.0102539
2172.29	-0.6987	-0.0219452
2172.75	-5.49316e-05	0.00492523
2173.23	-0.000146484	0.0102356
2173.69	-0.698242	-0.0219391
2174.15	-0.000393677	0.00491943
2174.63	-0.000582886	0.010257
2175.09	-0.697388	-0.021936
2175.55	0.000683594	0.0049173
2176.03	-0.000265503	0.0102539
2176.49	-0.698639	-0.0219391
2176.95	0.000817871	0.00492096
2177.43	-3.96729e-05	0.0102478
2177.89	-0.697815	-0.0219299
2178.35	-0.000588989	0.00493347
2178.83	-0.000134277	0.0102386
2179.29	-0.697662	-0.0219421
2179.75	-0.000708008	0.004935
2180.23	0.000592041	0.0102325
2180.69	-0.697815	-0.021933
2181.15	0.000167847	0.00492981
2181.63	-0.000927734	0.0102417
2182.09	-0.698425	-0.0219177
2182.55	0.000286865	0.00493073
2183.03	1.83105e-05	0.0102325
2183.49	-0.698883	-0.021933
2183.95	-0.000704956	0.00493408
2184.43	-0.00107117	0.0102325
2184.89	-0.698792	-0.0219238
2185.35	0.000500488	0.00493164
2185.83	0.000418091	0.0102264
2186.29	-0.698914	-0.0219269
2186.75	0.000820923	0.00492676
2187.23	0.000115967	0.0102234
2187.69	-0.698669	-0.0219238
2188.15	-0.000543213	0.00493561
2188.63	0.000637817	0.0102264
2189.09	-0.698883	-0.0219299
2189.55	0.00102844	0.00493103
2190.03	-0.000875854	0.0102417
2190.49	-0.697845	-0.0219421
2190.95	-0.000640869	0.00494293
2191.43	-0.000930786	0.0102295
2191.89	-0.698914	-0.0219391
2192.35	4.88281e-05	0.00493408
2192.83	0.000543213	0.0102234
2193.29	-0.698273	-0.0219391
2193.75	-0.000326538	0.00493378
2194.23	-0.000134277	0.0102356
2194.69	-0.697968	-0.0219299
2195.15	0.000393677	0.00493408
2195.63	0.00067749	0.0102264
2196.09	-0.69809	-0.021936
2196.55	-0.000149536	0.00494507
2197.03	-0.000357056	0.0102386
2197.49	-0.698822	-0.0219269
2197.95	0.000857544	0.00493469
2198.43	-5.79834e-05	0.0102142
2198.89	-0.697388	-0.0219299
2199.35	-0.000314331	0.00494965
2199.83	-0.000979614	0.0102173
2200.29	-0.698883	-0.0219177
2200.75	-0.000643921	0.00494995
2201.23	-0.000656128	0.0102295
2201.69	-0.698486	-0.0219177
2202.15	0.000915527	0.00493896
2202.63	-0.000405884	0.0102142
2203.09	-0.697266	-0.0219391
2203.55	0.00103149	0.00494049
2204.03	0.000228882	0.0102295
2204.49	-0.698242	-0.0219238
2204.95	-0.000418091	0.00495056
2205.43	-0.000848389	0.0102234
2205.89	-0.697571	-0.0219391
2206.35	0.000805664	0.00494293
2206.83	0.000424194	0.0102051
2207.29	-0.698273	-0.0219269
2207.75	-0.000222778	0.00495453
2208.23	-0.000695801	0.0102112
2208.69	-0.698853	-0.0219177
2209.15	-0.000805664	0.004953
2209.63	0.000436401	0.0102203
2210.09	-0.697632	-0.021936
2210.55	6.71387e-05	0.00494934
2211.03	0.00027771	0.0102051
2211.49	-0.698547	-0.0219147
2211.95	-0.000646973	0.00495728
2212.43	4.88281e-05	0.010202
2212.89	-0.698853	-0.0219177
2213.35	0.000787354	0.00494629
2213.83	-0.000924683	0.0102051
2214.29	-0.697266	-0.0219299
2214.75	0.000271606	0.00495056
2215.23	0.000640869	0.010199
2215.69	-0.698669	-0.0219147
2216.15	0.000372314	0.00495544
2216.63	0.000488281	0.0102112
2217.09	-0.698669	-0.0219269
2217.55	0.000534058	0.00495422
2218.03	-0.000881958	0.0102051
2218.49	-0.697418	-0.0219238
2218.95	-0.000576782	0.0049649
2219.43	0.000601196	0.0102112
2219.89	-0.697357	-0.0219208
2220.35	0.000125122	0.00495575
2220.83	-0.000845337	0.010199
2221.29	-0.69754	-0.0219116
2221.75	-0.000292969	0.00496613
2222.23	0.000308228	0.0102081
2222.69	-0.698273	-0.0219299
2223.15	0.000506592	0.00495728
2223.63	0.000640869	0.0102051
2224.09	-0.698456	-0.0219147
2224.55	-0.000701904	0.00496552
2225.03	-0.000970459	0.010202
2225.49	-0.698822	-0.0219147
2225.95	0.000860596	0.00495941
2226.43	-0.000897217	0.0102051
2226.89	-0.69754	-0.0219269
2227.35	0.000836182	0.00495819
2227.83	-0.000262451	0.0101837
2228.29	-0.697327	-0.0219208
2228.75	-0.000793457	0.00496887
2229.23	-0.00103149	0.010199
2229.69	-0.697296	-0.0219208
2230.15	-0.000631714	0.00497009
2230.63	-0.000909424	0.010199
2231.09	-0.69754	-0.0219177
2231.55	-0.000668335	0.00497375
2232.03	-0.000900269	0.0101959
2232.49	-0.698853	-0.0219177
2232.95	0.000354004	0.00496857
2233.43	0.000552368	0.0101898
2233.89	-0.69751	-0.0219269
2234.35	-0.000216675	0.0049649
2234.83	-0.000567627	0.010199
2235.29	-0.697449	-0.0219147
2235.75	0.000671387	0.00496582
2236.23	4.27246e-05	0.0101837
2236.69	-0.697418	-0.0219116
2237.15	0.000717163	0.00496521
2237.63	0.000683594	0.0101868
2238.09	-0.697815	-0.0219116
2238.55	0.000787354	0.00496552
2239.03	0.000714111	0.0101898
2239.49	-0.698364	-0.0219116
2239.95	-4.88281e-05	0.00497345
2240.43	-0.000775146	0.0101807
2240.89	-0.698669	-0.0219055
2241.35	0.000921631	0.0049704
2241.83	-6.10352e-05	0.0101959
2242.29	-0.697205	-0.0219208
2242.75	-0.000637817	0.00498291
2243.23	-1.52588e-05	0.0101715
2243.69	-0.69751	-0.0219147
2244.15	3.96729e-05	0.00497192
2244.63	0.000613403	0.0101929
2245.09	-0.698212	-0.0219208
2245.55	-0.000265503	0.0049826
2246.03	-0.000421143	0.0101929
2246.49	-0.697937	-0.0219025
2246.95	-0.000601196	0.00498352
2247.43	0.000665283	0.0101837
2247.89	-0.698822	-0.0219055
2248.35	-0.0006073	0.00498749
2248.83	0.000598145	0.0101746
2249.29	-0.697754	-0.0219177
2249.75	3.66211e-05	0.00497742
2250.23	-0.000204468	0.0101929
2250.69	-0.697784	-0.0219208
2251.15	-0.000671387	0.00498993
2251.63	-0.000735474	0.0101715
2252.09	-0.697113	-0.0219147
2252.55	0.000585937	0.00497864
2253.03	-0.000930786	0.0101837
2253.49	-0.698944	-0.0219055
2253.95	-0.000717163	0.00499054
2254.43	-0.00045166	0.0101807
2254.89	-0.698853	-0.0219055
2255.35	-0.000485229	0.00498444
2255.83	-0.000231934	0.0101837
2256.29	-0.697205	-0.0219177
2256.75	-0.000515747	0.00499207
2257.23	0.000564575	0.0101654
2257.69	-0.698364	-0.0219055
2258.15	0.000982666	0.00498138
2258.63	-0.000909424	0.0101685
2259.09	-0.697266	-0.0219177
2259.55	0.00102844	0.00498657
2260.03	0.000814819	0.0101807
2260.49	-0.698242	-0.0219238
2260.95	0.000848389	0.0049884
2261.43	-0.00032959	0.0101654
2261.89	-0.697601	-0.0219269
2262.35	0.000811768	0.00498993
2262.83	8.8501e-05	0.0101807
2263.29	-0.697754	-0.0219299
2263.75	0.000430298	0.00499603
2264.23	-0.000857544	0.0101746
2264.69	-0.697968	-0.0219238
2265.15	0.00038147	0.00498993
2265.63	-0.000448608	0.0101837
2266.09	-0.698608	-0.0219055
2266.55	0.000180054	0.00499542
2267.03	-0.000927734	0.0101776
2267.49	-0.698944	-0.0219055
2267.95	0.000778198	0.00499237
2268.43	-0.000158691	0.0101715
2268.89	-0.698944	-0.0219055
2269.35	-0.000411987	0.00500427
2269.83	0.000552368	0.0101715
2270.29	-0.698822	-0.0219055
2270.75	-0.000765991	0.00500305
2271.23	-0.000683594	0.0101532
2271.69	-0.698639	-0.0219147
2272.15	0.000601196	0.00499634
2272.63	-0.000683594	0.0101776
2273.09	-0.697449	-0.0219177
2273.55	0.000170898	0.00499878
2274.03	-0.000445557	0.01015625
2274.49	-0.697845	-0.0219238
2274.95	0.00065918	0.00500153
2275.43	0.000634766	0.0101532
2275.89	-0.69751	-0.0219208
2276.35	-0.000762939	0.00500732
2276.83	0.00065918	0.01015625
2277.29	-0.697723	-0.0219086
2277.75	-0.000283813	0.0050058
2278.23	0.00062561	0.0101532
2278.69	-0.697723	-0.0219238
2279.15	-0.000637817	0.00501099
2279.63	0.000332642	0.0101501
2280.09	-0.698792	-0.0219025
2280.55	-0.000692749	0.0050119
2281.03	5.49316e-05	0.0101685
2281.49	-0.698273	-0.0219208
2281.95	0.000753784	0.00500061
2282.43	-0.000997925	0.0101532
2282.89	-0.698517	-0.0219086
2283.35	0.000799561	0.00500549
2283.83	-0.000964355	0.0101532
2284.29	-0.699036	-0.0219055
2284.75	0.000558472	0.00500488
2285.23	-0.00090332	0.01015625
2285.69	-0.698914	-0.0219025
2286.15	-8.54492e-05	0.00501556
2286.63	-0.000442505	0.010144
2287.09	-0.697449	-0.0219238
2287.55	-0.000772095	0.00501587
2288.03	0.000265503	0.01015625
2288.49	-0.698303	-0.0219147
2288.95	-0.000424194	0.00501892
2289.43	-0.000292969	0.0101593
2289.89	-0.698822	-0.0219116
2290.35	0.000683594	0.00501129
2290.83	-0.000839233	0.010144
2291.29	-0.697937	-0.0219116
2291.75	0.000811768	0.00501129
2292.23	-0.000921631	0.0101532
2292.69	-0.69873	-0.0219055
2293.15	4.88281e-05	0.00501556
2293.63	0.000628662	0.010144
2294.09	-0.698853	-0.0218933
2294.55	-0.000698853	0.00502197
2295.03	0.0006073	0.010144
2295.49	-0.697388	-0.0219116
2295.95	0.000323486	0.0050177
2296.43	-0.000390625	0.0101349
2296.89	-0.698608	-0.0218933
2297.35	-0.00067749	0.00502289
2297.83	-0.000524902	0.0101501
2298.29	-0.698578	-0.0219055
2298.75	0.0009552	0.00501251
2299.23	-0.000939941	0.0101471
2299.69	-0.698883	-0.0218964
2300.15	0.000921631	0.00501404
2300.63	0.000564575	0.0101349
2301.05	0.000961304	0.00243652