File: Edgar/20240607/20240607/electrodeposition_pulsed_potential_20240607_A/pulses_3000_to_4000.txt
Time (s)	WE(1).Potential (V)	WE(1).Current (A)
2310.09	-0.697205	-0.02421875
2310.55	-0.000170898	0.00421082
2311.03	0.000750732	0.0098053
2311.49	-0.697266	-0.0220856
2311.95	0.00057373	0.00488068
2312.43	-0.000476074	0.0100098
2312.89	-0.697113	-0.0219879
2313.35	0.000250244	0.00494812
2313.83	-0.000921631	0.0100433
2314.29	-0.698792	-0.0219482
2314.75	3.05176e-05	0.00496918
2315.23	0.000619507	0.0100586
2315.69	-0.697327	-0.0219543
2316.15	-0.000601196	0.00498535
2316.63	0.000582886	0.0100708
2317.09	-0.698792	-0.0219391
2317.55	-0.000344849	0.0049942
2318.03	0.000183105	0.0100861
2318.49	-0.698975	-0.021933
2318.95	-0.000561523	0.0050061
2319.43	0.000354004	0.0100891
2319.89	-0.697296	-0.021933
2320.35	-0.000436401	0.00500763
2320.83	-0.000134277	0.0100952
2321.29	-0.697479	-0.0219299
2321.75	0.000588989	0.00501129
2322.23	-0.000778198	0.0100952
2322.69	-0.698578	-0.0219269
2323.15	0.000753784	0.00500702
2323.63	-0.000650024	0.0100891
2324.09	-0.699066	-0.0219177
2324.55	0.000576782	0.00501129
2325.03	-0.000875854	0.0100952
2325.49	-0.697601	-0.0219269
2325.95	-0.000689697	0.00502533
2326.43	-0.000595093	0.0101074
2326.89	-0.69873	-0.0219116
2327.35	-0.00062561	0.00502502
2327.83	0.00062561	0.0100983
2328.29	-0.698853	-0.0219086
2328.75	0.000180054	0.00502228
2329.23	-0.000961304	0.0101013
2329.69	-0.697174	-0.0219147
2330.15	0.000698853	0.00502197
2330.63	-0.000305176	0.0100922
2331.09	-0.697937	-0.0219177
2331.55	-0.000402832	0.00503662
2332.03	0.000662231	0.0100952
2332.49	-0.697449	-0.0219177
2332.95	0.0010498	0.00502747
2333.43	-0.000735474	0.0100922
2333.89	-0.697266	-0.0219116
2334.35	0.00055542	0.00503235
2334.83	4.88281e-05	0.0100891
2335.29	-0.699005	-0.0218994
2335.75	0.000842285	0.00503113
2336.23	0.000628662	0.0100922
2336.69	-0.697388	-0.0219086
2337.15	-0.000680542	0.00504242
2337.63	0.000234985	0.0101074
2338.09	-0.698273	-0.0218964
2338.55	0.000228882	0.00504303
2339.03	0.000259399	0.0100861
2339.49	-0.697693	-0.0218994
2339.95	-0.000613403	0.00504822
2340.43	0.00057373	0.0101013
2340.89	-0.698822	-0.0218964
2341.35	-0.000567627	0.00504852
2341.83	0.000375366	0.0101074
2342.29	-0.698029	-0.0218903
2342.75	-0.00017395	0.00504425
2343.23	5.49316e-05	0.0101044
2343.69	-0.698181	-0.0218933
2344.15	0.000552368	0.00504669
2344.63	0.000485229	0.0100922
2345.09	-0.698578	-0.0218964
2345.55	-0.000494385	0.00505341
2346.03	0.000518799	0.0100983
2346.49	-0.697174	-0.0218994
2346.95	-0.000375366	0.00505005
2347.43	-0.000808716	0.0101044
2347.89	-0.69812	-0.0219025
2348.35	-0.000491333	0.00505646
2348.83	0.000579834	0.0100891
2349.29	-0.697571	-0.0219116
2349.75	-0.000350952	0.00504852
2350.23	1.2207e-05	0.0100861
2350.69	-0.697388	-0.0218994
2351.15	0.000906372	0.00504669
2351.63	0.000521851	0.010083
2352.09	-0.698914	-0.0218964
2352.55	0.00093689	0.00504639
2353.03	0.000476074	0.0100922
2353.49	-0.697601	-0.0218903
2353.95	-0.000653076	0.00505951
2354.43	-0.000161743	0.01008
2354.89	-0.698975	-0.0218872
2355.35	0.000735474	0.00504761
2355.83	-0.000973511	0.0100891
2356.29	-0.697388	-0.0218872
2356.75	-0.000598145	0.00505981
2357.23	-0.000701904	0.010083
2357.69	-0.697205	-0.0218903
2358.15	-8.54492e-05	0.00505493
2358.63	0.000683594	0.0100891
2359.09	-0.698883	-0.0218842
2359.55	-0.000521851	0.00505981
2360.03	0.000668335	0.010083
2360.49	-0.698669	-0.0218872
2360.95	-0.000747681	0.00506165
2361.43	-0.000952148	0.0100861
2361.89	-0.698792	-0.021875
2362.35	0.000537109	0.00505981
2362.83	0.000534058	0.0100769
2363.29	-0.699036	-0.0218842
2363.75	0.000256348	0.00506256
2364.23	0.000643921	0.010083
2364.69	-0.698975	-0.0218872
2365.15	0.000588989	0.00505707
2365.63	0.000570679	0.01008
2366.09	-0.697784	-0.0218903
2366.55	0.00109863	0.00506134
2367.03	0.000274658	0.0100952
2367.49	-0.697296	-0.0218872
2367.95	0.000927734	0.00506042
2368.43	0.00015564	0.0100769
2368.89	-0.698242	-0.0218811
2369.35	-0.000656128	0.00507294
2369.83	-0.000170898	0.0100922
2370.29	-0.698792	-0.0218842
2370.75	-0.000650024	0.00507355
2371.23	-0.000994873	0.010083
2371.69	-0.698853	-0.0218811
2372.15	-0.000775146	0.00507355
2372.63	-0.000665283	0.0100922
2373.09	-0.697449	-0.0218872
2373.55	0.000473022	0.0050705
2374.03	-0.000558472	0.0100739
2374.49	-0.698669	-0.0218658
2374.95	-0.00067749	0.00507965
2375.43	-0.000869751	0.0100861
2375.89	-0.69812	-0.0218719
2376.35	0.000274658	0.00507355
2376.83	0.000619507	0.0100677
2377.29	-0.699005	-0.0218781
2377.75	-0.000717163	0.005078125
2378.23	-0.00105286	0.0100739
2378.69	-0.698883	-0.021875
2379.15	0.000927734	0.00506714
2379.63	-5.18799e-05	0.0100647
2380.09	-0.698914	-0.0218719
2380.55	-0.000653076	0.00508057
2381.03	-0.000897217	0.010083
2381.49	-0.697174	-0.0218872
2381.95	-0.000558472	0.00508301
2382.43	0.000546265	0.01008
2382.89	-0.698944	-0.0218719
2383.35	3.05176e-06	0.00508209
2383.83	0.000695801	0.0100769
2384.29	-0.698425	-0.0218719
2384.75	-0.00057373	0.00508759
2385.23	-0.00098877	0.0100769
2385.69	-0.698486	-0.0218719
2386.15	-0.000640869	0.00508728
2386.63	-0.000939941	0.0100769
2387.09	-0.697906	-0.0218872
2387.55	-0.000616455	0.00508942
2388.03	0.000280762	0.01008
2388.49	-0.698151	-0.0218872
2388.95	0.000415039	0.0050824
2389.43	-0.000119019	0.0100586
2389.89	-0.697296	-0.021875
2390.35	-0.00022583	0.00507965
2390.83	0.00010376	0.0100586
2391.29	-0.698151	-0.0218811
2391.75	-2.44141e-05	0.00508301
2392.23	-0.000326538	0.0100616
2392.69	-0.697235	-0.0218811
2393.15	-0.000634766	0.00509247
2393.63	0.000317383	0.0100708
2394.09	-0.698822	-0.0218658
2394.55	0.000958252	0.00508057
2395.03	-0.000537109	0.0100616
2395.49	-0.697296	-0.0218811
2395.95	0.000970459	0.00508026
2396.43	0.000613403	0.0100586
2396.89	-0.698853	-0.0218658
2397.35	2.13623e-05	0.00509155
2397.83	0.000115967	0.0100739
2398.29	-0.697479	-0.021875
2398.75	0.00065918	0.0050827
2399.23	-0.000930786	0.0100739
2399.69	-0.697968	-0.0218842
2400.15	-0.000396729	0.00509491
2400.63	0.00067749	0.0100586
2401.09	-0.697601	-0.0218719
2401.55	0.000900269	0.00509094
2402.03	9.76562e-05	0.0100739
2402.49	-0.697876	-0.021875
2402.95	0.000994873	0.00508728
2403.43	0.000378418	0.0100616
2403.89	-0.699005	-0.0218628
2404.35	0.000344849	0.00509491
2404.83	-0.000753784	0.0100708
2405.29	-0.698517	-0.0218781
2405.75	0.000814819	0.00509033
2406.23	0.000445557	0.0100586
2406.69	-0.697296	-0.0218781
2407.15	2.74658e-05	0.00509888
2407.63	-6.40869e-05	0.0100464
2408.09	-0.698944	-0.0218689
2408.55	0.000500488	0.00508881
2409.03	-0.000308228	0.0100708
2409.49	-0.698883	-0.0218658
2409.95	0.000469971	0.00509766
2410.43	-0.000265503	0.0100586
2410.89	-0.697754	-0.0218628
2411.35	-0.000219727	0.00510315
2411.83	3.05176e-06	0.0100616
2412.29	-0.698151	-0.0218781
2412.75	0.000973511	0.00509399
2413.23	0.00020752	0.0100616
2413.69	-0.698792	-0.0218719
2414.15	-0.000323486	0.00509766
2414.63	0.000747681	0.0100525
2415.09	-0.698303	-0.021875
2415.55	-0.000375366	0.00510193
2416.03	-0.000521851	0.0100616
2416.49	-0.697113	-0.0218689
2416.95	-0.000637817	0.00510712
2417.43	-0.00090332	0.0100555
2417.89	-0.697418	-0.0218719
2418.35	-0.000698853	0.00510864
2418.83	0.000683594	0.0100433
2419.29	-0.697815	-0.0218628
2419.75	0	0.00511108
2420.23	0.000296021	0.0100433
2420.69	-0.698578	-0.0218689
2421.15	-0.000308228	0.00510895
2421.63	0.000466919	0.0100433
2422.09	-0.697327	-0.0218781
2422.55	-0.000534058	0.00511078
2423.03	0.000469971	0.0100433
2423.49	-0.697449	-0.021875
2423.95	0.00088501	0.00510132
2424.43	4.57764e-05	0.0100342
2424.89	-0.697723	-0.0218628
2425.35	-0.000515747	0.00511627
2425.83	0.00065918	0.0100494
2426.29	-0.697357	-0.0218689
2426.75	-0.000704956	0.00511475
2427.23	0.000338745	0.0100311
2427.69	-0.698853	-0.0218689
2428.15	-0.00012207	0.00511261
2428.63	-0.000927734	0.0100494
2429.09	-0.699036	-0.0218628
2429.55	0.000274658	0.00510651
2430.03	-0.00057373	0.0100555
2430.49	-0.697754	-0.0218719
2430.95	-1.2207e-05	0.00510895
2431.43	0.000305176	0.0100403
2431.89	-0.698792	-0.0218628
2432.35	-0.000552368	0.00511902
2432.83	-0.000946045	0.0100372
2433.29	-0.698151	-0.0218597
2433.75	0.000857544	0.00510834
2434.23	-0.000204468	0.0100464
2434.69	-0.698517	-0.0218506
2435.15	0.000918579	0.00510559
2435.63	0.000601196	0.0100342
2436.09	-0.697327	-0.021875
2436.55	0.000283813	0.00511444
2437.03	0.000296021	0.0100372
2437.49	-0.697632	-0.0218719
2437.95	0.000698853	0.00510712
2438.43	2.13623e-05	0.0100311
2438.89	-0.697357	-0.0218689
2439.35	0.00100708	0.005112
2439.83	0.000643921	0.0100281
2440.29	-0.69873	-0.0218597
2440.75	-0.000698853	0.00512207
2441.23	-0.000939941	0.0100342
2441.69	-0.69751	-0.0218719
2442.15	0.000183105	0.00511719
2442.63	0.000531006	0.010025
2443.09	-0.698181	-0.0218567
2443.55	0.000653076	0.00511017
2444.03	-0.000894165	0.0100342
2444.49	-0.69809	-0.0218689
2444.95	-0.000686646	0.00512512
2445.43	0.000476074	0.0100372
2445.89	-0.698242	-0.0218658
2446.35	0.000402832	0.00511292
2446.83	-0.000912476	0.0100311
2447.29	-0.697449	-0.0218689
2447.75	0.000582886	0.00511414
2448.23	-0.000970459	0.0100311
2448.69	-0.699036	-0.0218536
2449.15	0.000775146	0.00511658
2449.63	-0.000222778	0.0100098
2450.09	-0.697998	-0.0218781
2450.55	0.000863647	0.00512024
2451.03	-0.000970459	0.0100433
2451.49	-0.698822	-0.021875
2451.95	-0.000631714	0.00514038
2452.43	0.00017395	0.010022
2452.89	-0.697418	-0.0218781
2453.35	0.000811768	0.00513306
2453.83	-0.00100708	0.0100311
2454.29	-0.698425	-0.0218628
2454.75	-0.000650024	0.00514191
2455.23	-0.00102234	0.0100311
2455.69	-0.69812	-0.0218628
2456.15	-3.66211e-05	0.00513397
2456.63	-0.000476074	0.010022
2457.09	-0.698669	-0.0218597
2457.55	-0.000543213	0.00513428
2458.03	-0.000680542	0.0100189
2458.49	-0.698761	-0.0218567
2458.95	0.000457764	0.00513611
2459.43	0.000445557	0.010025
2459.89	-0.698883	-0.0218719
2460.35	0.000839233	0.00513184
2460.83	0.000613403	0.0100189
2461.29	-0.697327	-0.021875
2461.75	0.000405884	0.00513885
2462.23	-0.00012207	0.0100311
2462.69	-0.697327	-0.0218719
2463.15	0.00105591	0.00513428
2463.63	-0.00104675	0.0100189
2464.09	-0.697845	-0.0218628
2464.55	0.000906372	0.00513275
2465.03	0.000320435	0.010022
2465.49	-0.698059	-0.021875
2465.95	-0.000689697	0.00514526
2466.43	-0.00090332	0.010025
2466.89	-0.698151	-0.0218689
2467.35	0.000927734	0.00513489
2467.83	0.000183105	0.0100037
2468.29	-0.6987	-0.0218445
2468.75	0.000958252	0.00513397
2469.23	-0.000576782	0.0100067
2469.69	-0.697784	-0.0218689
2470.15	-0.00020752	0.00514679
2470.63	-0.000219727	0.010025
2471.09	-0.697662	-0.0218597
2471.55	0.00085144	0.00513489
2472.03	0.000216675	0.0100006
2472.49	-0.697693	-0.0218475
2472.95	-0.000631714	0.00514801
2473.43	0.000387573	0.0100067
2473.89	-0.698669	-0.0218628
2474.35	0.000701904	0.00514008
2474.83	-0.000881958	0.0100037
2475.29	-0.697296	-0.0218628
2475.75	0.000180054	0.00514801
2476.23	0.000549316	0.0100067
2476.69	-0.697845	-0.0218506
2477.15	0.000579834	0.00514221
2477.63	3.05176e-06	0.00999451
2478.09	-0.698914	-0.0218506
2478.55	-0.000662231	0.00515076
2479.03	0.000131226	0.0100128
2479.49	-0.699036	-0.0218475
2479.95	0.000369263	0.00513855
2480.43	-0.00072937	0.0100067
2480.89	-0.697693	-0.0218597
2481.35	-0.000180054	0.00514862
2481.83	-0.000567627	0.00999146
2482.29	-0.697662	-0.0218597
2482.75	-0.000512695	0.00515076
2483.23	0.000793457	0.0100006
2483.69	-0.697235	-0.0218567
2484.15	0.000878906	0.00513702
2484.63	-0.000860596	0.0100006
2485.09	-0.698822	-0.0218414
2485.55	0.000653076	0.00514191
2486.03	0.000668335	0.0099884
2486.49	-0.698547	-0.0218384
2486.95	0.000814819	0.00513794
2487.43	-0.000753784	0.0100006
2487.89	-0.697479	-0.0218597
2488.35	0.000756836	0.00514587
2488.83	0.000360107	0.00998535
2489.29	-0.697845	-0.0218414
2489.75	3.05176e-06	0.00514923
2490.23	0.000335693	0.00999451
2490.69	-0.697845	-0.0218597
2491.15	0.000497437	0.00514191
2491.63	-0.000177002	0.00997925
2492.09	-0.697357	-0.0218597
2492.55	-0.000558472	0.00515381
2493.03	0.000619507	0.00998535
2493.49	-0.698944	-0.0218414
2493.95	0.000772095	0.00514648
2494.43	-0.000708008	0.00998535
2494.89	-0.697937	-0.0218567
2495.35	0.000753784	0.00514099
2495.83	0.000662231	0.0099823
2496.29	-0.698456	-0.0218384
2496.75	0.00065918	0.0051474
2497.23	0.000326538	0.00998535
2497.69	-0.697235	-0.0218506
2498.15	-0.000665283	0.00515594
2498.63	-0.00057373	0.00999146
2499.09	-0.698822	-0.0218475
2499.55	0.000942993	0.00514526
2500.03	-0.000622559	0.0099762
2500.49	-0.697815	-0.0218536
2500.95	0.000918579	0.00514557
2501.43	0.000836182	0.0099823
2501.89	-0.698181	-0.0218384
2502.35	0.000561523	0.0051532
2502.83	0.000250244	0.00999146
2503.29	-0.698242	-0.0218506
2503.75	-0.000506592	0.00516113
2504.23	-0.000402832	0.00999146
2504.69	-0.698975	-0.0218506
2505.15	-0.000656128	0.00515808
2505.63	-0.000613403	0.00997925
2506.09	-0.698761	-0.0218323
2506.55	-0.000326538	0.00515594
2507.03	-0.00057373	0.00999146
2507.49	-0.697327	-0.0218506
2507.95	0.00101929	0.00515472
2508.43	0.000708008	0.00997925
2508.89	-0.698425	-0.0218506
2509.35	0.000570679	0.00515778
2509.83	-0.000106812	0.00997314
2510.29	-0.698761	-0.0218353
2510.75	-0.000195313	0.00515961
2511.23	-0.000280762	0.00997925
2511.69	-0.698364	-0.0218323
2512.15	-0.00010376	0.00516388
2512.63	-0.00072937	0.0099823
2513.09	-0.698822	-0.0218262
2513.55	-0.000653076	0.00516022
2514.03	0.000708008	0.00996399
2514.49	-0.698761	-0.0218384
2514.95	-0.00065918	0.00516602
2515.43	0.000253296	0.00995789
2515.89	-0.697571	-0.0218384
2516.35	0.000958252	0.00515656
2516.83	-0.000738525	0.0099762
2517.29	-0.697784	-0.0218292
2517.75	-0.000701904	0.00516998
2518.23	0.000668335	0.00996399
2518.69	-0.697266	-0.0218445
2519.15	-0.000531006	0.00517029
2519.63	0.000698853	0.00996399
2520.09	-0.697357	-0.0218384
2520.55	0.000839233	0.00516327
2521.03	0.000296021	0.00995483
2521.49	-0.698181	-0.0218323
2521.95	-0.000128174	0.00516815
2522.43	0.00062561	0.00996399
2522.89	-0.698944	-0.0218353
2523.35	-0.000283813	0.00516571
2523.83	-0.000524902	0.00995789
2524.29	-0.697266	-0.0218414
2524.75	0.000576782	0.00516418
2525.23	-0.000668335	0.00997009
2525.69	-0.698486	-0.0218262
2526.15	0.00100098	0.00516022
2526.63	-0.000921631	0.00997009
2527.09	-0.697845	-0.0218353
2527.55	0.000985718	0.00516113
2528.03	0.00050354	0.00996704
2528.49	-0.698059	-0.0218414
2528.95	-2.44141e-05	0.00516907
2529.43	-0.000436401	0.00995483
2529.89	-0.698883	-0.0218384
2530.35	0.00093689	0.00516388
2530.83	0.000686646	0.00995789
2531.29	-0.698273	-0.0218414
2531.75	0.000827026	0.00516815
2532.23	-0.0009552	0.00996094
2532.69	-0.698578	-0.0218231
2533.15	-0.000805664	0.00517487
2533.63	0.000753784	0.00996399
2534.09	-0.697418	-0.0218414
2534.55	0.000857544	0.00516663
2535.03	0.000134277	0.00996094
2535.49	-0.698029	-0.0218414
2535.95	0.000485229	0.00516937
2536.43	0.000680542	0.00995178
2536.89	-0.698517	-0.0218506
2537.35	-0.000695801	0.00518341
2537.83	0.000567627	0.00994873
2538.29	-0.697845	-0.0218506
2538.75	9.76562e-05	0.00518005
2539.23	-0.000460815	0.00995178
2539.69	-0.698578	-0.0218414
2540.15	6.10352e-06	0.00517365
2540.63	0.000515747	0.00994263
2541.09	-0.698883	-0.0218262
2541.55	-0.000457764	0.00518127
2542.03	-0.000796509	0.00995178
2542.49	-0.69754	-0.0218414
2542.95	0.000241089	0.00518188
2543.43	-0.000793457	0.00995789
2543.89	-0.697235	-0.0218323
2544.35	7.62939e-05	0.0051828
2544.83	-0.000579834	0.00995789
2545.29	-0.699036	-0.0218262
2545.75	0.000674438	0.00518005
2546.23	0.000436401	0.00995483
2546.69	-0.697723	-0.0218353
2547.15	0.000137329	0.00518677
2547.63	0.00072937	0.00995483
2548.09	-0.698151	-0.0218475
2548.55	0.000201416	0.00518402
2549.03	0.000650024	0.00993958
2549.49	-0.697357	-0.0218292
2549.95	-0.000701904	0.00518921
2550.43	-0.000112915	0.00995483
2550.89	-0.698914	-0.0218292
2551.35	0.000942993	0.00517731
2551.83	-0.00093689	0.00994873
2552.29	-0.697266	-0.0218414
2552.75	0.000204468	0.00519104
2553.23	0.000823975	0.00994263
2553.69	-0.698486	-0.0218231
2554.15	-0.000497437	0.00519196
2554.63	0.000244141	0.00994263
2555.09	-0.698242	-0.0218384
2555.55	-0.000701904	0.00519226
2556.03	-0.000949097	0.00994568
2556.49	-0.697601	-0.0218201
2556.95	0.000506592	0.00518188
2557.43	-0.000262451	0.00992737
2557.89	-0.697296	-0.0218384
2558.35	-0.000222778	0.00519409
2558.83	-0.000759888	0.00995178
2559.29	-0.698639	-0.021817
2559.75	-0.000744629	0.0051886
2560.23	-0.00050354	0.00994568
2560.69	-0.697296	-0.0218292
2561.15	0.000128174	0.00518555
2561.63	0.000167847	0.00993652
2562.09	-0.697815	-0.0218323
2562.55	-0.000421143	0.00519196
2563.03	-0.000256348	0.00992432
2563.49	-0.699066	-0.0218262
2563.95	0.00038147	0.00519104
2564.43	-0.00090332	0.00993958
2564.89	-0.697906	-0.0218201
2565.35	-0.000680542	0.00519653
2565.83	0.00062561	0.00992432
2566.29	-0.697876	-0.0218292
2566.75	-0.000759888	0.00519928
2567.23	0.000793457	0.00993652
2567.69	-0.699005	-0.0218231
2568.15	-0.000308228	0.00519501
2568.63	0.000643921	0.00993042
2569.09	-0.698334	-0.0218262
2569.55	0.000186157	0.00519073
2570.03	0.000656128	0.00992737
2570.49	-0.698059	-0.0218109
2570.95	6.10352e-05	0.00519226
2571.43	-0.000402832	0.00993652
2571.89	-0.697998	-0.021817
2572.35	0.000717163	0.00518921
2572.83	-0.00088501	0.00993042
2573.29	-0.698669	-0.0218109
2573.75	-0.000708008	0.00519806
2574.23	0.000738525	0.00992432
2574.69	-0.698639	-0.0218109
2575.15	-0.000561523	0.00520203
2575.63	0.00010376	0.00991516
2576.09	-0.698944	-0.0218201
2576.55	-0.000375366	0.0052005
2577.03	0.000518799	0.00991516
2577.49	-0.698242	-0.021814
2577.95	-0.000686646	0.00520386
2578.43	0.000552368	0.00991516
2578.89	-0.697327	-0.0218292
2579.35	-0.000488281	0.0052002
2579.83	-0.000482178	0.00993042
2580.29	-0.698486	-0.021817
2580.75	0.000646973	0.00519989
2581.23	0.00057373	0.00990906
2581.69	-0.697449	-0.0218262
2582.15	-0.000558472	0.0052063
2582.63	0.000244141	0.00992432
2583.09	-0.698883	-0.021814
2583.55	0.000924683	0.0051947
2584.03	0.000579834	0.00990601
2584.49	-0.699005	-0.0218048
2584.95	0.000952148	0.00519653
2585.43	-0.000167847	0.00992737
2585.89	-0.698059	-0.0218231
2586.35	0.000726318	0.0052005
2586.83	-0.00085144	0.00990906
2587.29	-0.697357	-0.021817
2587.75	7.62939e-05	0.00520905
2588.23	-0.000799561	0.00990601
2588.69	-0.697357	-0.0218262
2589.15	-0.000491333	0.00520721
2589.63	-0.000894165	0.00991516
2590.09	-0.697632	-0.0218262
2590.55	0.000289917	0.00520599
2591.03	0.000631714	0.00991211
2591.49	-0.697937	-0.0218048
2591.95	-0.000363159	0.00520752
2592.43	-0.000793457	0.00990601
2592.89	-0.697479	-0.0218231
2593.35	0.00022583	0.00520264
2593.83	-0.000366211	0.00989685
2594.29	-0.698334	-0.0218231
2594.75	-0.000668335	0.00521088
2595.23	-0.00102539	0.00990906
2595.69	-0.698944	-0.021817
2596.15	0.000906372	0.00520294
2596.63	-0.000378418	0.00991821
2597.09	-0.697937	-0.0218018
2597.55	-0.00067749	0.00521545
2598.03	0.000534058	0.00989075
2598.49	-0.697174	-0.021817
2598.95	0.000665283	0.00520416
2599.43	0.000537109	0.00990295
2599.89	-0.697815	-0.0218109
2600.35	0.000299072	0.00521271
2600.83	-0.000119019	0.00991516
2601.29	-0.697601	-0.0218262
2601.75	0.000845337	0.00520569
2602.23	-0.000799561	0.00990295
2602.69	-0.697998	-0.0218231
2603.15	0.000787354	0.00520538
2603.63	-0.000753784	0.00990601
2604.09	-0.698181	-0.0217987
2604.55	-0.000482178	0.00521576
2605.03	0.000637817	0.0098999
2605.49	-0.697235	-0.021814
2605.95	0.000375366	0.00521423
2606.43	-0.000881958	0.00990295
2606.89	-0.698883	-0.0218048
2607.35	0.000918579	0.00520782
2607.83	0.000265503	0.00990601
2608.29	-0.698578	-0.0218079
2608.75	-1.52588e-05	0.00522064
2609.23	0.000195313	0.00989075
2609.69	-0.697479	-0.0218109
2610.15	-0.000653076	0.00522217
2610.63	0.000271606	0.0098999
2611.09	-0.697754	-0.021814
2611.55	0.000552368	0.00521027
2612.03	-0.000720215	0.00990601
2612.49	-0.698273	-0.0217987
2612.95	-6.71387e-05	0.00522125
2613.43	-6.71387e-05	0.00988159
2613.89	-0.698517	-0.0218018
2614.35	-0.000445557	0.00522491
2614.83	-0.000942993	0.0098938
2615.29	-0.698853	-0.0218079
2615.75	-0.000653076	0.00522247
2616.23	-0.00010376	0.00988464
2616.69	-0.698029	-0.021814
2617.15	0.000961304	0.00521393
2617.63	-0.000854492	0.0098877
2618.09	-0.698029	-0.021814
2618.55	0.000906372	0.00521545
2619.03	-0.000726318	0.00988464
2619.49	-0.698151	-0.021817
2619.95	0.000811768	0.00521515
2620.43	0.000161743	0.00987854
2620.89	-0.698486	-0.0217957
2621.35	-0.000689697	0.00522888
2621.83	0.000247192	0.0098938
2622.29	-0.69809	-0.0218079
2622.75	-0.00062561	0.0052298
2623.23	7.93457e-05	0.00988159
2623.69	-0.698273	-0.0217987
2624.15	6.10352e-06	0.00522583
2624.63	-0.000561523	0.00987854
2625.09	-0.698212	-0.0217957
2625.55	0.000646973	0.00521698
2626.03	-0.000674438	0.00989075
2626.49	-0.697266	-0.0218079
2626.95	-0.000619507	0.00522919
2627.43	0.000540161	0.00987549
2627.89	-0.697327	-0.0218079
2628.35	-0.000357056	0.00523071
2628.83	-0.000900269	0.00988464
2629.29	-0.698853	-0.0217987
2629.75	-0.000390625	0.005224
2630.23	0.00071106	0.00988464
2630.69	-0.697296	-0.0218079
2631.15	-0.00057373	0.0052298
2631.63	0.000195313	0.00988464
2632.09	-0.698975	-0.0217987
2632.55	0.000631714	0.00522308
2633.03	-0.000924683	0.00988159
2633.49	-0.69751	-0.0218079
2633.95	-0.000201416	0.00523407
2634.43	0.000643921	0.00987549
2634.89	-0.698395	-0.0218018
2635.35	-0.000561523	0.00523132
2635.83	-0.000912476	0.00987854
2636.29	-0.697632	-0.0218079
2636.75	-0.000741577	0.00523651
2637.23	-0.000927734	0.00986938
2637.69	-0.697418	-0.0218048
2638.15	3.05176e-06	0.00523468
2638.63	0.000650024	0.00987244
2639.09	-0.697388	-0.0218048
2639.55	-0.000509644	0.00523865
2640.03	0.000656128	0.00986633
2640.49	-0.698273	-0.0218109
2640.95	-0.000613403	0.00523956
2641.43	-0.000247192	0.00988159
2641.89	-0.698914	-0.0217957
2642.35	0.000332642	0.00523041
2642.83	-0.000704956	0.00986633
2643.29	-0.697845	-0.0217926
2643.75	0.000518799	0.00522644
2644.23	-0.000964355	0.00987244
2644.69	-0.698761	-0.0217957
2645.15	-0.00071106	0.00523956
2645.63	-9.76562e-05	0.00985718
2646.09	-0.697906	-0.0218018
2646.55	-0.000463867	0.00523804
2647.03	0.000701904	0.00986938
2647.49	-0.697479	-0.0217896
2647.95	-0.000619507	0.00523956
2648.43	0.000354004	0.00985413
2648.89	-0.698883	-0.0217865
2649.35	-0.000656128	0.00524139
2649.83	-0.00085144	0.00986328
2650.29	-0.69812	-0.0217865
2650.75	0.00101013	0.00523254
2651.23	0.000756836	0.00986328
2651.69	-0.697327	-0.0217957
2652.15	-0.000512695	0.00524292
2652.63	-0.000640869	0.00986023
2653.09	-0.698761	-0.0217896
2653.55	0.000393677	0.0052359
2654.03	0.000616455	0.00985718
2654.49	-0.699036	-0.0217896
2654.95	-0.000158691	0.00524628
2655.43	-0.000665283	0.00986633
2655.89	-0.697632	-0.0217957
2656.35	0.000949097	0.00523499
2656.83	0.000653076	0.00986328
2657.29	-0.698914	-0.0217896
2657.75	0.000601196	0.00523346
2658.23	0.000814819	0.00985718
2658.69	-0.69751	-0.0217957
2659.15	-0.000338745	0.00524902
2659.63	-0.000595093	0.00985413
2660.09	-0.698853	-0.0217804
2660.55	-0.000704956	0.00524963
2661.03	0.000463867	0.00985107
2661.49	-0.69809	-0.0217804
2661.95	-0.000186157	0.00524994
2662.43	0.000662231	0.00985107
2662.89	-0.698456	-0.0218018
2663.35	-2.44141e-05	0.00524902
2663.83	0.000283813	0.00985413
2664.29	-0.698975	-0.0217865
2664.75	0.000830078	0.00524689
2665.23	0.000827026	0.00985718
2665.69	-0.698029	-0.0217834
2666.15	-0.000415039	0.00525177
2666.63	-0.000817871	0.00985413
2667.09	-0.698669	-0.0217773
2667.55	-0.000570679	0.0052536
2668.03	-0.000650024	0.00986633
2668.49	-0.697479	-0.0217987
2668.95	-0.000115967	0.00525269
2669.43	-0.000387573	0.00986328
2669.89	-0.698822	-0.0217865
2670.35	0.000741577	0.00524628
2670.83	-0.00027771	0.00983887
2671.29	-0.698364	-0.0217896
2671.75	0.000158691	0.00524445
2672.23	-0.000793457	0.00985718
2672.69	-0.697418	-0.0217987
2673.15	-0.000479126	0.00525909
2673.63	0.000570679	0.00984802
2674.09	-0.69812	-0.0217987
2674.55	-0.000186157	0.00525848
2675.03	-0.000692749	0.00985413
2675.49	-0.698029	-0.0217987
2675.95	-3.05176e-06	0.00525757
2676.43	-0.000894165	0.00984802
2676.89	-0.698914	-0.0217865
2677.35	0.000900269	0.00524872
2677.83	-0.000610352	0.00985107
2678.29	-0.698425	-0.0217773
2678.75	0.000137329	0.00526215
2679.23	0.000512695	0.00983582
2679.69	-0.697998	-0.0217834
2680.15	0.000927734	0.00524811
2680.63	-0.000805664	0.00983582
2681.09	-0.697693	-0.0217865
2681.55	0.000900269	0.00525085
2682.03	0.000463867	0.00984802
2682.49	-0.698029	-0.0217834
2682.95	0.000732422	0.00525055
2683.43	0.000610352	0.00983582
2683.89	-0.697662	-0.0217804
2684.35	0.000872803	0.00525085
2684.83	0.00065918	0.00983582
2685.29	-0.698761	-0.0217865
2685.75	-0.000509644	0.0052652
2686.23	-0.000231934	0.00985107
2686.69	-0.698181	-0.0217987
2687.15	-0.000372314	0.00526703
2687.63	-0.000918579	0.00984497
2688.09	-0.697296	-0.0217896
2688.55	-0.00065918	0.00526611
2689.03	-0.000875854	0.00984192
2689.49	-0.698975	-0.0217804
2689.95	0.000759888	0.00525635
2690.43	0.000299072	0.00984192
2690.89	-0.698792	-0.0217712
2691.35	-0.000512695	0.00526367
2691.83	0.000576782	0.00983276
2692.29	-0.698059	-0.0217926
2692.75	0.000384521	0.00525726
2693.23	-0.000494385	0.00984802
2693.69	-0.697327	-0.0217896
2694.15	0.000320435	0.00525757
2694.63	-0.00102234	0.00983582
2695.09	-0.697815	-0.0217834
2695.55	-0.00020752	0.00526581
2696.03	-0.000384521	0.00984192
2696.49	-0.698914	-0.0217804
2696.95	0.000933838	0.00526123
2697.43	-0.00043335	0.00982666
2697.89	-0.697754	-0.0217743
2698.35	5.79834e-05	0.00526917
2698.83	0.00043335	0.00983582
2699.29	-0.697662	-0.0217957
2699.75	0.000790405	0.00526062
2700.23	0.000463867	0.00982361
2700.69	-0.698883	-0.0217743
2701.15	-0.000219727	0.00526428
2701.63	0.000558472	0.00982361
2702.09	-0.698273	-0.0217743
2702.55	-0.000497437	0.00527588
2703.03	0.000561523	0.00982361
2703.49	-0.697601	-0.0217957
2703.95	0.000491333	0.00526825
2704.43	0.000424194	0.00982971
2704.89	-0.698669	-0.0217773
2705.35	-0.000494385	0.00527008
2705.83	-0.000741577	0.00983887
2706.29	-0.698547	-0.0217926
2706.75	0.000387573	0.00527008
2707.23	0.000341797	0.00981445
2707.69	-0.698486	-0.0217834
2708.15	0.000140381	0.0052655
2708.63	-0.00083313	0.00982971
2709.09	-0.697418	-0.0217896
2709.55	-0.00078125	0.0052774
2710.03	-0.000872803	0.00982971
2710.49	-0.697357	-0.0217896
2710.95	0.000384521	0.00527191
2711.43	0.000646973	0.00982056
2711.89	-0.697906	-0.0217804
2712.35	-0.00065918	0.00527771
2712.83	0.000582886	0.0098114
2713.29	-0.697632	-0.0217957
2713.75	-0.000665283	0.00527985
2714.23	-0.00050354	0.00981445
2714.69	-0.698853	-0.0217712
2715.15	-8.23975e-05	0.00527863
2715.63	-0.000427246	0.00983582
2716.09	-0.697357	-0.0217865
2716.55	0.000463867	0.00527924
2717.03	-0.000906372	0.00982971
2717.49	-0.698273	-0.0217926
2717.95	0.000408936	0.0052774
2718.43	-0.000930786	0.00982361
2718.89	-0.698669	-0.0217773
2719.35	-5.18799e-05	0.0052774
2719.83	0.000442505	0.0098053
2720.29	-0.698944	-0.0217896
2720.75	0.000854492	0.00527466
2721.23	-0.000656128	0.00982666
2721.69	-0.698029	-0.0217743
2722.15	0.000927734	0.00527405
2722.63	0.000683594	0.0098114
2723.09	-0.698059	-0.0217865
2723.55	0.000863647	0.00527344
2724.03	0.000286865	0.0098053
2724.49	-0.697296	-0.0217834
2724.95	-0.000778198	0.00528687
2725.43	-0.000949097	0.0098175
2725.89	-0.698883	-0.0217743
2726.35	0.00078125	0.00527771
2726.83	-0.000375366	0.00982056
2727.29	-0.698364	-0.0217712
2727.75	-0.000228882	0.00528625
2728.23	-0.000506592	0.0098175
2728.69	-0.698975	-0.0217712
2729.15	-0.00065918	0.00528625
2729.63	-0.000222778	0.00982056
2730.09	-0.69754	-0.0217896
2730.55	-0.000686646	0.00528839
2731.03	0.000701904	0.0098053
2731.49	-0.698608	-0.0217651
2731.95	-0.000686646	0.00528503
2732.43	-0.00102234	0.0098114
2732.89	-0.698334	-0.0217682
2733.35	7.01904e-05	0.00528839
2733.83	-0.000866699	0.00981445
2734.29	-0.698486	-0.0217682
2734.75	0.000350952	0.00528595
2735.23	-0.000292969	0.0098175
2735.69	-0.6987	-0.0217682
2736.15	0.000897217	0.00527924
2736.63	0.00062561	0.00979919
2737.09	-0.698334	-0.0217651
2737.55	0.000338745	0.00528076
2738.03	6.10352e-06	0.00979004
2738.49	-0.697296	-0.0217773
2738.95	-0.000604248	0.00529388
2739.43	-0.00012207	0.00978699
2739.89	-0.698059	-0.0217773
2740.35	-0.000274658	0.00528687
2740.83	9.46045e-05	0.00980225
2741.29	-0.697906	-0.0217865
2741.75	-0.000146484	0.00528595
2742.23	0.000637817	0.00979309
2742.69	-0.699066	-0.0217682
2743.15	0.000750732	0.00528046
2743.63	0.00050354	0.00979309
2744.09	-0.699005	-0.0217651
2744.55	-1.52588e-05	0.00529144
2745.03	-0.000857544	0.00979309
2745.49	-0.697571	-0.0217773
2745.95	3.05176e-06	0.00528229
2746.43	-0.000509644	0.0098053
2746.89	-0.698914	-0.0217682
2747.35	0.00022583	0.00529327
2747.83	0.000753784	0.00979004
2748.29	-0.698456	-0.0217621
2748.75	-0.00065918	0.0052951
2749.23	3.96729e-05	0.00979309
2749.69	-0.698212	-0.0217621
2750.15	-0.00065918	0.00529724
2750.63	0.000717163	0.00979004
2751.09	-0.697968	-0.0217804
2751.55	-0.000265503	0.00529205
2752.03	0.000253296	0.00979309
2752.49	-0.697296	-0.0217712
2752.95	0.000692749	0.00528503
2753.43	-0.000787354	0.00979919
2753.89	-0.697327	-0.0217682
2754.35	-0.000579834	0.00529999
2754.83	0.000354004	0.00977478
2755.29	-0.697662	-0.0217651
2755.75	0.000723267	0.00529388
2756.23	6.10352e-06	0.00977478
2756.69	-0.697968	-0.021759
2757.15	0.000192261	0.00528961
2757.63	-0.000622559	0.00979614
2758.09	-0.698944	-0.0217621
2758.55	0.000576782	0.0052887
2759.03	0.000106812	0.00978699
2759.49	-0.697327	-0.0217621
2759.95	-0.000323486	0.00529602
2760.43	-0.000268555	0.00978088
2760.89	-0.698914	-0.0217621
2761.35	-8.23975e-05	0.00529968
2761.83	-0.000686646	0.00979614
2762.29	-0.697266	-0.0217743
2762.75	0.000979614	0.00529633
2763.23	-0.000823975	0.00979614
2763.69	-0.698639	-0.0217621
2764.15	0.000881958	0.00529053
2764.63	-0.0009552	0.00978394
2765.09	-0.698608	-0.0217621
2765.55	0.000924683	0.00529327
2766.03	-0.000744629	0.00977478
2766.49	-0.698425	-0.0217499
2766.95	0.00083313	0.00529633
2767.43	-0.000857544	0.00977783
2767.89	-0.69754	-0.0217529
2768.35	0.000650024	0.00529846
2768.83	-0.000134277	0.009765625
2769.29	-0.697968	-0.021756
2769.75	9.46045e-05	0.00530457
2770.23	0.000494385	0.00978088
2770.69	-0.69809	-0.0217529
2771.15	0.000921631	0.00529724
2771.63	0.000698853	0.00977478
2772.09	-0.69873	-0.0217438
2772.55	-0.000668335	0.00530579
2773.03	-0.000201416	0.00978088
2773.49	-0.698914	-0.0217529
2773.95	0.00078125	0.00529602
2774.43	-0.000942993	0.00977478
2774.89	-0.697357	-0.0217651
2775.35	0.000427246	0.00529846
2775.83	-0.000915527	0.00977783
2776.29	-0.697937	-0.0217682
2776.75	-0.000134277	0.00530304
2777.23	-0.000964355	0.009765625
2777.69	-0.697693	-0.0217651
2778.15	0.000491333	0.00530914
2778.63	0.000732422	0.00976257
2779.09	-0.697418	-0.0217621
2779.55	-5.49316e-05	0.00531311
2780.03	-0.000549316	0.00976257
2780.49	-0.697266	-0.0217651
2780.95	-0.000183105	0.00530823
2781.43	0.000244141	0.00975342
2781.89	-0.697815	-0.0217651
2782.35	-0.000170898	0.00531097
2782.83	-0.000921631	0.00977173
2783.29	-0.697998	-0.0217621
2783.75	0.000723267	0.00530151
2784.23	-0.00083313	0.00977173
2784.69	-0.697937	-0.021759
2785.15	-0.000448608	0.00531067
2785.63	0.000411987	0.009765625
2786.09	-0.698303	-0.021759
2786.55	-0.000369263	0.00531555
2787.03	-0.000888062	0.00976868
2787.49	-0.698792	-0.0217407
2787.95	0.000842285	0.00530701
2788.43	0.000631714	0.009765625
2788.89	-0.698303	-0.0217438
2789.35	0.000839233	0.00530426
2789.83	0.000646973	0.00975342
2790.29	-0.697906	-0.0217438
2790.75	0.000534058	0.00530609
2791.23	-9.15527e-06	0.00976868
2791.69	-0.697174	-0.021756
2792.15	0.000473022	0.00530701
2792.63	0.000265503	0.009765625
2793.09	-0.698761	-0.0217529
2793.55	-0.000683594	0.00531677
2794.03	-0.000692749	0.00974731
2794.49	-0.698242	-0.0217407
2794.95	-0.000787354	0.00531677
2795.43	-0.000973511	0.00975952
2795.89	-0.697876	-0.0217621
2796.35	-0.000497437	0.00532013
2796.83	-0.000674438	0.00975952
2797.29	-0.698669	-0.0217377
2797.75	0.000869751	0.00531036
2798.23	-9.46045e-05	0.00975952
2798.69	-0.698975	-0.0217438
2799.15	-0.000650024	0.00532288
2799.63	-0.000909424	0.00975647
2800.09	-0.698151	-0.021759
2800.55	-0.00065918	0.00532318
2801.03	-0.000479126	0.00975647
2801.49	-0.697357	-0.021759
2801.95	0.000482178	0.00531219
2802.43	-0.000805664	0.00975647
2802.89	-0.697723	-0.021759
2803.35	0.000390625	0.00532166
2803.83	0.000442505	0.00973511
2804.29	-0.698883	-0.0217468
2804.75	-0.000418091	0.00532013
2805.23	-0.000170898	0.00973511
2805.69	-0.69873	-0.0217468
2806.15	-0.000686646	0.0053244
2806.63	-0.000839233	0.00974426
2807.09	-0.698914	-0.0217529
2807.55	0.000741577	0.00531525
2808.03	0.000640869	0.00974121
2808.49	-0.69754	-0.0217499
2808.95	0.000354004	0.00531525
2809.43	-0.000704956	0.00974426
2809.89	-0.697632	-0.021759
2810.35	0.000128174	0.0053244
2810.83	0.00050354	0.00974731
2811.29	-0.697845	-0.0217407
2811.75	0.00105591	0.00531921
2812.23	0.000799561	0.00974426
2812.69	-0.698914	-0.0217407
2813.15	0.000549316	0.00531616
2813.63	0.00078125	0.00974121
2814.09	-0.698547	-0.0217499
2814.55	0.00065918	0.00532135
2815.03	0.000228882	0.00974731
2815.49	-0.698761	-0.0217346
2815.95	9.15527e-05	0.00532166
2816.43	-0.000857544	0.00974426
2816.89	-0.698547	-0.0217346
2817.35	0.000927734	0.00531952
2817.83	-0.0006073	0.00973511
2818.29	-0.697144	-0.0217407
2818.75	0.000921631	0.00532196
2819.23	-0.000775146	0.00973816
2819.69	-0.69809	-0.0217529
2820.15	-0.000723267	0.00533203
2820.63	0.00050354	0.00974121
2821.09	-0.697418	-0.0217499
2821.55	0.000897217	0.00532562
2822.03	0.000369263	0.00974121
2822.49	-0.697266	-0.0217468
2822.95	0.000726318	0.00532318
2823.43	-0.000839233	0.00974121
2823.89	-0.698822	-0.0217316
2824.35	0.000369263	0.00532867
2824.83	-0.000796509	0.00973511
2825.29	-0.698547	-0.0217316
2825.75	-0.000158691	0.00533234
2826.23	0.000250244	0.00971985
2826.69	-0.697327	-0.0217346
2827.15	-0.000482178	0.00533539
2827.63	0.000689697	0.00973206
2828.09	-0.698761	-0.0217285
2828.55	-0.000717163	0.00533569
2829.03	-8.54492e-05	0.00974121
2829.49	-0.698853	-0.0217377
2829.95	0.000662231	0.00533234
2830.43	-0.00103455	0.0097229
2830.89	-0.697357	-0.0217468
2831.35	-0.000463867	0.00533508
2831.83	0.000616455	0.0097168
2832.29	-0.69751	-0.0217499
2832.75	0.000341797	0.0053299
2833.23	-7.32422e-05	0.00973206
2833.69	-0.698792	-0.0217224
2834.15	0.000231934	0.00533386
2834.63	0.000442505	0.00971375
2835.09	-0.699005	-0.0217377
2835.55	0.000119019	0.00533081
2836.03	-0.000845337	0.00972595
2836.49	-0.697754	-0.0217346
2836.95	-0.00038147	0.00534027
2837.43	0.000549316	0.00971985
2837.89	-0.697723	-0.0217438
2838.35	0.000576782	0.00532898
2838.83	-0.000714111	0.00971375
2839.29	-0.697357	-0.0217407
2839.75	0.00106812	0.00533081
2840.23	0.000604248	0.0097168
2840.69	-0.697296	-0.0217407
2841.15	0.000369263	0.00533386
2841.63	0.00020752	0.009729
2842.09	-0.698669	-0.0217255
2842.55	-6.10352e-05	0.0053418
2843.03	-0.000259399	0.00970764
2843.49	-0.698578	-0.0217194
2843.95	-0.000689697	0.00534424
2844.43	7.32422e-05	0.0097229
2844.89	-0.697815	-0.0217407
2845.35	0.000906372	0.00533295
2845.83	0.000439453	0.00970764
2846.29	-0.698944	-0.0217255
2846.75	-0.000164795	0.00534576
2847.23	0.000177002	0.009729
2847.69	-0.69873	-0.0217194
2848.15	0.00098877	0.00533234
2848.63	0.000527954	0.00970764
2849.09	-0.697235	-0.0217377
2849.55	-0.000323486	0.00534271
2850.03	-0.000500488	0.00970764
2850.49	-0.698181	-0.0217346
2850.95	0.000668335	0.00533752
2851.43	5.49316e-05	0.0097168
2851.89	-0.698761	-0.0217224
2852.35	-0.000588989	0.00534821
2852.83	-0.000762939	0.00972595
2853.29	-0.697479	-0.0217346
2853.75	0.000231934	0.00533905
2854.23	-0.000930786	0.00971375
2854.69	-0.697479	-0.0217438
2855.15	-0.000363159	0.00534424
2855.63	-0.000469971	0.00969849
2856.09	-0.698334	-0.0217316
2856.55	0.000814819	0.005336
2857.03	-0.000732422	0.0097168
2857.49	-0.697723	-0.0217407
2857.95	-0.000588989	0.00534729
2858.43	0.000164795	0.00969849
2858.89	-0.697784	-0.0217285
2859.35	0.00032959	0.00534119
2859.83	-0.000637817	0.00970154
2860.29	-0.698334	-0.0217377
2860.75	-0.000683594	0.00535095
2861.23	-0.0009552	0.00970764
2861.69	-0.697601	-0.0217285
2862.15	-0.00067749	0.00535278
2862.63	0.000421143	0.00968933
2863.09	-0.697418	-0.0217407
2863.55	-0.000259399	0.00534515
2864.03	-0.000482178	0.00971069
2864.49	-0.698914	-0.0217255
2864.95	0.00015564	0.00535156
2865.43	-0.000811768	0.00969543
2865.89	-0.698059	-0.0217346
2866.35	-3.35693e-05	0.00534821
2866.83	0.000689697	0.00969849
2867.29	-0.697693	-0.0217285
2867.75	-9.15527e-05	0.00535187
2868.23	6.71387e-05	0.00968933
2868.69	-0.698639	-0.0217163
2869.15	0.000601196	0.00534241
2869.63	-0.00071106	0.00970764
2870.09	-0.699005	-0.0217163
2870.55	-0.000170898	0.00535217
2871.03	-0.000137329	0.00968933
2871.49	-0.698517	-0.0217224
2871.95	0.000726318	0.00534271
2872.43	0.000115967	0.00970459
2872.89	-0.698303	-0.0217133
2873.35	-0.000305176	0.00535858
2873.83	-0.0010437	0.00968933
2874.29	-0.697388	-0.0217346
2874.75	0.000720215	0.00534454
2875.23	0.000741577	0.00969849
2875.69	-0.698334	-0.0217316
2876.15	0.000491333	0.00534821
2876.63	0.000491333	0.00968933
2877.09	-0.698883	-0.0217316
2877.55	-0.000646973	0.00536041
2878.03	0.000683594	0.00968933
2878.49	-0.698944	-0.0217346
2878.95	-0.000616455	0.00536377
2879.43	0.000527954	0.00969238
2879.89	-0.698883	-0.0217163
2880.35	0.000531006	0.00535248
2880.83	4.88281e-05	0.00969849
2881.29	-0.698914	-0.0217255
2881.75	0.000552368	0.00535797
2882.23	-0.000979614	0.00969238
2882.69	-0.69809	-0.0217316
2883.15	0.000973511	0.00535553
2883.63	-0.00102844	0.00968933
2884.09	-0.697296	-0.0217285
2884.55	0.000274658	0.00536102
2885.03	0.000662231	0.00968933
2885.49	-0.698303	-0.0217285
2885.95	0.000289917	0.00535461
2886.43	-0.000234985	0.00968018
2886.89	-0.697662	-0.0217133
2887.35	-0.000588989	0.00536469
2887.83	-0.000866699	0.00969238
2888.29	-0.697937	-0.0217285
2888.75	-0.000619507	0.00536652
2889.23	0.00027771	0.00968628
2889.69	-0.698456	-0.0217255
2890.15	0.000106812	0.00536499
2890.63	0.000701904	0.00968018
2891.09	-0.698822	-0.0217102
2891.55	0.000946045	0.00535919
2892.03	0.000354004	0.00969238
2892.49	-0.698486	-0.0217133
2892.95	0.000335693	0.00536224
2893.43	-0.000808716	0.00968323
2893.89	-0.697876	-0.0217133
2894.35	0.000897217	0.00535614
2894.83	-0.000180054	0.00968628
2895.29	-0.697235	-0.0217224
2895.75	0.000286865	0.00536072
2896.23	0.000247192	0.00967407
2896.69	-0.697174	-0.0217316
2897.15	-0.000131226	0.00537048
2897.63	-0.000848389	0.00967712
2898.09	-0.698853	-0.0217163
2898.55	0.000875854	0.00535919
2899.03	-0.000143433	0.00968628
2899.49	-0.697327	-0.0217285
2899.95	0.000515747	0.00536072
2900.43	0.00071106	0.00967102
2900.89	-0.69873	-0.0217194
2901.35	-0.000784302	0.00537292
2901.83	-0.000286865	0.00968323
2902.29	-0.698883	-0.0217163
2902.75	0.000909424	0.00536163
2903.23	-0.000546265	0.00967102
2903.69	-0.698364	-0.0217133
2904.15	0.000204468	0.00536438
2904.63	-0.000857544	0.00967712
2905.09	-0.698364	-0.0217346
2905.55	-0.000622559	0.00537354
2906.03	-0.000857544	0.00966797
2906.49	-0.698944	-0.0217102
2906.95	-0.000643921	0.00537384
2907.43	-0.000500488	0.00968018
2907.89	-0.698395	-0.0217224
2908.35	-0.000387573	0.00537506
2908.83	0.000140381	0.00965271
2909.29	-0.697693	-0.0217133
2909.75	0.000637817	0.00536102
2910.23	-0.000793457	0.00968018
2910.69	-0.697601	-0.0217224
2911.15	0.000918579	0.0053653
2911.63	0.000543213	0.00965881
2912.09	-0.698456	-0.0217163
2912.55	-0.000271606	0.00537109
2913.03	-0.000610352	0.00965881
2913.49	-0.698395	-0.0217041
2913.95	0.000466919	0.00537048
2914.43	-0.000128174	0.00966797
2914.89	-0.698547	-0.021701
2915.35	0.000808716	0.00536438
2915.83	0.000604248	0.00965881
2916.29	-0.698273	-0.021698
2916.75	-0.000564575	0.00537323
2917.23	-0.000939941	0.00965881
2917.69	-0.698578	-0.0217163
2918.15	0.000906372	0.00536713
2918.63	0.000582886	0.00966187
2919.09	-0.697296	-0.0217133
2919.55	5.18799e-05	0.00536652
2920.03	0.000332642	0.00964966
2920.49	-0.698853	-0.0217041
2920.95	0.00093689	0.00536682
2921.43	-0.000613403	0.00966797
2921.89	-0.697662	-0.0217194
2922.35	-0.000512695	0.00537598
2922.83	0.000302124	0.00964661
2923.29	-0.698883	-0.0217072
2923.75	0.0009552	0.00536743
2924.23	0.000515747	0.00964355
2924.69	-0.698761	-0.021698
2925.15	0.000286865	0.00537659
2925.63	0.000363159	0.00965881
2926.09	-0.697784	-0.0217224
2926.55	0.000796509	0.00536743
2927.03	0.000637817	0.00964661
2927.49	-0.698578	-0.0217102
2927.95	0.000942993	0.00537292
2928.43	-1.83105e-05	0.00966492
2928.89	-0.698914	-0.0217041
2929.35	-0.000582886	0.00538208
2929.83	-0.00102844	0.00965271
2930.29	-0.698761	-0.0217102
2930.75	0.000177002	0.00537659
2931.23	0.000643921	0.00964661
2931.69	-0.698212	-0.021701
2932.15	0.000866699	0.00536835
2932.63	-0.000891113	0.00964355
2933.09	-0.697357	-0.0217133
2933.55	-0.000479126	0.0053833
2934.03	0.000457764	0.00964661
2934.49	-0.698792	-0.021698
2934.95	0.000479126	0.0053775
2935.43	0.000512695	0.00963745
2935.89	-0.698151	-0.0217102
2936.35	0.000726318	0.00537567
2936.83	-0.00067749	0.00964355
2937.29	-0.698761	-0.0217041
2937.75	-0.000524902	0.00538696
2938.23	-0.000930786	0.00964355
2938.69	-0.698669	-0.0217041
2939.15	8.54492e-05	0.00538544
2939.63	0.000704956	0.00964966
2940.09	-0.697418	-0.021701
2940.55	0.000857544	0.00537415
2941.03	0.000256348	0.00964355
2941.49	-0.69873	-0.0216949
2941.95	-0.00015564	0.00538513
2942.43	0.000335693	0.00963135
2942.89	-0.697693	-0.021698
2943.35	0.000924683	0.00537384
2943.83	-0.000946045	0.00964355
2944.29	-0.697937	-0.0216919
2944.75	-0.000308228	0.00538239
2945.23	0.000375366	0.0096344
2945.69	-0.698303	-0.0216919
2946.15	-0.000570679	0.005390625
2946.63	1.83105e-05	0.00964355
2947.09	-0.698181	-0.0216919
2947.55	0.000805664	0.00537628
2948.03	0.000738525	0.00963745
2948.49	-0.697571	-0.0217102
2948.95	-0.000344849	0.0053775
2949.43	0.000686646	0.00962219
2949.89	-0.698822	-0.0216858
2950.35	0.000531006	0.00538147
2950.83	-0.000912476	0.00963745
2951.29	-0.697418	-0.021701
2951.75	0.000247192	0.00538055
2952.23	0.000454712	0.00963745
2952.69	-0.697723	-0.0217072
2953.15	-0.000335693	0.00539093
2953.63	-0.000906372	0.00963135
2954.09	-0.697998	-0.0217102
2954.55	0.000210571	0.00538727
2955.03	-0.000723267	0.00964355
2955.49	-0.698822	-0.0216888
2955.95	0.000421143	0.00538361
2956.43	-2.44141e-05	0.00963745
2956.89	-0.698273	-0.0216919
2957.35	0.000994873	0.005383
2957.83	-0.00072937	0.00961609
2958.29	-0.698914	-0.0216949
2958.75	0.000900269	0.0053894
2959.23	-0.0010437	0.0096283
2959.69	-0.697327	-0.0217041
2960.15	-0.000454712	0.00539612
2960.63	-0.000906372	0.0096283
2961.09	-0.698364	-0.0216827
2961.55	0.000915527	0.00538422
2962.03	0.000704956	0.00962524
2962.49	-0.697662	-0.0216858
2962.95	-0.000219727	0.0053952
2963.43	-0.000817871	0.00963135
2963.89	-0.699066	-0.0216919
2964.35	0.000720215	0.0053833
2964.83	0.0006073	0.00961609
2965.29	-0.698456	-0.021701
2965.75	-0.00050354	0.00539337
2966.23	-0.000796509	0.00963135
2966.69	-0.697876	-0.0216919
2967.15	-0.000747681	0.00539337
2967.63	-0.000997925	0.00962219
2968.09	-0.698181	-0.021698
2968.55	-0.00071106	0.00539856
2969.03	-5.49316e-05	0.0096344
2969.49	-0.698364	-0.021698
2969.95	0.000161743	0.00539032
2970.43	-0.000775146	0.0096283
2970.89	-0.69873	-0.0216797
2971.35	-0.000479126	0.00539948
2971.83	0.000521851	0.00961304
2972.29	-0.698517	-0.0216827
2972.75	0.000915527	0.00538818
2973.23	-0.000775146	0.0096283
2973.69	-0.698914	-0.0216827
2974.15	-0.000671387	0.00540009
2974.63	0.000637817	0.00960999
2975.09	-0.697571	-0.0216949
2975.55	0.000170898	0.005390625
2976.03	-0.000897217	0.00961914
2976.49	-0.698883	-0.0216888
2976.95	0.000216675	0.00538757
2977.43	-0.00104675	0.00961304
2977.89	-0.698425	-0.021698
2978.35	-0.000738525	0.00540009
2978.83	0.000775146	0.00961914
2979.29	-0.697296	-0.0216888
2979.75	0.000930786	0.00539337
2980.23	-0.000402832	0.00962219
2980.69	-0.697327	-0.0216919
2981.15	-0.000296021	0.00540283
2981.63	-0.000683594	0.00960999
2982.09	-0.697327	-0.0216827
2982.55	-0.00067749	0.00540466
2983.03	0.00057373	0.00960388
2983.49	-0.697266	-0.021698
2983.95	-0.000170898	0.00539825
2984.43	-0.000289917	0.00961609
2984.89	-0.698914	-0.0216766
2985.35	-0.000164795	0.00540436
2985.83	0.000579834	0.00960083
2986.29	-0.697266	-0.0216919
2986.75	-0.000704956	0.00540039
2987.23	4.57764e-05	0.00959473
2987.69	-0.698669	-0.0216766
2988.15	-0.000567627	0.00540649
2988.63	-0.000787354	0.00961609
2989.09	-0.698792	-0.0216797
2989.55	-0.000387573	0.00540344
2990.03	-0.000769043	0.00961304
2990.49	-0.697479	-0.0216919
2990.95	-0.000643921	0.00540771
2991.43	-0.000918579	0.00960693
2991.89	-0.697876	-0.021698
2992.35	-0.000228882	0.00540741
2992.83	-0.00093689	0.00960693
2993.29	-0.699005	-0.0216827
2993.75	-0.000186157	0.00540833
2994.23	-0.000872803	0.00959778
2994.69	-0.698547	-0.0216919
2995.15	-0.000546265	0.00541199
2995.63	-0.00078125	0.00960693
2996.09	-0.698853	-0.0216827
2996.55	0.000930786	0.00540436
2997.03	0.000460815	0.00959778
2997.49	-0.698303	-0.0216797
2997.95	-0.000744629	0.00541321
2998.43	-0.000457764	0.00960999
2998.89	-0.697571	-0.0216858
2999.35	-0.000643921	0.00541412
2999.83	-0.000152588	0.00960693
3000.29	-0.697784	-0.0216949
3000.75	0.000512695	0.00540833
3001.23	-0.000189209	0.00960388
3001.69	-0.697754	-0.0216888
3002.15	0.000949097	0.00540131
3002.63	2.13623e-05	0.00960999
3003.09	-0.697845	-0.0216766
3003.55	0.000604248	0.00540192
3004.03	0.000643921	0.00959167
3004.49	-0.698181	-0.0216766
3004.95	0.000787354	0.00540375
3005.43	0.000125122	0.00960083
3005.89	-0.698944	-0.0216766
3006.35	-0.000701904	0.00541626
3006.83	-0.0009552	0.00959778
3007.29	-0.698456	-0.0216888
3007.75	0.000744629	0.00540375
3008.23	0.000131226	0.00958862
3008.69	-0.698242	-0.0216888
3009.15	0.000741577	0.00540314
3009.63	0.000704956	0.00958252
3010.05	-0.000256348	0.00310425