File: Edgar/20240607/20240607/electrodeposition_pulsed_potential_20240607_A/pulses_1000_to_2000.txt
Time (s)	WE(1).Potential (V)	WE(1).Current (A)
891.871	-0.697357	-0.0219086
892.331	-0.000192261	0.00229309
892.811	-0.000262451	0.0113373
893.271	-0.698761	-0.0215698
893.731	0.000131226	0.00249695
894.211	0.000509644	0.0114594
894.671	-0.698059	-0.0215729
895.131	0.000341797	0.00255676
895.611	-0.000769043	0.0115082
896.071	-0.697693	-0.0215546
896.531	-9.15527e-06	0.002578125
897.011	-0.00022583	0.0115173
897.471	-0.698822	-0.0215546
897.931	0.000299072	0.00260529
898.411	-0.00015564	0.0115448
898.871	-0.697906	-0.0215485
899.331	0.000662231	0.00261353
899.811	-0.00100403	0.011557
900.271	-0.698975	-0.0215454
900.731	0.000292969	0.0026355
901.211	-0.000259399	0.0115448
901.671	-0.697449	-0.0215668
902.131	0.000234985	0.00264313
902.611	0.000112915	0.0115692
903.071	-0.69873	-0.0215424
903.531	-0.000280762	0.00266174
904.011	-9.76562e-05	0.0115509
904.471	-0.697937	-0.0215668
904.931	0.000390625	0.00266357
905.411	-0.000430298	0.0115875
905.871	-0.698273	-0.0215546
906.331	0.000579834	0.002677
906.811	0.000195313	0.0115631
907.271	-0.69873	-0.0215698
907.731	-0.00050354	0.00269226
908.211	-0.000531006	0.0115875
908.671	-0.69754	-0.0215698
909.131	0.000634766	0.00268707
909.611	0.000387573	0.0115753
910.071	-0.698395	-0.021579
910.531	-0.000518799	0.00270782
911.011	-0.000817871	0.0115936
911.471	-0.698364	-0.0215637
911.931	0.000967407	0.00270142
912.411	0.000430298	0.0115753
912.871	-0.697845	-0.021582
913.331	-0.000558472	0.00272278
913.811	-0.000759888	0.0115936
914.271	-0.698669	-0.0215668
914.731	0.000970459	0.00271759
915.211	0.000463867	0.0115784
915.671	-0.697601	-0.0215851
916.131	-0.000540161	0.00273315
916.611	-0.000872803	0.0115967
917.071	-0.698975	-0.021579
917.531	0.000299072	0.00273621
918.011	0.000610352	0.0115784
918.471	-0.697479	-0.021582
918.931	-0.000588989	0.00274658
919.411	-0.0006073	0.0115906
919.871	-0.699066	-0.0215759
920.331	0.000543213	0.00274872
920.811	0.000491333	0.0115753
921.271	-0.697571	-0.0215973
921.731	-4.57764e-05	0.0027597
922.211	-0.000769043	0.0115967
922.671	-0.698944	-0.021579
923.131	0.000595093	0.0027597
923.611	0.000466919	0.0115875
924.071	-0.697357	-0.0215912
924.531	-0.000564575	0.00277069
925.011	-0.000918579	0.0115784
925.471	-0.699005	-0.0215851
925.931	0.00102234	0.00276642
926.411	0.000595093	0.0115753
926.871	-0.697784	-0.0216003
927.331	-0.000491333	0.00278534
927.811	-0.000741577	0.0115906
928.271	-0.698242	-0.0215881
928.731	0.000836182	0.00277863
929.211	0.000540161	0.0115692
929.671	-0.697723	-0.0216095
930.131	-0.000564575	0.00279663
930.611	-0.00100098	0.0115753
931.071	-0.698486	-0.0215942
931.531	0.000973511	0.002789
932.011	0.000634766	0.0115753
932.471	-0.698303	-0.0216064
932.931	-0.000595093	0.00280762
933.411	-0.000857544	0.0115845
933.871	-0.697998	-0.0215942
934.331	0.00100098	0.00280029
934.811	0.000558472	0.0115662
935.271	-0.698334	-0.0216156
935.731	-0.000640869	0.00281738
936.211	-0.000970459	0.0115753
936.671	-0.6987	-0.0216003
937.131	0.000985718	0.00281128
937.611	0.000485229	0.0115662
938.071	-0.699036	-0.0216064
938.531	-0.000454712	0.00282806
939.011	0.000311279	0.0115692
939.471	-0.69751	-0.0216217
939.931	-0.000314331	0.00282715
940.411	-0.00062561	0.0115662
940.871	-0.699005	-0.0216125
941.331	0.00104675	0.00282623
941.811	0.000427246	0.0115753
942.271	-0.697632	-0.0216248
942.731	0.000140381	0.00284363
943.211	-0.00101929	0.0115692
943.671	-0.6987	-0.0216125
944.131	0.000793457	0.002836
944.611	0.000192261	0.011554
945.071	-0.698029	-0.021637
945.531	0.00107422	0.00284332
946.011	-9.46045e-05	0.0115753
946.471	-0.697906	-0.0216309
946.931	6.10352e-06	0.00286133
947.411	-0.000970459	0.0115662
947.871	-0.698151	-0.0216309
948.331	-0.000424194	0.00286804
948.811	0.000546265	0.011554
949.271	-0.697449	-0.0216492
949.731	0.00111694	0.00286011
950.211	0.000576782	0.0115662
950.671	-0.697418	-0.0216461
951.131	0.000418091	0.00287567
951.611	-0.00100403	0.0115662
952.071	-0.698273	-0.02164
952.531	-0.00072937	0.00287872
953.011	0.000405884	0.0115509
953.471	-0.698639	-0.0216309
953.931	0.0009765625	0.00287354
954.411	2.13623e-05	0.0115448
954.871	-0.697632	-0.02164
955.331	-5.79834e-05	0.00288055
955.811	-0.000839233	0.0115479
956.271	-0.697784	-0.0216522
956.731	-0.000296021	0.00289703
957.211	-0.00032959	0.0115662
957.671	-0.698975	-0.02164
958.131	0.00109253	0.00288788
958.611	0.000595093	0.0115448
959.071	-0.697571	-0.0216431
959.531	-0.000662231	0.00290649
960.011	0.000100708	0.0115387
960.471	-0.698151	-0.0216583
960.931	0.000817871	0.00289795
961.411	-0.000723267	0.0115417
961.871	-0.698212	-0.0216461
962.331	-0.000683594	0.00291565
962.811	-0.000448608	0.0115509
963.271	-0.697845	-0.0216614
963.731	0.000897217	0.0029129
964.211	0.000598145	0.0115417
964.671	-0.699127	-0.0216583
965.131	-0.00039978	0.00291779
965.611	-0.0006073	0.0115417
966.071	-0.697418	-0.0216522
966.531	0.000622559	0.0029245
967.011	-0.000289917	0.0115509
967.471	-0.698944	-0.0216492
967.931	0.000601196	0.00292267
968.411	0.000488281	0.0115326
968.871	-0.697876	-0.0216553
969.331	-0.000610352	0.00293884
969.811	-0.000762939	0.0115326
970.271	-0.697449	-0.0216736
970.731	0.000305176	0.00294128
971.211	-0.000570679	0.0115509
971.671	-0.698639	-0.0216736
972.131	0.000985718	0.00293823
972.611	0.00012207	0.0115479
973.071	-0.699036	-0.0216675
973.531	-0.000119019	0.00294556
974.011	-3.05176e-05	0.0115295
974.471	-0.697815	-0.0216827
974.931	0.000198364	0.00295563
975.411	-0.000119019	0.0115417
975.871	-0.697357	-0.0216797
976.331	0.000415039	0.0029538
976.811	1.52588e-05	0.0115204
977.271	-0.698059	-0.0216644
977.731	0.0009765625	0.00295776
978.211	0.000289917	0.0115265
978.671	-0.699097	-0.0216797
979.131	1.52588e-05	0.00296661
979.611	-0.000650024	0.0115356
980.071	-0.698822	-0.0216858
980.531	0.000732422	0.00296875
981.011	-0.000411987	0.0115387
981.471	-0.697571	-0.0216919
981.931	-0.000280762	0.0029776
982.411	-0.000912476	0.0115173
982.871	-0.698914	-0.0216858
983.331	-0.000616455	0.00298798
983.811	0.000668335	0.0115173
984.271	-0.697937	-0.0216827
984.731	0.000537109	0.00298553
985.211	-0.000216675	0.0115295
985.671	-0.698517	-0.0216888
986.131	-0.000299072	0.00299103
986.611	-0.00108643	0.0115112
987.071	-0.698181	-0.0216827
987.531	-0.000344849	0.00300049
988.011	9.15527e-05	0.0115204
988.471	-0.697327	-0.021698
988.931	0.000912476	0.002995
989.411	0.000247192	0.0115021
989.871	-0.698456	-0.021701
990.331	0.0003479	0.0030011
990.811	-0.000875854	0.0115082
991.271	-0.698761	-0.021698
991.731	-0.000552368	0.00301239
992.211	-0.000497437	0.0115204
992.671	-0.698395	-0.0216919
993.131	-4.57764e-05	0.00301636
993.611	-3.35693e-05	0.0115143
994.071	-0.697723	-0.021701
994.531	0.000106812	0.00302032
995.011	0.000115967	0.0115173
995.471	-0.697632	-0.021701
995.931	0.000534058	0.00302124
996.411	8.54492e-05	0.0115082
996.871	-0.698181	-0.0217133
997.331	0.000817871	0.00301971
997.811	0.000585937	0.0115021
998.271	-0.697876	-0.0217102
998.731	0.000161743	0.00302917
999.211	0.000460815	0.0114929
999.671	-0.69809	-0.0217163
1000.13	-0.000482178	0.00303986
1000.61	-0.000836182	0.0114929
1001.07	-0.698792	-0.0217041
1001.53	-0.000357056	0.00304657
1002.01	-0.000787354	0.0115082
1002.47	-0.698822	-0.021701
1002.93	0.000714111	0.00304321
1003.41	0.000408936	0.0115051
1003.87	-0.697388	-0.0217163
1004.33	2.44141e-05	0.0030481
1004.81	0.000543213	0.0114899
1005.27	-0.697449	-0.0217224
1005.73	-0.000344849	0.0030545
1006.21	-0.00062561	0.0114868
1006.67	-0.698578	-0.0217224
1007.13	-0.000665283	0.00306305
1007.61	-0.00102234	0.011496
1008.07	-0.698761	-0.0217133
1008.53	0.00090332	0.00306091
1009.01	0.000387573	0.0114899
1009.47	-0.698914	-0.0217102
1009.93	-0.000213623	0.00306213
1010.41	0.000592041	0.0114868
1010.87	-0.697571	-0.0217255
1011.33	0.00105591	0.00306702
1011.81	8.54492e-05	0.0114777
1012.27	-0.697571	-0.0217285
1012.73	0.00027771	0.00306641
1013.21	-0.000390625	0.0114716
1013.67	-0.698944	-0.0217224
1014.13	0.000604248	0.00307068
1014.61	-9.76562e-05	0.0114899
1015.07	-0.699066	-0.0217285
1015.53	0.000881958	0.00307739
1016.01	-0.000143433	0.0114685
1016.47	-0.698853	-0.0217438
1016.93	-0.000341797	0.00309418
1017.41	-0.000656128	0.0114899
1017.87	-0.698212	-0.0217499
1018.33	0.000137329	0.00309052
1018.81	0.000634766	0.0114716
1019.27	-0.697418	-0.0217316
1019.73	-0.000558472	0.0031012
1020.21	-0.000695801	0.0114655
1020.67	-0.697571	-0.0217438
1021.13	-0.000158691	0.0031012
1021.61	-0.00078125	0.0114777
1022.07	-0.697571	-0.0217468
1022.53	0.000933838	0.00310028
1023.01	0.000680542	0.0114685
1023.47	-0.698181	-0.0217346
1023.93	0.000909424	0.00310547
1024.41	-0.00055542	0.0114594
1024.87	-0.698914	-0.0217377
1025.33	-8.23975e-05	0.0031189
1025.81	-0.00062561	0.0114807
1026.27	-0.698944	-0.0217407
1026.73	8.8501e-05	0.0031192
1027.21	-0.000274658	0.0114746
1027.67	-0.699005	-0.0217407
1028.13	-0.000534058	0.00312744
1028.61	-0.000283813	0.0114685
1029.07	-0.698669	-0.0217529
1029.53	-0.000521851	0.00312958
1030.01	-0.000982666	0.0114655
1030.47	-0.69751	-0.021759
1030.93	0.000866699	0.00312592
1031.41	0.000378418	0.0114471
1031.87	-0.698273	-0.0217468
1032.33	-0.000579834	0.00314087
1032.81	0.000579834	0.0114563
1033.27	-0.699005	-0.0217438
1033.73	-1.83105e-05	0.00313782
1034.21	-0.000875854	0.0114655
1034.67	-0.697845	-0.0217651
1035.13	0.000982666	0.00313721
1035.61	-0.000408936	0.0114471
1036.07	-0.69754	-0.021756
1036.53	0.000396729	0.00315094
1037.01	0.000152588	0.0114594
1037.47	-0.699005	-0.021756
1037.93	0.00106201	0.00314636
1038.41	-0.000881958	0.0114502
1038.87	-0.697357	-0.0217682
1039.33	0.00107117	0.00314972
1039.81	0.00057373	0.0114502
1040.27	-0.697937	-0.021756
1040.73	0.000787354	0.00315063
1041.21	-0.000854492	0.0114563
1041.67	-0.697327	-0.0217773
1042.13	-0.000613403	0.0031662
1042.61	0.000228882	0.0114288
1043.07	-0.699066	-0.0217743
1043.53	0.000326538	0.00316437
1044.01	-0.000183105	0.0114349
1044.47	-0.697449	-0.0217712
1044.93	0.000909424	0.0031665
1045.41	-0.00106812	0.0114441
1045.87	-0.697723	-0.0217712
1046.33	-0.00015564	0.00318054
1046.81	0.000784302	0.0114441
1047.27	-0.698944	-0.0217743
1047.73	0	0.00317963
1048.21	0.000424194	0.0114288
1048.67	-0.697784	-0.0217834
1049.13	0.000979614	0.00317871
1049.61	0.000582886	0.0114349
1050.07	-0.697357	-0.0217834
1050.53	0.00100098	0.00318481
1051.01	-4.88281e-05	0.011441
1051.47	-0.697876	-0.0217743
1051.93	0.000888062	0.00319061
1052.41	0.000286865	0.011441
1052.87	-0.697388	-0.0217896
1053.33	0.0009552	0.00319122
1053.81	0.000344849	0.011438
1054.27	-0.697418	-0.0217804
1054.73	0.00093689	0.0031958
1055.21	0.000588989	0.0114288
1055.67	-0.697357	-0.0217896
1056.13	0.000109863	0.00320465
1056.61	0.000149536	0.0114166
1057.07	-0.698853	-0.0217896
1057.53	0.000622559	0.00321198
1058.01	-0.000949097	0.0114319
1058.47	-0.698822	-0.0217804
1058.93	0.000595093	0.00321625
1059.41	-0.000723267	0.011438
1059.87	-0.697357	-0.0217865
1060.33	0.000289917	0.00321136
1060.81	0.000619507	0.0114197
1061.27	-0.697723	-0.0218018
1061.73	0.000982666	0.00321564
1062.21	-0.00103149	0.0114288
1062.67	-0.699036	-0.0217926
1063.13	3.05176e-06	0.00322998
1063.61	0.000476074	0.0114105
1064.07	-0.697571	-0.0217926
1064.53	-0.000637817	0.00323608
1065.01	0.000683594	0.0114227
1065.47	-0.697327	-0.0218048
1065.93	-0.000180054	0.00323975
1066.41	-7.62939e-05	0.0114258
1066.87	-0.697998	-0.0218079
1067.33	0.000863647	0.00323486
1067.81	-0.000973511	0.0114227
1068.27	-0.697784	-0.0217987
1068.73	-0.000552368	0.0032489
1069.21	1.52588e-05	0.0114014
1069.67	-0.698853	-0.0217896
1070.13	0.000177002	0.00324371
1070.61	0.000588989	0.0114044
1071.07	-0.698853	-0.0217957
1071.53	-0.000637817	0.00325653
1072.01	-0.00078125	0.0114197
1072.47	-0.698669	-0.0218079
1072.93	-0.000613403	0.00325867
1073.41	0.000357056	0.0114105
1073.87	-0.697937	-0.0218079
1074.33	0.000802612	0.00325134
1074.81	-0.000506592	0.0114197
1075.27	-0.698181	-0.0218018
1075.73	-0.000109863	0.00325897
1076.21	0.000552368	0.0113983
1076.67	-0.69754	-0.0218109
1077.13	-0.000531006	0.00327454
1077.61	-0.00104065	0.0113983
1078.07	-0.697418	-0.0218048
1078.53	-0.000308228	0.0032666
1079.01	-1.83105e-05	0.0113922
1079.47	-0.698517	-0.0217957
1079.93	-0.00057373	0.00328156
1080.41	0.000180054	0.0113861
1080.87	-0.698364	-0.0218201
1081.33	0.000933838	0.00327271
1081.81	6.71387e-05	0.0114105
1082.27	-0.697571	-0.0218231
1082.73	-0.000259399	0.00328827
1083.21	0.00038147	0.0113892
1083.67	-0.698944	-0.0218079
1084.13	0.000671387	0.00328003
1084.61	-0.000494385	0.0113983
1085.07	-0.69751	-0.0218201
1085.53	-0.000656128	0.00329559
1086.01	0.000390625	0.0113922
1086.47	-0.69751	-0.0218292
1086.93	-6.40869e-05	0.00329742
1087.41	0.000622559	0.0113831
1087.87	-0.698029	-0.0218231
1088.33	0.00020752	0.00329926
1088.81	0.000506592	0.0113861
1089.27	-0.697357	-0.0218292
1089.73	-1.52588e-05	0.00329926
1090.21	0.000604248	0.011377
1090.67	-0.697388	-0.0218231
1091.13	-0.000460815	0.00331177
1091.61	-0.000662231	0.011377
1092.07	-0.697327	-0.0218292
1092.53	-0.00062561	0.00331512
1093.01	3.35693e-05	0.0113708
1093.47	-0.699127	-0.0218201
1093.93	0.000445557	0.00331238
1094.41	0.000430298	0.01138
1094.87	-0.698547	-0.0218353
1095.33	-4.27246e-05	0.00332092
1095.81	-0.000872803	0.01138
1096.27	-0.697388	-0.0218353
1096.73	2.13623e-05	0.0033255
1097.21	0.000634766	0.011377
1097.67	-0.697968	-0.0218353
1098.13	-0.000305176	0.00333008
1098.61	-0.000683594	0.011377
1099.07	-0.697876	-0.0218414
1099.53	0.000152588	0.00332916
1100.01	0.000436401	0.0113708
1100.47	-0.698761	-0.0218262
1100.93	0.000961304	0.00332397
1101.41	6.10352e-06	0.0113586
1101.87	-0.698425	-0.0218201
1102.33	-0.00067749	0.00333923
1102.81	-0.000793457	0.01138
1103.27	-0.697662	-0.0218353
1103.73	0.000921631	0.00333038
1104.21	0.000454712	0.0113586
1104.67	-0.697968	-0.0218292
1105.13	1.52588e-05	0.00333405
1105.61	0.000567627	0.0113617
1106.07	-0.69873	-0.0218292
1106.53	-0.000558472	0.00334229
1107.01	-1.2207e-05	0.0113647
1107.47	-0.698639	-0.0218231
1107.93	-0.000283813	0.00335449
1108.41	-0.000671387	0.0113495
1108.87	-0.699005	-0.0218414
1109.33	-0.000515747	0.00335388
1109.81	-0.00105896	0.0113586
1110.27	-0.697327	-0.0218445
1110.73	-0.000549316	0.00336151
1111.21	-0.000384521	0.0113678
1111.67	-0.698761	-0.0218353
1112.13	0.000717163	0.00335632
1112.61	-0.000183105	0.0113403
1113.07	-0.697601	-0.0218384
1113.53	-0.000537109	0.00336548
1114.01	0.000582886	0.0113434
1114.47	-0.698334	-0.0218384
1114.93	0.000964355	0.0033606
1115.41	0.000204468	0.0113556
1115.87	-0.697601	-0.0218567
1116.33	0.00020752	0.00336975
1116.81	0.000616455	0.0113495
1117.27	-0.698578	-0.0218567
1117.73	-6.10352e-06	0.00337036
1118.21	-0.00045166	0.0113434
1118.67	-0.698669	-0.0218536
1119.13	0.000479126	0.00337128
1119.61	-0.000958252	0.0113525
1120.07	-0.699097	-0.0218506
1120.53	-0.000265503	0.00338257
1121.01	-0.00107117	0.0113464
1121.47	-0.698853	-0.0218567
1121.93	0.0003479	0.00338745
1122.41	0.000558472	0.0113495
1122.87	-0.698944	-0.0218536
1123.33	-0.000314331	0.00339508
1123.81	0.00057373	0.0113403
1124.27	-0.69751	-0.0218597
1124.73	0.000289917	0.00338928
1125.21	-0.00100403	0.0113373
1125.67	-0.697937	-0.0218689
1126.13	-0.000247192	0.00339752
1126.61	-0.00101624	0.0113342
1127.07	-0.698425	-0.0218658
1127.53	-0.000653076	0.00340576
1128.01	-3.96729e-05	0.0113281
1128.47	-0.697388	-0.0218689
1128.93	-0.000747681	0.00341095
1129.41	0.000311279	0.0113251
1129.87	-0.697571	-0.0218689
1130.33	0.00105896	0.00340393
1130.81	0.000582886	0.0113281
1131.27	-0.698822	-0.0218506
1131.73	-0.000601196	0.00341766
1132.21	0.000360107	0.011322
1132.67	-0.697327	-0.0218567
1133.13	-0.000509644	0.00342072
1133.61	0.000241089	0.0113129
1134.07	-0.698303	-0.0218658
1134.53	-0.000610352	0.00342224
1135.01	-0.000134277	0.0113129
1135.47	-0.698151	-0.0218689
1135.93	-0.000689697	0.00342682
1136.41	-0.0009552	0.0113312
1136.87	-0.698944	-0.0218658
1137.33	-0.000170898	0.00343018
1137.81	-0.000878906	0.0113312
1138.27	-0.698944	-0.0218567
1138.73	0.000363159	0.00342865
1139.21	-0.000912476	0.0113312
1139.67	-0.698944	-0.0218567
1140.13	0.000985718	0.00343018
1140.61	-0.000811768	0.0113159
1141.07	-0.697754	-0.021875
1141.53	0.00106506	0.00343384
1142.01	0.000631714	0.0113129
1142.47	-0.697418	-0.0218597
1142.93	-0.000650024	0.00344543
1143.41	-0.000601196	0.0113037
1143.87	-0.697449	-0.021875
1144.33	-0.000592041	0.00344696
1144.81	-0.000991821	0.011322
1145.27	-0.697693	-0.0218811
1145.73	-0.000344849	0.00344788
1146.21	0.000494385	0.0113068
1146.67	-0.697479	-0.0218811
1147.13	-0.00038147	0.00345306
1147.61	0.000183105	0.0112976
1148.07	-0.697235	-0.0218811
1148.53	0.000296021	0.00345123
1149.01	0.000521851	0.0113098
1149.47	-0.69751	-0.0218719
1149.93	0.00098877	0.00345154
1150.41	0.000137329	0.0113129
1150.87	-0.698669	-0.0218658
1151.33	0.000750732	0.00345367
1151.81	-0.000949097	0.0113159
1152.27	-0.698303	-0.0218872
1152.73	0.000570679	0.00345978
1153.21	-0.000405884	0.011319
1153.67	-0.698975	-0.0218811
1154.13	-6.40869e-05	0.00347412
1154.61	0.000765991	0.0113037
1155.07	-0.698883	-0.0218811
1155.53	-0.000570679	0.00348022
1156.01	-0.00093689	0.0113068
1156.47	-0.698578	-0.0218903
1156.93	-0.000656128	0.0034848
1157.41	-0.00065918	0.0112976
1157.87	-0.697449	-0.0218964
1158.33	0.000912476	0.00347443
1158.81	-2.13623e-05	0.0113098
1159.27	-0.699005	-0.0218781
1159.73	0.0010498	0.00347992
1160.21	-0.000946045	0.0112976
1160.67	-0.698273	-0.0218903
1161.13	-0.000775146	0.00348938
1161.61	0.00045166	0.0112854
1162.07	-0.697205	-0.0218872
1162.53	0.000115967	0.00349243
1163.01	-0.000750732	0.0112793
1163.47	-0.698822	-0.0218842
1163.93	-0.000222778	0.00349854
1164.41	-0.000961304	0.0112915
1164.87	-0.698425	-0.0218994
1165.33	-0.000637817	0.00350372
1165.81	0.00050354	0.0112854
1166.27	-0.697327	-0.0218994
1166.73	0.00071106	0.00349487
1167.21	0.000592041	0.0112885
1167.67	-0.697449	-0.0219025
1168.13	-0.000128174	0.00350159
1168.61	6.40869e-05	0.0112915
1169.07	-0.697968	-0.0218872
1169.53	-0.000604248	0.00350861
1170.01	-0.000680542	0.0112976
1170.47	-0.698792	-0.0218811
1170.93	0.000970459	0.00350616
1171.41	0.000424194	0.0112762
1171.87	-0.69809	-0.0218842
1172.33	-0.000628662	0.00352081
1172.81	-0.000863647	0.0112732
1173.27	-0.698425	-0.0218994
1173.73	0.000964355	0.00351288
1174.21	0.000628662	0.0112762
1174.67	-0.697906	-0.0218933
1175.13	-0.000662231	0.00352875
1175.61	-0.000796509	0.0112854
1176.07	-0.698761	-0.0218994
1176.53	-0.000753784	0.00352905
1177.01	-0.000704956	0.011264
1177.47	-0.698944	-0.0219025
1177.93	0.000305176	0.00352112
1178.41	0.000534058	0.011264
1178.87	-0.697205	-0.0219055
1179.33	0.000918579	0.00352631
1179.81	-0.00108032	0.0112701
1180.27	-0.697723	-0.0218994
1180.73	-0.000588989	0.00354309
1181.21	-0.000921631	0.0112701
1181.67	-0.698242	-0.0219025
1182.13	0.000946045	0.00353363
1182.61	0.000598145	0.0112671
1183.07	-0.698029	-0.0218933
1183.53	-0.000598145	0.00354919
1184.01	-6.10352e-05	0.0112793
1184.47	-0.698914	-0.0218964
1184.93	0.00038147	0.0035379
1185.41	-0.000933838	0.0112732
1185.87	-0.697632	-0.0218994
1186.33	-0.000576782	0.00355377
1186.81	-0.00083313	0.0112762
1187.27	-0.698792	-0.0219147
1187.73	0.000857544	0.00354736
1188.21	0.000598145	0.0112579
1188.67	-0.697327	-0.0219177
1189.13	-6.71387e-05	0.00356262
1189.61	-0.000170898	0.0112701
1190.07	-0.69873	-0.0219147
1190.53	0.0009765625	0.00355591
1191.01	-0.000650024	0.0112549
1191.47	-0.697327	-0.0219177
1191.93	0.000994873	0.00355804
1192.41	0.000662231	0.0112579
1192.87	-0.697418	-0.0219177
1193.33	0.00112305	0.00356232
1193.81	6.10352e-05	0.0112427
1194.27	-0.698029	-0.0219025
1194.73	-0.00022583	0.00357605
1195.21	-0.000811768	0.011264
1195.67	-0.697296	-0.0219238
1196.13	0.000918579	0.00356659
1196.61	0.000469971	0.0112396
1197.07	-0.698547	-0.0219147
1197.53	-0.000631714	0.00358246
1198.01	-0.000354004	0.0112549
1198.47	-0.697357	-0.0219238
1198.93	0.000787354	0.00357208
1199.41	-0.000384521	0.0112427
1199.87	-0.698975	-0.0219055
1200.33	0.000500488	0.00358398
1200.81	-0.000305176	0.0112549
1201.27	-0.697174	-0.0219177
1201.73	0.000753784	0.00358185
1202.21	0.000421143	0.0112335
1202.67	-0.697784	-0.0219269
1203.13	-0.000479126	0.00359344
1203.61	-0.000997925	0.0112457
1204.07	-0.698242	-0.0219055
1204.53	8.8501e-05	0.00358734
1205.01	7.62939e-05	0.0112305
1205.47	-0.699036	-0.0219147
1205.93	0.000827026	0.00358826
1206.41	0.000341797	0.0112427
1206.87	-0.697418	-0.0219238
1207.33	-0.000772095	0.00359924
1207.81	-0.00039978	0.0112274
1208.27	-0.698792	-0.0219238
1208.73	-0.000411987	0.00360138
1209.21	-0.000253296	0.0112457
1209.67	-0.698578	-0.0219238
1210.13	9.15527e-06	0.00360779
1210.61	0.000253296	0.0112366
1211.07	-0.69754	-0.021933
1211.53	-0.000436401	0.00361359
1212.01	0.000521851	0.0112366
1212.47	-0.697723	-0.0219299
1212.93	2.44141e-05	0.00361389
1213.41	-0.000292969	0.0112366
1213.87	-0.697845	-0.0219147
1214.33	7.62939e-05	0.00361938
1214.81	0.000534058	0.0112213
1215.27	-0.69751	-0.0219177
1215.73	-0.00055542	0.00361969
1216.21	0.00055542	0.0112213
1216.67	-0.698242	-0.0219299
1217.13	-0.000497437	0.00362518
1217.61	-0.000982666	0.0112274
1218.07	-0.698761	-0.0219269
1218.53	0.000802612	0.00362305
1219.01	0.000192261	0.0112366
1219.47	-0.697449	-0.021933
1219.93	0.000442505	0.00362549
1220.41	0.000317383	0.0112305
1220.87	-0.698059	-0.0219269
1221.33	0.000518799	0.00363678
1221.81	-0.000668335	0.0112213
1222.27	-0.698181	-0.0219421
1222.73	-0.000146484	0.00364136
1223.21	-0.00043335	0.0112335
1223.67	-0.698151	-0.0219299
1224.13	0.000186157	0.00364105
1224.61	-0.000601196	0.0112152
1225.07	-0.697327	-0.0219452
1225.53	0.000952148	0.00363739
1226.01	-0.000756836	0.0112152
1226.47	-0.697266	-0.0219452
1226.93	-0.000378418	0.00365448
1227.41	-0.000183105	0.0112061
1227.87	-0.698944	-0.0219299
1228.33	0.000646973	0.00364227
1228.81	-0.000402832	0.0112213
1229.27	-0.697388	-0.0219482
1229.73	0.000970459	0.00364716
1230.21	-0.000714111	0.011203
1230.67	-0.697327	-0.0219391
1231.13	0.000292969	0.00365753
1231.61	0.000198364	0.0111969
1232.07	-0.697937	-0.0219299
1232.53	-0.000576782	0.00366425
1233.01	-0.000302124	0.0112152
1233.47	-0.697876	-0.0219482
1233.93	-0.000378418	0.00365784
1234.41	-0.000991821	0.0112183
1234.87	-0.698547	-0.0219269
1235.33	-0.000656128	0.00366791
1235.81	-0.0009765625	0.011203
1236.27	-0.697662	-0.0219391
1236.73	0.000622559	0.00366486
1237.21	-0.000689697	0.0112
1237.67	-0.697845	-0.0219543
1238.13	0.000933838	0.00366455
1238.61	-0.000814819	0.0112091
1239.07	-0.698975	-0.021936
1239.53	-0.000650024	0.00367554
1240.01	0.000366211	0.0112
1240.47	-0.697754	-0.0219421
1240.93	-0.000436401	0.00368103
1241.41	-0.00109558	0.0112
1241.87	-0.697479	-0.0219574
1242.33	0.000933838	0.00367676
1242.81	0.000143433	0.0112122
1243.27	-0.697693	-0.0219482
1243.73	0.000524902	0.00367859
1244.21	0.000619507	0.0112
1244.67	-0.697388	-0.0219543
1245.13	-0.000494385	0.00368591
1245.61	0.000628662	0.0111908
1246.07	-0.69751	-0.0219666
1246.53	-0.000457764	0.0036972
1247.01	-0.00110168	0.0111877
1247.47	-0.69812	-0.0219513
1247.93	0.000796509	0.00368835
1248.41	-0.00017395	0.0111816
1248.87	-0.698242	-0.0219574
1249.33	-0.000631714	0.00370392
1249.81	0.000234985	0.0111969
1250.27	-0.697662	-0.0219574
1250.73	0.000933838	0.00369598
1251.21	-0.000717163	0.0111877
1251.67	-0.698944	-0.0219421
1252.13	0.00107727	0.00369965
1252.61	-0.000964355	0.0111938
1253.07	-0.698883	-0.0219574
1253.53	-0.000180054	0.00371155
1254.01	-0.000994873	0.0111908
1254.47	-0.697266	-0.0219696
1254.93	-0.000585937	0.00371552
1255.41	-0.000531006	0.0111816
1255.87	-0.697479	-0.0219635
1256.33	-3.05176e-06	0.00371155
1256.81	0.000497437	0.0111725
1257.27	-0.697845	-0.0219543
1257.73	0.000634766	0.00371552
1258.21	-0.000918579	0.0111755
1258.67	-0.698212	-0.0219543
1259.13	-0.000656128	0.00372284
1259.61	0.000299072	0.0111694
1260.07	-0.697357	-0.0219543
1260.53	0.000942993	0.00371735
1261.01	-0.00100098	0.0111816
1261.47	-0.698914	-0.0219482
1261.93	-0.000524902	0.00372925
1262.41	-0.000598145	0.0111694
1262.87	-0.698395	-0.0219696
1263.33	0.000515747	0.00371948
1263.81	0.000286865	0.0111694
1264.27	-0.697662	-0.0219727
1264.73	-0.000650024	0.0037323
1265.21	0.000543213	0.0111572
1265.67	-0.698242	-0.0219696
1266.13	-0.000601196	0.00373383
1266.61	0.00062561	0.0111664
1267.07	-0.697418	-0.0219666
1267.53	0.000408936	0.00372833
1268.01	0.000128174	0.0111572
1268.47	-0.697693	-0.0219696
1268.93	0.00038147	0.00373138
1269.41	0.000350952	0.0111664
1269.87	-0.697205	-0.0219727
1270.33	-0.000369263	0.0037384
1270.81	-0.000515747	0.0111694
1271.27	-0.697784	-0.0219574
1271.73	0.000927734	0.00373505
1272.21	-0.000927734	0.0111603
1272.67	-0.698914	-0.0219543
1273.13	-0.000653076	0.00375153
1273.61	0.000357056	0.0111511
1274.07	-0.697723	-0.0219727
1274.53	0.000436401	0.00374298
1275.01	0.000460815	0.0111542
1275.47	-0.69873	-0.0219727
1275.93	-0.000662231	0.00375793
1276.41	0.000579834	0.0111542
1276.87	-0.697449	-0.0219757
1277.33	0.000958252	0.00374908
1277.81	-0.000967407	0.0111572
1278.27	-0.698395	-0.0219727
1278.73	5.79834e-05	0.00375519
1279.21	0.000549316	0.0111511
1279.67	-0.698578	-0.0219574
1280.13	-0.000570679	0.00376678
1280.61	0.000628662	0.0111511
1281.07	-0.697296	-0.0219666
1281.53	0.000930786	0.00375732
1282.01	-0.00108032	0.0111511
1282.47	-0.6987	-0.0219696
1282.93	-0.000335693	0.0037674
1283.41	0.000213623	0.0111389
1283.87	-0.697418	-0.0219727
1284.33	0.000390625	0.00377014
1284.81	-0.000802612	0.0111572
1285.27	-0.697357	-0.0219757
1285.73	0.000875854	0.00377075
1286.21	-0.000714111	0.011145
1286.67	-0.698975	-0.0219757
1287.13	-0.000650024	0.00378052
1287.61	-0.000283813	0.0111511
1288.07	-0.697357	-0.0219818
1288.53	0.000405884	0.00377838
1289.01	0.000662231	0.0111359
1289.47	-0.698914	-0.0219666
1289.93	0.000692749	0.00377441
1290.41	0.000350952	0.0111298
1290.87	-0.698822	-0.0219635
1291.33	0.00101929	0.00377747
1291.81	-0.00100403	0.0111389
1292.27	-0.697998	-0.021991
1292.73	-0.000479126	0.00378876
1293.21	-0.000784302	0.0111481
1293.67	-0.697601	-0.021991
1294.13	0.000274658	0.0037915
1294.61	0.000653076	0.0111298
1295.07	-0.698425	-0.0219666
1295.53	-0.00039978	0.00379547
1296.01	-0.000775146	0.011142
1296.47	-0.698029	-0.0219849
1296.93	0.000726318	0.00378723
1297.41	0.000430298	0.0111206
1297.87	-0.699036	-0.0219727
1298.33	0.00093689	0.00379425
1298.81	-0.000289917	0.0111389
1299.27	-0.697968	-0.0219757
1299.73	-0.000634766	0.00380859
1300.21	-0.000817871	0.0111359
1300.67	-0.698273	-0.0219818
1301.13	0.000747681	0.00379761
1301.61	0.000549316	0.0111237
1302.07	-0.697327	-0.0219879
1302.53	0.000476074	0.00381104
1303.01	-0.000515747	0.0111389
1303.47	-0.697266	-0.0219818
1303.93	0.000540161	0.0038089
1304.41	-0.000482178	0.0111145
1304.87	-0.698151	-0.0219879
1305.33	0.000961304	0.00380676
1305.81	-0.000576782	0.0111328
1306.27	-0.699005	-0.0219696
1306.73	-0.000753784	0.00382263
1307.21	0.000366211	0.0111237
1307.67	-0.697296	-0.0219879
1308.13	0.000842285	0.00381378
1308.61	-0.00100403	0.0111145
1309.07	-0.698975	-0.0219818
1309.53	-0.000643921	0.00383148
1310.01	0.000640869	0.0111176
1310.47	-0.697876	-0.0219879
1310.93	0.00039978	0.00382904
1311.41	-0.000985718	0.0111176
1311.87	-0.69751	-0.0220001
1312.33	0.000827026	0.00382355
1312.81	-0.000964355	0.0111206
1313.27	-0.698853	-0.0219879
1313.73	-0.000613403	0.00384155
1314.21	0.000390625	0.0111267
1314.67	-0.697937	-0.021991
1315.13	-0.000506592	0.0038443
1315.61	-0.000854492	0.0111115
1316.07	-0.697632	-0.0219971
1316.53	-0.000637817	0.00384735
1317.01	-0.00093689	0.0111237
1317.47	-0.697266	-0.0219971
1317.93	0.000961304	0.00384125
1318.41	0.000579834	0.0111053
1318.87	-0.697296	-0.0219971
1319.33	-0.00055542	0.00385315
1319.81	-0.000231934	0.0111206
1320.27	-0.698151	-0.0220062
1320.73	0.000198364	0.00385071
1321.21	0.000213623	0.0111115
1321.67	-0.699005	-0.021994
1322.13	-0.000747681	0.00385895
1322.61	0.000543213	0.0111084
1323.07	-0.698914	-0.0219879
1323.53	0.00017395	0.00385834
1324.01	-0.000973511	0.0111084
1324.47	-0.697388	-0.0220062
1324.93	-0.00043335	0.00386475
1325.41	0.000268555	0.0110962
1325.87	-0.697266	-0.0220062
1326.33	0.000750732	0.00385864
1326.81	-0.000915527	0.0110962
1327.27	-0.698334	-0.0220062
1327.73	-0.000527954	0.00386536
1328.21	-0.000375366	0.0111053
1328.67	-0.698853	-0.0219818
1329.13	-0.000656128	0.00387299
1329.61	0.00045166	0.0110901
1330.07	-0.697327	-0.0220001
1330.53	0.000415039	0.00387085
1331.01	3.66211e-05	0.011087
1331.47	-0.697815	-0.021994
1331.93	-0.000231934	0.00388062
1332.41	-0.000305176	0.0110901
1332.87	-0.699097	-0.021991
1333.33	-1.2207e-05	0.00387482
1333.81	0.000317383	0.0110962
1334.27	-0.698456	-0.0219849
1334.73	-0.000411987	0.00388397
1335.21	-0.000765991	0.011084
1335.67	-0.69812	-0.021991
1336.13	-0.00065918	0.00388702
1336.61	-0.000650024	0.0110748
1337.07	-0.698486	-0.0220062
1337.53	0.0009552	0.00387817
1338.01	-0.00107422	0.0110901
1338.47	-0.698883	-0.0219879
1338.93	0.000430298	0.00388
1339.41	-0.000549316	0.0110779
1339.87	-0.6987	-0.0219849
1340.33	0.000717163	0.00388214
1340.81	0.000497437	0.0110718
1341.27	-0.698975	-0.021994
1341.73	-0.000546265	0.00389832
1342.21	5.79834e-05	0.0110687
1342.67	-0.697388	-0.0220001
1343.13	-0.000137329	0.00389587
1343.61	-0.000860596	0.011084
1344.07	-0.697357	-0.0220001
1344.53	-0.000616455	0.00390106
1345.01	-0.000933838	0.011084
1345.47	-0.697357	-0.0220032
1345.93	0.00022583	0.0039032
1346.41	-0.000863647	0.0110748
1346.87	-0.697296	-0.0219971
1347.33	0.00072937	0.00389587
1347.81	-0.000927734	0.0110718
1348.27	-0.698395	-0.0220123
1348.73	-0.000250244	0.00390686
1349.21	-0.000769043	0.0110779
1349.67	-0.69873	-0.0220123
1350.13	-0.000366211	0.00391449
1350.61	-0.000515747	0.0110687
1351.07	-0.697693	-0.0220154
1351.53	-4.88281e-05	0.00391113
1352.01	0.000537109	0.0110657
1352.47	-0.697845	-0.0220154
1352.93	0.000817871	0.003909
1353.41	-0.000796509	0.0110779
1353.87	-0.697449	-0.0220093
1354.33	0.000366211	0.00391724
1354.81	-0.000396729	0.0110657
1355.27	-0.698883	-0.0220032
1355.73	0.000827026	0.00391388
1356.21	-6.71387e-05	0.0110565
1356.67	-0.698822	-0.0220032
1357.13	0.000872803	0.00391663
1357.61	-0.00015564	0.0110626
1358.07	-0.697479	-0.0220184
1358.53	-0.000537109	0.00392944
1359.01	-0.000506592	0.0110596
1359.47	-0.697357	-0.0220123
1359.93	-0.000558472	0.00393311
1360.41	0.000631714	0.0110626
1360.87	-0.697784	-0.0220093
1361.33	0.000830078	0.00392426
1361.81	-0.000662231	0.0110718
1362.27	-0.697937	-0.0220154
1362.73	-0.000592041	0.00393921
1363.21	0.000158691	0.0110535
1363.67	-0.697693	-0.0220154
1364.13	0.000723267	0.00393463
1364.61	-0.000244141	0.0110474
1365.07	-0.697357	-0.0220184
1365.53	0.000146484	0.00394257
1366.01	0.000231934	0.0110474
1366.47	-0.697968	-0.0220062
1366.93	-0.000421143	0.00394836
1367.41	0.000274658	0.0110565
1367.87	-0.698608	-0.0220123
1368.33	-0.000372314	0.00394287
1368.81	0.000717163	0.0110504
1369.27	-0.698517	-0.0220001
1369.73	-0.000537109	0.00395294
1370.21	-0.000939941	0.0110504
1370.67	-0.69754	-0.0220154
1371.13	-0.000509644	0.00395569
1371.61	-0.000939941	0.0110504
1372.07	-0.698059	-0.0220062
1372.53	-7.32422e-05	0.0039566
1373.01	0.000402832	0.0110535
1373.47	-0.69812	-0.0220184
1373.93	0.000524902	0.00395355
1374.41	0.000500488	0.0110443
1374.87	-0.698395	-0.0220184
1375.33	0.000653076	0.00395538
1375.81	0.000372314	0.0110443
1376.27	-0.697723	-0.0220215
1376.73	0.000765991	0.00395386
1377.21	-0.000723267	0.0110382
1377.67	-0.698456	-0.0220001
1378.13	0.000326538	0.00395966
1378.61	-0.000143433	0.011026
1379.07	-0.698547	-0.0220093
1379.53	0.000357056	0.0039621
1380.01	0.000344849	0.0110291
1380.47	-0.698822	-0.0220062
1380.93	0.00090332	0.00396484
1381.41	0.000170898	0.0110291
1381.87	-0.697327	-0.0220184
1382.33	-0.000610352	0.00397614
1382.81	-0.000805664	0.0110413
1383.27	-0.697327	-0.0220184
1383.73	-0.000408936	0.00397522
1384.21	-0.000350952	0.0110199
1384.67	-0.69873	-0.0220032
1385.13	0.00039978	0.00396851
1385.61	-0.00100098	0.0110229
1386.07	-0.697357	-0.0220154
1386.53	-0.000646973	0.003984375
1387.01	-0.000445557	0.0110199
1387.47	-0.698761	-0.0220062
1387.93	0.000906372	0.00397339
1388.41	0.000411987	0.0110321
1388.87	-0.698029	-0.0220215
1389.33	-0.000234985	0.0039917
1389.81	-0.000775146	0.0110291
1390.27	-0.697418	-0.0220276
1390.73	-0.000558472	0.00399109
1391.21	-0.000518799	0.0110352
1391.67	-0.698547	-0.0220093
1392.13	-0.000546265	0.00399536
1392.61	-0.000808716	0.0110321
1393.07	-0.698914	-0.0220154
1393.53	0.000350952	0.00399475
1394.01	-3.96729e-05	0.0110291
1394.47	-0.699005	-0.0220154
1394.93	-0.000308228	0.00399506
1395.41	0.000622559	0.0110168
1395.87	-0.697479	-0.0220276
1396.33	0.000671387	0.00399048
1396.81	0.000354004	0.0110168
1397.27	-0.697418	-0.0220245
1397.73	-0.00065918	0.00400574
1398.21	0.000762939	0.0110168
1398.67	-0.697357	-0.0220245
1399.13	0.000799561	0.00399506
1399.61	0.000442505	0.0110138
1400.07	-0.697388	-0.0220215
1400.53	0.000473022	0.00399933
1401.01	0.000546265	0.0110107
1401.47	-0.698334	-0.0220093
1401.93	0.000140381	0.00400909
1402.41	0.000323486	0.0110016
1402.87	-0.698669	-0.0220093
1403.33	0.000549316	0.00400757
1403.81	0.000631714	0.0110016
1404.27	-0.697998	-0.0220123
1404.73	-0.000595093	0.00401855
1405.21	0.000375366	0.0109985
1405.67	-0.699005	-0.0220184
1406.13	0.000299072	0.00401459
1406.61	0.000460815	0.0110016
1407.07	-0.698517	-0.0220245
1407.53	-0.000616455	0.00402222
1408.01	0.000582886	0.0110016
1408.47	-0.69754	-0.0220215
1408.93	0.00103455	0.00401428
1409.41	-0.000357056	0.0110107
1409.87	-0.697968	-0.0220337
1410.33	0.000747681	0.00401855
1410.81	-0.00015564	0.0110168
1411.27	-0.698364	-0.0220306
1411.73	-0.000326538	0.00402771
1412.21	-0.000857544	0.0110046
1412.67	-0.698425	-0.0220276
1413.13	-0.000695801	0.0040274
1413.61	-0.000177002	0.0110077
1414.07	-0.697418	-0.0220306
1414.53	0.000509644	0.00402924
1415.01	-0.000979614	0.0109924
1415.47	-0.699005	-0.0220184
1415.93	-0.00067749	0.00403717
1416.41	0.000198364	0.0109833
1416.87	-0.697601	-0.0220306
1417.33	-0.00055542	0.00403656
1417.81	-0.000506592	0.0110016
1418.27	-0.697418	-0.0220245
1418.73	0.000775146	0.00402863
1419.21	0.0006073	0.0109894
1419.67	-0.698914	-0.0220154
1420.13	-0.000714111	0.00404236
1420.61	-0.000888062	0.0109985
1421.07	-0.6987	-0.0220306
1421.53	0.000662231	0.00403961
1422.01	0.000708008	0.0109833
1422.47	-0.697754	-0.0220306
1422.93	0.000848389	0.00403809
1423.41	-0.00088501	0.0109833
1423.87	-0.697876	-0.0220367
1424.33	0.000878906	0.00403931
1424.81	-0.00072937	0.0109772
1425.27	-0.698975	-0.0220184
1425.73	-0.000296021	0.00405365
1426.21	-0.000701904	0.0109894
1426.67	-0.698883	-0.0220123
1427.13	-0.000619507	0.00405609
1427.61	-0.000979614	0.0109802
1428.07	-0.699005	-0.0220184
1428.53	0.000637817	0.00405273
1429.01	0.000149536	0.0109863
1429.47	-0.698792	-0.0220093
1429.93	-0.000643921	0.00406158
1430.41	0.000628662	0.010968
1430.87	-0.697754	-0.0220245
1431.33	0.000970459	0.00405182
1431.81	-0.0009765625	0.0109772
1432.27	-0.698029	-0.0220367
1432.73	-0.000631714	0.00406525
1433.21	-0.000344849	0.0109863
1433.67	-0.698944	-0.0220184
1434.13	-0.000531006	0.00406647
1434.61	0.000592041	0.010968
1435.07	-0.698486	-0.0220245
1435.53	0.00100098	0.00406433
1436.01	-9.15527e-05	0.0109589
1436.47	-0.697784	-0.0220337
1436.93	0.000393677	0.00406677
1437.41	0.000311279	0.0109711
1437.87	-0.69812	-0.0220306
1438.33	-0.000570679	0.00407532
1438.81	-0.000909424	0.0109741
1439.27	-0.698975	-0.0220154
1439.73	0.00072937	0.00406677
1440.21	0.000698853	0.010965
1440.67	-0.698883	-0.0220123
1441.13	0.000872803	0.00407074
1441.61	-0.00098877	0.010968
1442.07	-0.698822	-0.0220245
1442.53	-0.000527954	0.00408447
1443.01	-0.000949097	0.0109619
1443.47	-0.697205	-0.0220306
1443.93	-0.000286865	0.00408142
1444.41	-0.000769043	0.0109741
1444.87	-0.698151	-0.0220337
1445.33	0.000961304	0.00407776
1445.81	-0.000970459	0.0109619
1446.27	-0.697235	-0.0220306
1446.73	0.000912476	0.00407837
1447.21	-0.0010376	0.0109558
1447.67	-0.698181	-0.0220306
1448.13	0.00090332	0.00408051
1448.61	-0.000274658	0.0109619
1449.07	-0.697662	-0.0220337
1449.53	-0.00038147	0.00408569
1450.01	-0.000949097	0.0109558
1450.47	-0.699097	-0.0220184
1450.93	0.000656128	0.00408264
1451.41	0.000320435	0.0109619
1451.87	-0.699005	-0.0220215
1452.33	-6.10352e-06	0.00409088
1452.81	-4.27246e-05	0.0109497
1453.27	-0.697662	-0.0220337
1453.73	0.000845337	0.00409607
1454.21	-0.000384521	0.0109619
1454.67	-0.697418	-0.0220367
1455.13	0.00027771	0.00409973
1455.61	-0.0009765625	0.0109558
1456.07	-0.698181	-0.0220215
1456.53	-0.000735474	0.00410583
1457.01	0.00032959	0.0109528
1457.47	-0.698273	-0.0220398
1457.93	0.000442505	0.00409973
1458.41	-0.000341797	0.0109528
1458.87	-0.697449	-0.0220398
1459.33	0.000534058	0.00410522
1459.81	-0.000680542	0.0109375
1460.27	-0.698853	-0.0220184
1460.73	-0.000439453	0.00411591
1461.21	0.000152588	0.0109528
1461.67	-0.697296	-0.0220276
1462.13	-0.000231934	0.0041153
1462.61	-0.000900269	0.0109344
1463.07	-0.698639	-0.0220215
1463.53	-0.000750732	0.00411835
1464.01	0.000628662	0.0109314
1464.47	-0.697266	-0.0220184
1464.93	-0.000610352	0.00411896
1465.41	-0.000314331	0.0109253
1465.87	-0.698975	-0.0220123
1466.33	0.000357056	0.00411652
1466.81	-0.000323486	0.0109375
1467.27	-0.697327	-0.0220306
1467.73	0.000479126	0.00411469
1468.21	0.000692749	0.0109283
1468.67	-0.698853	-0.0220123
1469.13	0.000875854	0.0041153
1469.61	-0.000311279	0.0109375
1470.07	-0.698242	-0.0220306
1470.53	-0.000415039	0.00413086
1471.01	-0.000402832	0.0109222
1471.47	-0.697723	-0.0220367
1471.93	0.000848389	0.00411957
1472.41	-0.000753784	0.0109222
1472.87	-0.697418	-0.0220367
1473.33	0.000469971	0.00412598
1473.81	0.000579834	0.0109161
1474.27	-0.697174	-0.0220245
1474.73	0.000543213	0.0041275
1475.21	0.000579834	0.0109253
1475.67	-0.697479	-0.0220245
1476.13	0.000445557	0.00413116
1476.61	-0.000411987	0.0109222
1477.07	-0.698853	-0.0220123
1477.53	-0.000720215	0.00413513
1478.01	-0.000888062	0.0109222
1478.47	-0.697388	-0.0220245
1478.93	-0.000527954	0.00414124
1479.41	-0.000875854	0.0109161
1479.87	-0.698364	-0.0220154
1480.33	-0.000369263	0.00413483
1480.81	0.000646973	0.0109161
1481.27	-0.697449	-0.0220276
1481.73	-0.000469971	0.00414307
1482.21	0.000628662	0.010907
1482.67	-0.698914	-0.0220123
1483.13	0.000390625	0.00414276
1483.61	-0.000650024	0.0109222
1484.07	-0.698608	-0.0220367
1484.53	-0.000146484	0.00414551
1485.01	-0.000439453	0.0109222
1485.47	-0.698914	-0.0220184
1485.93	0.000924683	0.00414337
1486.41	-0.000692749	0.0109131
1486.87	-0.697296	-0.0220367
1487.33	0.000244141	0.00415771
1487.81	0.000115967	0.010907
1488.27	-0.697998	-0.0220367
1488.73	0.000488281	0.00415466
1489.21	-0.000280762	0.0109161
1489.67	-0.698975	-0.0220245
1490.13	0.000942993	0.00415192
1490.61	-0.00088501	0.0109131
1491.07	-0.699005	-0.0220245
1491.53	0.000836182	0.00415161
1492.01	-0.000518799	0.0109161
1492.47	-0.6987	-0.0220337
1492.93	0.000762939	0.00415344
1493.41	-0.000942993	0.010907
1493.87	-0.698486	-0.0220337
1494.33	0.000485229	0.00416595
1494.81	0.000643921	0.0109009
1495.27	-0.697601	-0.0220337
1495.73	-0.000402832	0.00417114
1496.21	-0.000567627	0.0108948
1496.67	-0.697601	-0.0220367
1497.13	-0.000109863	0.00416229
1497.61	-0.000915527	0.0109009
1498.07	-0.698669	-0.0220184
1498.53	9.15527e-05	0.00416626
1499.01	-4.57764e-05	0.0108917
1499.47	-0.698669	-0.0220276
1499.93	-0.000338745	0.00417175
1500.41	0.000134277	0.0108887
1500.87	-0.697723	-0.0220367
1501.33	-0.000384521	0.00417938
1501.81	-6.10352e-06	0.010907
1502.27	-0.698822	-0.0220215
1502.73	0.000466919	0.00417542
1503.21	-0.000708008	0.0108887
1503.67	-0.6987	-0.0220306
1504.13	0.000360107	0.00417175
1504.61	-0.000335693	0.0108856
1505.07	-0.697754	-0.0220367
1505.53	-0.000561523	0.00418365
1506.01	0.000631714	0.0108887
1506.47	-0.698853	-0.0220245
1506.93	0.000146484	0.00417786
1507.41	0.000320435	0.0108917
1507.87	-0.698303	-0.0220123
1508.33	9.76562e-05	0.00418213
1508.81	0.00057373	0.0108765
1509.27	-0.698669	-0.0220245
1509.73	-0.000439453	0.00419128
1510.21	-0.000912476	0.0108887
1510.67	-0.697235	-0.0220337
1511.13	0.000158691	0.00419403
1511.61	0.000656128	0.0108856
1512.07	-0.6987	-0.0220276
1512.53	0.000991821	0.00418884
1513.01	-0.000415039	0.0108795
1513.47	-0.698456	-0.0220276
1513.93	-0.000430298	0.00420319
1514.41	-0.00102539	0.0108917
1514.87	-0.698944	-0.0220337
1515.33	0.000881958	0.00419159
1515.81	-6.71387e-05	0.0108704
1516.27	-0.698761	-0.0220245
1516.73	-0.000747681	0.0042038
1517.21	-0.000967407	0.0108856
1517.67	-0.698212	-0.0220398
1518.13	0.000387573	0.00420197
1518.61	0.000357056	0.0108673
1519.07	-0.697998	-0.0220428
1519.53	-0.000668335	0.00421082
1520.01	0.000463867	0.0108673
1520.47	-0.697571	-0.0220428
1520.93	0.000637817	0.00420044
1521.41	0.000640869	0.0108673
1521.87	-0.698303	-0.0220367
1522.33	-0.000570679	0.00421234
1522.81	0.000189209	0.0108582
1523.27	-0.698883	-0.0220367
1523.73	-0.000567627	0.00421722
1524.21	0.000643921	0.0108734
1524.67	-0.698944	-0.0220215
1525.13	0.000778198	0.00420807
1525.61	-0.000726318	0.0108765
1526.07	-0.697845	-0.0220428
1526.53	0.000973511	0.00420807
1527.01	-0.00101624	0.0108673
1527.47	-0.698853	-0.0220276
1527.93	0.000650024	0.00421448
1528.41	-0.000909424	0.0108704
1528.87	-0.697479	-0.0220459
1529.33	-0.000476074	0.00422791
1529.81	-0.000332642	0.010849
1530.27	-0.69812	-0.0220367
1530.73	-0.000369263	0.00422821
1531.21	-0.000656128	0.0108582
1531.67	-0.698608	-0.0220215
1532.13	0.000759888	0.00422089
1532.61	0.000500488	0.0108612
1533.07	-0.697296	-0.0220276
1533.53	-0.000418091	0.00422821
1534.01	0.000500488	0.0108521
1534.47	-0.698669	-0.0220337
1534.93	0.000216675	0.00422943
1535.41	-0.00083313	0.0108612
1535.87	-0.699066	-0.0220306
1536.33	7.93457e-05	0.00423218
1536.81	-0.000686646	0.0108612
1537.27	-0.69809	-0.0220398
1537.73	0.000738525	0.00422791
1538.21	-0.000259399	0.0108643
1538.67	-0.697754	-0.0220428
1539.13	-0.000384521	0.00423615
1539.61	0.000598145	0.0108643
1540.07	-0.697571	-0.0220428
1540.53	-0.000170898	0.00424347
1541.01	-9.15527e-06	0.0108459
1541.47	-0.698883	-0.0220306
1541.93	0.00010376	0.00424774
1542.41	0.000186157	0.0108582
1542.87	-0.697937	-0.0220367
1543.33	0.000119019	0.00424622
1543.81	-7.93457e-05	0.0108429
1544.27	-0.698853	-0.0220245
1544.73	-0.000683594	0.00425171
1545.21	4.27246e-05	0.0108429
1545.67	-0.698486	-0.0220276
1546.13	-0.00065918	0.0042514
1546.61	0.000286865	0.0108398
1547.07	-0.697754	-0.022052
1547.53	0.00088501	0.00424316
1548.01	-0.000863647	0.0108459
1548.47	-0.697205	-0.0220367
1548.93	-0.000643921	0.00425751
1549.41	-0.000860596	0.0108551
1549.87	-0.697968	-0.0220459
1550.33	0.000961304	0.00424774
1550.81	-0.000912476	0.0108429
1551.27	-0.697784	-0.0220459
1551.73	-0.000460815	0.00426208
1552.21	-0.00100098	0.0108398
1552.67	-0.697815	-0.0220306
1553.13	0.000259399	0.00425507
1553.61	0.000622559	0.0108368
1554.07	-0.697388	-0.0220459
1554.53	-2.13623e-05	0.00426666
1555.01	-0.00103455	0.0108337
1555.47	-0.697601	-0.0220337
1555.93	0.000970459	0.00425812
1556.41	0.000543213	0.0108368
1556.87	-0.69751	-0.0220428
1557.33	0.000894165	0.00426514
1557.81	0.000354004	0.0108368
1558.27	-0.697235	-0.0220459
1558.73	0.000708008	0.00426392
1559.21	0.000289917	0.0108246
1559.67	-0.697388	-0.0220367
1560.13	-0.000775146	0.00427399
1560.61	-0.000137329	0.0108215
1561.07	-0.698364	-0.0220306
1561.53	0.000387573	0.00427032
1562.01	0.00062561	0.0108246
1562.47	-0.697449	-0.0220367
1562.93	0.000872803	0.00426697
1563.41	0.000643921	0.0108246
1563.87	-0.698761	-0.0220215
1564.33	0.000961304	0.00426697
1564.81	-0.000592041	0.0108215
1565.27	-0.698853	-0.0220245
1565.73	0.000952148	0.0042688
1566.21	0.000396729	0.0108154
1566.67	-0.697144	-0.0220367
1567.13	-0.000668335	0.00428375
1567.61	-0.000195313	0.0108307
1568.07	-0.697327	-0.0220459
1568.53	0.000790405	0.00427185
1569.01	-0.000900269	0.0108246
1569.47	-0.698914	-0.0220276
1569.93	0.000756836	0.00427765
1570.41	-0.00107727	0.0108215
1570.87	-0.698578	-0.0220245
1571.33	-0.000219727	0.00428772
1571.81	0.000509644	0.0108124
1572.27	-0.698578	-0.0220245
1572.73	0.000787354	0.00428467
1573.21	-0.000439453	0.0108276
1573.67	-0.697388	-0.0220428
1574.13	-0.000619507	0.00429352
1574.61	0.000494385	0.0108124
1575.07	-0.697632	-0.0220337
1575.53	0.000485229	0.0042923
1576.01	-0.000106812	0.0108032
1576.47	-0.697876	-0.0220428
1576.93	0.000216675	0.00429413
1577.41	0.000366211	0.0108002
1577.87	-0.697388	-0.0220398
1578.33	0.000552368	0.00429657
1578.81	-0.00106201	0.0108124
1579.27	-0.698914	-0.0220276
1579.73	0.000909424	0.00428894
1580.21	0.000613403	0.0108002
1580.67	-0.698975	-0.0220306
1581.13	-0.000631714	0.00430511
1581.61	0.000418091	0.0107941
1582.07	-0.697601	-0.0220428
1582.53	0.000582886	0.0042984
1583.01	0.000152588	0.0108093
1583.47	-0.697418	-0.022049
1583.93	0.000128174	0.00430603
1584.41	-0.000714111	0.0108002
1584.87	-0.698273	-0.0220215
1585.33	-0.000289917	0.00430359
1585.81	-0.000180054	0.010791
1586.27	-0.698242	-0.0220215
1586.73	-0.000338745	0.00431152
1587.21	0.000485229	0.0107941
1587.67	-0.698792	-0.0220367
1588.13	-0.000296021	0.00430603
1588.61	-0.000195313	0.0108124
1589.07	-0.698914	-0.0220306
1589.53	-2.44141e-05	0.0043045
1590.01	-0.000854492	0.0108063
1590.47	-0.698608	-0.0220428
1590.93	-0.00067749	0.00431519
1591.41	-0.000411987	0.0108063
1591.83	0.00101624	0.00155334