File: Edgar/20230619/20230619/electrodeposition_WO3_thin_films_onto_ITO_A/wo3_film_continuous_electrodeposition_A/CA_2
Time (s)	WE(1).Current (A)	WE(1).Potential (V)
72.0618	-0.00170258	-0.699646
72.3618	-0.00169159	-0.699036
72.6618	-0.00178925	-0.698883
72.9618	-0.0018988	-0.698853
73.2618	-0.00202789	-0.699097
73.5618	-0.00217407	-0.699097
73.8618	-0.00233002	-0.6987
74.1618	-0.0024881	-0.698792
74.4618	-0.00264282	-0.698883
74.7618	-0.00278961	-0.69873
75.0618	-0.00292694	-0.698639
75.3618	-0.00305603	-0.69931
75.6618	-0.00317505	-0.699463
75.9618	-0.00328491	-0.699432
76.2618	-0.00338715	-0.699432
76.5618	-0.00348236	-0.699249
76.8618	-0.00357147	-0.699493
77.1618	-0.0036557	-0.699463
77.4618	-0.00373474	-0.699341
77.7618	-0.00380981	-0.699249
78.0618	-0.00388092	-0.699249
78.3618	-0.00394897	-0.699524
78.6618	-0.00401398	-0.699432
78.9618	-0.00407623	-0.699188
79.2618	-0.00413635	-0.699188
79.5618	-0.00419403	-0.699463
79.8618	-0.00424927	-0.699463
80.1618	-0.00430298	-0.699188
80.4618	-0.00435486	-0.69931
80.7618	-0.0044046	-0.699432
81.0618	-0.004453125	-0.699371
81.3618	-0.00450012	-0.699188
81.6618	-0.00454559	-0.699432
81.9618	-0.00458984	-0.699432
82.2618	-0.00463257	-0.699249
82.5618	-0.00467438	-0.699249
82.8618	-0.00471497	-0.699402
83.1618	-0.00475403	-0.699158
83.4618	-0.00479187	-0.699219
83.7618	-0.0048288	-0.699341
84.0618	-0.0048645	-0.699371
84.3618	-0.00489868	-0.699463
84.6618	-0.00493195	-0.69928
84.9618	-0.00496399	-0.699158
85.2618	-0.00499481	-0.699341
85.5618	-0.00502625	-0.699402
85.8618	-0.00505676	-0.699402
86.1618	-0.00508423	-0.699219
86.4618	-0.00510864	-0.699219
86.7618	-0.00513306	-0.699249
87.0618	-0.00515747	-0.699432
87.3618	-0.00517883	-0.699432
87.6618	-0.0052002	-0.699127
87.9618	-0.00522156	-0.699432
88.2618	-0.00523987	-0.699463
88.5618	-0.00525818	-0.699158
88.8618	-0.00527649	-0.699127
89.1618	-0.00529175	-0.699493
89.4618	-0.00530396	-0.699463
89.7618	-0.00531921	-0.699127
90.0618	-0.00533142	-0.699463
90.3618	-0.00534363	-0.699524
90.6618	-0.00535278	-0.699188
90.9618	-0.00536194	-0.699188
91.2618	-0.00537109	-0.699493
91.5618	-0.00538025	-0.699219
91.8618	-0.00538635	-0.699127
92.1618	-0.00539551	-0.699249
92.4618	-0.00539856	-0.699463
92.7618	-0.00540466	-0.699158
93.0618	-0.00541077	-0.699219
93.3618	-0.00541382	-0.699493
93.6618	-0.00541687	-0.699341
93.9618	-0.00541992	-0.699097
94.2618	-0.00542297	-0.699371
94.5618	-0.00542297	-0.699432
94.8618	-0.00542603	-0.699127
95.1618	-0.00542603	-0.699371
95.4618	-0.00542603	-0.699432
95.7618	-0.00542603	-0.699249
96.0618	-0.00542603	-0.699341
96.3618	-0.00542603	-0.699097
96.6618	-0.00542297	-0.699127
96.9618	-0.00542297	-0.699341
97.2618	-0.00541992	-0.699463
97.5618	-0.00541992	-0.699341
97.8618	-0.00541687	-0.699249
98.1618	-0.00541382	-0.699371
98.4618	-0.00541077	-0.699493
98.7618	-0.00540771	-0.69928
99.0618	-0.00540466	-0.699493
99.3618	-0.00540161	-0.699371
99.6618	-0.00539551	-0.699402
99.9618	-0.00539246	-0.699341
100.262	-0.0053894	-0.699249
100.562	-0.00538635	-0.699402
100.862	-0.00538025	-0.699371
101.162	-0.0053772	-0.699402
101.462	-0.00537109	-0.699341
101.762	-0.00536804	-0.699371
102.062	-0.00536194	-0.699402
102.362	-0.00535889	-0.699493
102.662	-0.00535278	-0.699432
102.962	-0.00534668	-0.699158
103.262	-0.00534363	-0.699402
103.562	-0.00533752	-0.699524
103.862	-0.00533142	-0.699219
104.162	-0.00532532	-0.69928
104.462	-0.00532227	-0.699524
104.762	-0.00531616	-0.699463
105.062	-0.00531006	-0.699219
105.362	-0.00530396	-0.699463
105.662	-0.00529785	-0.699249
105.962	-0.0052948	-0.699463
106.262	-0.0052887	-0.699493
106.562	-0.00528259	-0.699188
106.862	-0.00527649	-0.699158
107.162	-0.00527039	-0.69931
107.462	-0.00526428	-0.699341
107.762	-0.00525818	-0.699554
108.062	-0.00525513	-0.699097
108.362	-0.00524597	-0.699463
108.662	-0.00524292	-0.699219
108.962	-0.00523376	-0.699432
109.262	-0.00522766	-0.699341
109.562	-0.00522156	-0.699524
109.862	-0.00521851	-0.699493
110.162	-0.0052124	-0.699463
110.462	-0.0052063	-0.699432
110.762	-0.0052002	-0.699097
111.062	-0.00519409	-0.699463
111.362	-0.00518799	-0.699432
111.662	-0.00518188	-0.699402
111.962	-0.00517578	-0.69931
112.262	-0.00516968	-0.699188
112.562	-0.00516357	-0.69928
112.862	-0.00515747	-0.699524
113.162	-0.00515137	-0.699341
113.462	-0.00514832	-0.699493
113.762	-0.00514221	-0.699432
114.062	-0.00513611	-0.699493
114.362	-0.00513	-0.699249
114.662	-0.00512695	-0.699463
114.962	-0.00512085	-0.699493
115.262	-0.00511475	-0.699493
115.562	-0.00511169	-0.699127
115.862	-0.00510559	-0.699463
116.162	-0.00509949	-0.699371
116.462	-0.00509338	-0.699341
116.762	-0.00509033	-0.699402
117.062	-0.00508423	-0.69931
117.362	-0.005078125	-0.69931
117.662	-0.00507202	-0.699127
117.962	-0.00506897	-0.699341
118.262	-0.00506287	-0.699188
118.562	-0.00505981	-0.699341
118.862	-0.00505676	-0.699127
119.162	-0.00504761	-0.699402
119.462	-0.00504456	-0.699127
119.762	-0.0050415	-0.699158
120.062	-0.00503845	-0.699219
120.362	-0.00503235	-0.699097
120.662	-0.0050293	-0.699493
120.962	-0.00502625	-0.699127
121.262	-0.00502319	-0.69931
121.562	-0.00502014	-0.69931
121.862	-0.00501404	-0.699158
122.162	-0.00501099	-0.699341
122.462	-0.00500793	-0.699432
122.762	-0.00500488	-0.69928
123.062	-0.00500183	-0.699158
123.362	-0.00499634	-0.699066
123.662	-0.00499329	-0.699493
123.962	-0.00499023	-0.699432
124.262	-0.00498718	-0.699097
124.562	-0.00498444	-0.699554
124.862	-0.00498199	-0.699524
125.162	-0.00497955	-0.699402
125.462	-0.00497772	-0.699249
125.762	-0.00497498	-0.69931
126.062	-0.00497284	-0.699158
126.362	-0.00496979	-0.699341
126.662	-0.00496857	-0.699432
126.962	-0.0049649	-0.69928
127.262	-0.00496399	-0.69931
127.562	-0.00496185	-0.699463
127.862	-0.00496124	-0.699097
128.162	-0.00496063	-0.699158
128.462	-0.0049585	-0.699524
128.762	-0.00495636	-0.699402
129.062	-0.00495392	-0.699097
129.362	-0.004953	-0.699463
129.662	-0.00495056	-0.699341
129.962	-0.00494904	-0.699463
130.262	-0.00494476	-0.699463
130.562	-0.00494354	-0.69928
130.862	-0.00494232	-0.699127
131.162	-0.0049408	-0.699341
131.462	-0.00493927	-0.699371
131.762	-0.00493744	-0.699097
132.062	-0.00493622	-0.699493
132.362	-0.004935	-0.699432
132.662	-0.0049295	-0.699432
132.962	-0.0049292	-0.699219
133.262	-0.00492828	-0.699158
133.562	-0.00492706	-0.699249
133.862	-0.00492615	-0.699463
134.162	-0.00492523	-0.699463
134.462	-0.00492462	-0.699127
134.762	-0.0049234	-0.699493
135.062	-0.00492218	-0.699463
135.362	-0.00492126	-0.699371
135.662	-0.00492035	-0.699158
135.962	-0.00491913	-0.699402
136.262	-0.00491821	-0.699127
136.562	-0.0049176	-0.699219
136.862	-0.00491943	-0.699097
137.162	-0.00491791	-0.699493
137.462	-0.00491699	-0.699188
137.762	-0.00491608	-0.699188
138.062	-0.00491516	-0.699463
138.362	-0.00491425	-0.699493
138.662	-0.00491333	-0.699158
138.962	-0.00491241	-0.699097
139.262	-0.0049118	-0.699432
139.562	-0.00491089	-0.699249
139.862	-0.00490997	-0.699158
140.162	-0.00490936	-0.699432
140.462	-0.00490875	-0.699402
140.762	-0.00490784	-0.699341
141.062	-0.00490723	-0.699158
141.362	-0.00490601	-0.699127
141.662	-0.0049054	-0.699188
141.962	-0.00490417	-0.699463
142.262	-0.0049054	-0.69928
142.562	-0.00490448	-0.699219
142.862	-0.00490387	-0.699432
143.162	-0.00490295	-0.699402
143.462	-0.00490234	-0.699158
143.762	-0.00490112	-0.699158
144.062	-0.00490082	-0.699402
144.362	-0.00490021	-0.699463
144.662	-0.0048996	-0.699188
144.962	-0.00489899	-0.699463
145.262	-0.00489838	-0.699341
145.562	-0.00489777	-0.699158
145.862	-0.00489716	-0.699463
146.162	-0.00489655	-0.699249
146.462	-0.00489624	-0.699402
146.762	-0.00489563	-0.699463
147.062	-0.00489502	-0.69928
147.362	-0.00489441	-0.699341
147.662	-0.0048941	-0.699127
147.962	-0.00489349	-0.699158
148.262	-0.00489288	-0.699493
148.562	-0.00489227	-0.699249
148.862	-0.00489258	-0.699432
149.162	-0.00489197	-0.699463
149.462	-0.00489136	-0.699249
149.762	-0.00489014	-0.699249
150.062	-0.00488953	-0.699097
150.362	-0.00488892	-0.699493
150.662	-0.00488983	-0.699188
150.962	-0.00488922	-0.69931
151.262	-0.00488892	-0.699524
151.562	-0.00488892	-0.699127
151.862	-0.004888	-0.699463
152.162	-0.00488861	-0.69928
152.462	-0.004888	-0.699463
152.762	-0.00488525	-0.699463
153.062	-0.00488556	-0.699188
153.362	-0.00488403	-0.699402
153.662	-0.00488403	-0.699158
153.962	-0.00488403	-0.699493
154.262	-0.00488373	-0.699127
154.562	-0.00488342	-0.699249
154.862	-0.00488342	-0.699066
155.162	-0.00488312	-0.69931
155.462	-0.00488281	-0.699158
155.762	-0.00488251	-0.699463
156.062	-0.0048822	-0.699127
156.362	-0.0048819	-0.699371
156.662	-0.0048819	-0.699127
156.962	-0.00488129	-0.699188
157.262	-0.00488098	-0.699066
157.562	-0.00488037	-0.699158
157.862	-0.00488007	-0.69928
158.162	-0.00487976	-0.699219
158.462	-0.00487946	-0.699432
158.762	-0.00487946	-0.699463
159.062	-0.0048761	-0.699432
159.362	-0.0048764	-0.699432
159.662	-0.00487671	-0.699371
159.962	-0.0048764	-0.699249
160.262	-0.0048764	-0.699249
160.562	-0.0048761	-0.699127
160.862	-0.00487579	-0.699219
161.162	-0.00487579	-0.699158
161.462	-0.00487579	-0.699188
161.762	-0.00487579	-0.69928
162.062	-0.00487579	-0.699097
162.362	-0.00487549	-0.699493
162.662	-0.00487549	-0.699371
162.962	-0.00487518	-0.699402
163.262	-0.00487518	-0.699371
163.562	-0.00487579	-0.699493
163.862	-0.00487549	-0.699188
164.162	-0.00487518	-0.699432
164.462	-0.00487396	-0.699127
164.762	-0.00487427	-0.699219
165.062	-0.00487427	-0.699249
165.362	-0.00487427	-0.699402
165.662	-0.00487396	-0.699432
165.962	-0.00487244	-0.699402
166.262	-0.00487244	-0.699188
166.562	-0.00487244	-0.699341
166.862	-0.00487244	-0.699249
167.162	-0.00487244	-0.699127
167.462	-0.00487244	-0.699158
167.762	-0.00487244	-0.699127
168.062	-0.00487244	-0.699219
168.362	-0.00487213	-0.699188
168.662	-0.00487213	-0.699249
168.962	-0.00487183	-0.699463
169.262	-0.00487183	-0.699463
169.562	-0.00487152	-0.699066
169.862	-0.00487152	-0.699432
170.162	-0.00487183	-0.699463
170.462	-0.00487152	-0.699341
170.762	-0.00487183	-0.699371
171.062	-0.00487213	-0.69931
171.362	-0.00487244	-0.699158
171.662	-0.00487183	-0.699158
171.962	-0.00487152	-0.699463
172.262	-0.00487152	-0.699127
172.562	-0.00487122	-0.699249
172.862	-0.00487091	-0.699158
173.162	-0.00487091	-0.699097
173.462	-0.00487091	-0.699127
173.762	-0.00487091	-0.699127
174.062	-0.00487091	-0.699402
174.362	-0.00486969	-0.699463
174.662	-0.00487	-0.699493
174.962	-0.00486969	-0.699463
175.262	-0.0048703	-0.699432
175.562	-0.00487	-0.699432
175.862	-0.00486969	-0.699402
176.162	-0.00486969	-0.699463
176.462	-0.00486969	-0.699402
176.762	-0.00486969	-0.699341
177.062	-0.00486969	-0.699066
177.362	-0.00486969	-0.699249
177.662	-0.00486938	-0.699127
177.962	-0.00486938	-0.699158
178.262	-0.00486938	-0.699249
178.562	-0.00486816	-0.699432
178.862	-0.00486816	-0.699371
179.162	-0.00486786	-0.699219
179.462	-0.00486816	-0.699402
179.762	-0.00486786	-0.699249
180.062	-0.00486786	-0.699432
180.362	-0.00486786	-0.699402
180.662	-0.00486725	-0.69928
180.962	-0.00486725	-0.699249
181.262	-0.00486694	-0.699127
181.562	-0.00486694	-0.699127
181.862	-0.00486694	-0.699066
182.162	-0.00486664	-0.699371
182.462	-0.00486664	-0.699493
182.762	-0.00486664	-0.699432
183.062	-0.00486633	-0.699341
183.362	-0.00486603	-0.699158
183.662	-0.00486603	-0.699158
183.962	-0.00486603	-0.699432
184.262	-0.00486572	-0.699341
184.562	-0.00486572	-0.69931
184.862	-0.00486542	-0.699493
185.162	-0.00486542	-0.699249
185.462	-0.00486542	-0.699341
185.762	-0.00486481	-0.699219
186.062	-0.00486481	-0.699127
186.362	-0.0048645	-0.699219
186.662	-0.0048642	-0.699371
186.962	-0.0048645	-0.699432
187.262	-0.00486206	-0.699158
187.562	-0.00486237	-0.699432
187.862	-0.00486237	-0.69931
188.162	-0.00486237	-0.699432
188.462	-0.00486237	-0.699402
188.762	-0.00486206	-0.699249
189.062	-0.00486206	-0.699188
189.362	-0.00486237	-0.699066
189.662	-0.00486298	-0.699249
189.962	-0.00486267	-0.699188
190.262	-0.00486176	-0.699219
190.562	-0.00486176	-0.699493
190.862	-0.00486206	-0.699127
191.162	-0.00486176	-0.699158
191.462	-0.00486084	-0.699097
191.762	-0.00486084	-0.699158
192.062	-0.00486084	-0.699066
192.362	-0.00486053	-0.699158
192.662	-0.00486053	-0.699341
192.962	-0.00485992	-0.699341
193.262	-0.00486145	-0.699127
193.562	-0.00486115	-0.699432
193.862	-0.00486084	-0.699402
194.162	-0.00486053	-0.699432
194.462	-0.00486053	-0.699158
194.762	-0.00485962	-0.699127
195.062	-0.00485962	-0.699341
195.362	-0.00485931	-0.699402
195.662	-0.00485901	-0.69931
195.962	-0.00485901	-0.69931
196.262	-0.00485901	-0.699341
196.562	-0.0048584	-0.699158
196.862	-0.0048584	-0.699158
197.162	-0.00485809	-0.69928
197.462	-0.00485901	-0.699158
197.762	-0.00485901	-0.699402
198.062	-0.0048584	-0.699402
198.362	-0.0048584	-0.699158
198.662	-0.0048587	-0.699402
198.962	-0.0048584	-0.699432
199.262	-0.0048584	-0.699341
199.562	-0.00485809	-0.699402
199.862	-0.00485779	-0.699127
200.162	-0.00485748	-0.699219
200.462	-0.00485687	-0.699341
200.762	-0.00485626	-0.69931
201.062	-0.00485626	-0.69931
201.362	-0.00485504	-0.699371
201.662	-0.00485535	-0.699188
201.962	-0.00485504	-0.699188
202.262	-0.00485504	-0.69931
202.562	-0.00485504	-0.699402
202.862	-0.00485474	-0.699432
203.162	-0.00485504	-0.699249
203.462	-0.00485504	-0.699188
203.762	-0.00485474	-0.699402
204.062	-0.00485443	-0.699341
204.362	-0.00485443	-0.699158
204.662	-0.00485291	-0.699188
204.962	-0.0048526	-0.699188
205.262	-0.0048526	-0.699432
205.562	-0.00485229	-0.69931
205.862	-0.00485199	-0.699249
206.162	-0.00485168	-0.699463
206.462	-0.00485168	-0.699188
206.762	-0.00485199	-0.699371
207.062	-0.00485168	-0.699402
207.362	-0.00485168	-0.699432
207.662	-0.00485168	-0.699371
207.962	-0.00485168	-0.699249
208.262	-0.00485138	-0.699219
208.562	-0.00485138	-0.699188
208.862	-0.00485107	-0.699158
209.162	-0.00485107	-0.699402
209.462	-0.00485107	-0.699097
209.762	-0.00485077	-0.699402
210.062	-0.00485077	-0.699249
210.362	-0.00485077	-0.699219
210.662	-0.00485077	-0.699158
210.962	-0.00485046	-0.699249
211.262	-0.00485016	-0.699219
211.562	-0.00485016	-0.699127
211.862	-0.00485016	-0.699402
212.162	-0.00484985	-0.699188
212.462	-0.00484985	-0.699402
212.762	-0.00484985	-0.699188
213.062	-0.00484955	-0.699249
213.362	-0.00484985	-0.699097
213.662	-0.00484955	-0.699249
213.962	-0.00485138	-0.699158
214.262	-0.00485077	-0.699188
214.562	-0.00485077	-0.699127
214.862	-0.00485077	-0.699341
215.162	-0.00485016	-0.699158
215.462	-0.00485016	-0.699432
215.762	-0.00484802	-0.699158
216.062	-0.00484833	-0.699463
216.362	-0.00484833	-0.699219
216.662	-0.00484833	-0.699432
216.962	-0.00484833	-0.699432
217.262	-0.00484833	-0.699188
217.562	-0.00484833	-0.699432
217.862	-0.00484802	-0.699097
218.162	-0.00484802	-0.699219
218.462	-0.00484802	-0.699219
218.762	-0.00484802	-0.699432
219.062	-0.00484833	-0.699127
219.362	-0.00484802	-0.699341
219.662	-0.00484833	-0.699463
219.962	-0.00484802	-0.699463
220.262	-0.00484802	-0.699219
220.562	-0.00484802	-0.69928
220.862	-0.00484833	-0.699341
221.162	-0.00484802	-0.699249
221.462	-0.00484772	-0.699219
221.762	-0.00484772	-0.699371
222.062	-0.00484772	-0.699158
222.362	-0.00484741	-0.699402
222.662	-0.00484741	-0.699127
222.962	-0.00484741	-0.699097
223.262	-0.00484772	-0.699402
223.562	-0.00484741	-0.699341
223.862	-0.00484741	-0.699341
224.162	-0.00484711	-0.699127
224.462	-0.00484741	-0.699219
224.762	-0.0048465	-0.699127
225.062	-0.0048465	-0.699402
225.362	-0.0048468	-0.69928
225.662	-0.0048468	-0.699463
225.962	-0.0048468	-0.699402
226.262	-0.0048468	-0.69928
226.562	-0.0048468	-0.699127
226.862	-0.0048468	-0.699493
227.162	-0.0048468	-0.699249
227.462	-0.0048468	-0.699219
227.762	-0.0048468	-0.699158
228.062	-0.00484741	-0.699188
228.362	-0.00484711	-0.699158
228.662	-0.00484711	-0.699188
228.962	-0.00484741	-0.699432
229.262	-0.00484741	-0.69931
229.562	-0.00484741	-0.699341
229.862	-0.00484741	-0.699432
230.162	-0.00484741	-0.699158
230.462	-0.00484741	-0.699219
230.762	-0.00484741	-0.699219
231.062	-0.00484741	-0.69931
231.362	-0.00484741	-0.699432
231.662	-0.00484741	-0.699371
231.962	-0.0048465	-0.699341
232.262	-0.00484619	-0.699188
232.562	-0.0048465	-0.69928
232.862	-0.0048465	-0.699158
233.162	-0.0048465	-0.699432
233.462	-0.0048468	-0.699341
233.762	-0.00484711	-0.699432
234.062	-0.00484344	-0.69931
234.362	-0.00484314	-0.69928
234.662	-0.00484375	-0.69931
234.962	-0.00484406	-0.699219
235.262	-0.00484375	-0.699219
235.562	-0.00484436	-0.699219
235.862	-0.00484436	-0.699188
236.162	-0.00484467	-0.699463
236.462	-0.00484467	-0.699188
236.762	-0.00484467	-0.699432
237.062	-0.00484497	-0.69931
237.362	-0.00484283	-0.699432
237.662	-0.00484314	-0.699402
237.962	-0.00484344	-0.699402
238.262	-0.00484375	-0.699402
238.562	-0.00484436	-0.699463
238.862	-0.00484436	-0.699249
239.162	-0.00484436	-0.699432
239.462	-0.00484467	-0.699188
239.762	-0.00484467	-0.699402
240.062	-0.00484467	-0.699158
240.362	-0.00484497	-0.69928
240.662	-0.00484497	-0.699036
240.962	-0.00484528	-0.699341
241.262	-0.00484497	-0.699097
241.562	-0.00484528	-0.699341
241.862	-0.00484558	-0.699188
242.162	-0.00484589	-0.699402
242.462	-0.00484589	-0.699249
242.762	-0.00484589	-0.699371
243.062	-0.00484589	-0.699402
243.362	-0.00484589	-0.699249
243.662	-0.00484497	-0.699463
243.962	-0.00484589	-0.699219
244.262	-0.00484619	-0.699432
244.562	-0.00484619	-0.699402
244.862	-0.0048468	-0.699524
245.162	-0.0048468	-0.699341
245.462	-0.00484711	-0.699341
245.762	-0.0048468	-0.699432
246.062	-0.0048468	-0.699158
246.362	-0.0048468	-0.69928
246.662	-0.00484772	-0.699371
246.962	-0.00484772	-0.699158
247.262	-0.00484802	-0.699249
247.562	-0.00484802	-0.699249
247.862	-0.00484833	-0.699341
248.162	-0.00484802	-0.699432
248.462	-0.00484833	-0.699402
248.762	-0.00484802	-0.699219
249.062	-0.00484833	-0.699127
249.362	-0.00484833	-0.699341
249.662	-0.00484711	-0.699249
249.962	-0.00484711	-0.699402
250.262	-0.00484741	-0.699402
250.562	-0.00484741	-0.699158
250.862	-0.00484772	-0.699158
251.162	-0.00484802	-0.699341
251.462	-0.00484833	-0.699402
251.762	-0.00484802	-0.699341
252.062	-0.00484802	-0.699158
252.362	-0.00484833	-0.699158
252.662	-0.00484802	-0.69931
252.962	-0.00484802	-0.699432
253.262	-0.00484802	-0.699402
253.562	-0.00484833	-0.699188
253.862	-0.00484863	-0.699188
254.162	-0.00484863	-0.699371
254.462	-0.00484802	-0.699371
254.762	-0.00484833	-0.699371
255.062	-0.00484802	-0.69931
255.362	-0.00484863	-0.699127
255.662	-0.00484863	-0.699066
255.962	-0.00484833	-0.699402
256.262	-0.00484863	-0.699249
256.562	-0.00484863	-0.699371
256.862	-0.00484833	-0.699402
257.162	-0.00484833	-0.699188
257.462	-0.00484833	-0.699371
257.762	-0.00484833	-0.699371
258.062	-0.00484833	-0.699127
258.362	-0.00484863	-0.699463
258.662	-0.00484833	-0.699219
258.962	-0.00484863	-0.699432
259.262	-0.00484833	-0.699188
259.562	-0.00484833	-0.699158
259.862	-0.00484833	-0.699371
260.162	-0.00484833	-0.699188
260.462	-0.00484833	-0.69931
260.762	-0.00484802	-0.69931
261.062	-0.00484772	-0.69928
261.362	-0.00484802	-0.699249
261.662	-0.00484802	-0.699188
261.962	-0.00484772	-0.699463
262.262	-0.00484772	-0.699066
262.562	-0.00484772	-0.699249
262.862	-0.00484741	-0.699097
263.162	-0.00484741	-0.699219
263.462	-0.00484711	-0.699097
263.762	-0.00484741	-0.69928
264.062	-0.00484711	-0.699066
264.362	-0.00484741	-0.69928
264.662	-0.00484772	-0.699127
264.962	-0.00484772	-0.699371
265.262	-0.00484741	-0.69928
265.562	-0.00484772	-0.699463
265.862	-0.00484741	-0.699463
266.162	-0.0048465	-0.699219
266.462	-0.0048468	-0.699371
266.762	-0.0048465	-0.699219
267.062	-0.0048465	-0.699493
267.362	-0.0048465	-0.699249
267.662	-0.00484619	-0.699524
267.962	-0.00484619	-0.699432
268.262	-0.00484467	-0.699463
268.562	-0.00484436	-0.699432
268.862	-0.00484436	-0.699493
269.162	-0.00484436	-0.699432
269.462	-0.00484406	-0.699493
269.762	-0.00484436	-0.699432
270.062	-0.00484406	-0.699127
270.362	-0.00484406	-0.699188
270.662	-0.00484406	-0.699036
270.962	-0.00484192	-0.699158
271.262	-0.00484222	-0.699341
271.562	-0.00484222	-0.699371
271.862	-0.00484192	-0.699463
272.162	-0.00484192	-0.699341
272.462	-0.00484253	-0.699432
272.762	-0.00484222	-0.699097
273.062	-0.00484222	-0.699463
273.362	-0.00484222	-0.699219
273.662	-0.00484161	-0.699432
273.962	-0.00484161	-0.699341
274.262	-0.00484161	-0.699371
274.562	-0.00484131	-0.69928
274.862	-0.0048407	-0.699158
275.162	-0.0048407	-0.699341
275.462	-0.0048407	-0.699158
275.762	-0.00484039	-0.699432
276.062	-0.0048407	-0.699463
276.362	-0.0048407	-0.699432
276.662	-0.00484039	-0.699524
276.962	-0.00484009	-0.699371
277.262	-0.00484009	-0.699127
277.562	-0.00483917	-0.69931
277.862	-0.00483917	-0.699188
278.162	-0.00483917	-0.699402
278.462	-0.00483887	-0.699127
278.762	-0.00483887	-0.699493
279.062	-0.00483887	-0.699158
279.362	-0.00483856	-0.699188
279.662	-0.00483856	-0.699097
279.962	-0.00483826	-0.699371
280.262	-0.00483826	-0.699127
280.562	-0.00483795	-0.699188
280.862	-0.00483795	-0.699249
281.162	-0.00483795	-0.699158
281.462	-0.00483765	-0.699371
281.762	-0.00483734	-0.69931
282.062	-0.00483734	-0.699097
282.362	-0.00483734	-0.699402
282.662	-0.00483704	-0.699127
282.962	-0.00483673	-0.699432
283.262	-0.00483643	-0.699463
283.562	-0.00483643	-0.699249
283.862	-0.00483643	-0.699463
284.162	-0.00483643	-0.699127
284.462	-0.00483612	-0.699493
284.762	-0.00483582	-0.699432
285.062	-0.00483582	-0.699493
285.362	-0.00483551	-0.699371
285.662	-0.00483582	-0.699493
285.962	-0.00483521	-0.699371
286.262	-0.00483459	-0.699158
286.562	-0.00483429	-0.699341
286.862	-0.00483429	-0.699127
287.162	-0.00483429	-0.699402
287.462	-0.00483551	-0.699249
287.762	-0.00483521	-0.69928
288.062	-0.00483521	-0.699402
288.362	-0.0048349	-0.699219
288.662	-0.00483307	-0.699432
288.962	-0.00483246	-0.699249
289.262	-0.00483215	-0.699402
289.562	-0.00483276	-0.69928
289.862	-0.00483337	-0.699493
290.162	-0.00483307	-0.699371
290.462	-0.00483307	-0.699432
290.762	-0.00483307	-0.699249
291.062	-0.00483307	-0.699463
291.362	-0.00483307	-0.699432
291.662	-0.00483307	-0.699402
291.962	-0.00483276	-0.699341
292.262	-0.00483276	-0.699524
292.562	-0.00483246	-0.69931
292.862	-0.00483215	-0.699432
293.162	-0.00483185	-0.699127
293.462	-0.00483185	-0.699463
293.762	-0.00483246	-0.699249
294.062	-0.00483215	-0.699158
294.362	-0.00483185	-0.699097
294.662	-0.00483154	-0.699066
294.962	-0.00483154	-0.699127
295.262	-0.00482971	-0.699158
295.562	-0.00483002	-0.699158
295.862	-0.00483002	-0.699341
296.162	-0.00483002	-0.699127
296.462	-0.00483002	-0.699219
296.762	-0.00483002	-0.699402
297.062	-0.00483002	-0.699066
297.362	-0.00483002	-0.699524
297.662	-0.00483002	-0.699432
297.962	-0.00483002	-0.699341
298.262	-0.00483002	-0.699432
298.562	-0.00482971	-0.699463
298.862	-0.00482971	-0.699097
299.162	-0.00482941	-0.699341
299.462	-0.00482941	-0.699188
299.762	-0.0048288	-0.699127
300.062	-0.0048288	-0.699036
300.362	-0.0048288	-0.699493
300.662	-0.0048288	-0.699432
300.962	-0.00482849	-0.699066
301.262	-0.00482819	-0.699097
301.562	-0.0048288	-0.699402
301.862	-0.0048288	-0.699463
302.162	-0.00482849	-0.69931
302.462	-0.0048291	-0.699127
302.762	-0.0048288	-0.699127
303.062	-0.00482849	-0.699158
303.362	-0.00482819	-0.699127
303.662	-0.00482819	-0.699463
303.962	-0.00482788	-0.699524
304.262	-0.00482758	-0.699524
304.562	-0.00482727	-0.699524
304.862	-0.00482697	-0.699432
305.162	-0.00482605	-0.699371
305.462	-0.00482605	-0.699371
305.762	-0.00482605	-0.699371
306.062	-0.00482635	-0.699066
306.362	-0.00482635	-0.699524
306.662	-0.00482605	-0.699097
306.962	-0.00482666	-0.699463
307.262	-0.00482605	-0.699188
307.562	-0.00482605	-0.699432
307.862	-0.00482422	-0.699341
308.162	-0.00482361	-0.69931
308.462	-0.00482361	-0.69928
308.762	-0.0048233	-0.699371
309.062	-0.004823	-0.699158
309.362	-0.00482269	-0.69928
309.662	-0.00482239	-0.699097
309.962	-0.00482208	-0.699188
310.262	-0.00482208	-0.699127
310.562	-0.00482178	-0.699463
310.862	-0.00482178	-0.699402
311.162	-0.00482147	-0.699432
311.462	-0.00482117	-0.699463
311.762	-0.00482086	-0.69928
312.062	-0.00482056	-0.699402
312.362	-0.00482025	-0.699127
312.662	-0.00482025	-0.699371
312.962	-0.00481995	-0.69928
313.262	-0.00481995	-0.699463
313.562	-0.00481964	-0.699493
313.862	-0.00481934	-0.699188
314.162	-0.00481903	-0.69931
314.462	-0.00481873	-0.699097
314.762	-0.00481781	-0.699249
315.062	-0.0048175	-0.699127
315.362	-0.0048172	-0.699036
315.662	-0.00481689	-0.699249
315.962	-0.00481659	-0.699493
316.262	-0.00481628	-0.699463
316.562	-0.00481598	-0.699554
316.862	-0.00481567	-0.699463
317.162	-0.00481506	-0.699341
317.462	-0.00481476	-0.699402
317.762	-0.00481445	-0.69928
318.062	-0.00481476	-0.699402
318.362	-0.00481354	-0.699097
318.662	-0.00481323	-0.699463
318.962	-0.00481293	-0.699097
319.262	-0.00481262	-0.699097
319.562	-0.00481232	-0.699127
319.862	-0.00481232	-0.699097
320.162	-0.00481201	-0.699097
320.462	-0.00481171	-0.699249
320.762	-0.0048111	-0.699066
321.062	-0.00481079	-0.69931
321.362	-0.00481049	-0.699066
321.662	-0.00481049	-0.699341
321.962	-0.00480988	-0.699036
322.262	-0.00480957	-0.699463
322.562	-0.00480927	-0.699371
322.862	-0.00480927	-0.699524
323.162	-0.00480896	-0.69931
323.462	-0.00480865	-0.699463
323.762	-0.00480865	-0.699066
324.062	-0.00480804	-0.69928
324.362	-0.00480774	-0.699036
324.662	-0.00480743	-0.699036
324.962	-0.00480743	-0.699158
325.262	-0.00480713	-0.699097
325.562	-0.00480621	-0.699341
325.862	-0.00480469	-0.699249
326.162	-0.0048053	-0.699432
326.462	-0.00480438	-0.699219
326.762	-0.00480438	-0.699463
327.062	-0.00480408	-0.699371
327.362	-0.00480377	-0.699463
327.662	-0.00480377	-0.699371
327.962	-0.00480316	-0.699463
328.262	-0.00480072	-0.699371
328.562	-0.00480103	-0.699036
328.862	-0.00480072	-0.699341
329.162	-0.00480072	-0.699097
329.462	-0.00480042	-0.699158
329.762	-0.00480011	-0.699066
330.062	-0.0047995	-0.699127
330.362	-0.0047995	-0.699158
330.662	-0.00479889	-0.699097
330.962	-0.00479889	-0.699097
331.262	-0.00479858	-0.69928
331.562	-0.00479828	-0.699097
331.862	-0.00479797	-0.699097
332.162	-0.00479767	-0.699097
332.462	-0.00479736	-0.699158
332.762	-0.00479736	-0.699127
333.062	-0.00479706	-0.699158
333.362	-0.00479675	-0.699127
333.662	-0.00479645	-0.699066
333.962	-0.00479614	-0.69931
334.262	-0.00479553	-0.699127
334.562	-0.00479523	-0.699432
334.862	-0.00479492	-0.699127
335.162	-0.00479462	-0.699402
335.462	-0.00479401	-0.699188
335.762	-0.00479401	-0.699554
336.062	-0.00479401	-0.699402
336.362	-0.0047937	-0.699432
336.662	-0.0047934	-0.699493
336.962	-0.00479309	-0.699463
337.262	-0.00479279	-0.699249
337.562	-0.00479248	-0.699463
337.862	-0.00479218	-0.699158
338.162	-0.00479187	-0.699371
338.462	-0.00479156	-0.699249
338.762	-0.00479126	-0.69928
339.062	-0.00479095	-0.699432
339.362	-0.00479095	-0.699158
339.662	-0.00479034	-0.699097
339.962	-0.00479004	-0.699127
340.262	-0.00478973	-0.699097
340.562	-0.00479004	-0.69931
340.862	-0.00478973	-0.699158
341.162	-0.00478943	-0.699402
341.462	-0.00478912	-0.699127
341.762	-0.00478882	-0.69931
342.062	-0.00478851	-0.699219
342.362	-0.0047879	-0.699158
342.662	-0.0047876	-0.699402
342.962	-0.0047876	-0.699432
343.262	-0.00478546	-0.699463
343.562	-0.00478516	-0.699402
343.862	-0.00478516	-0.699188
344.162	-0.00478516	-0.699127
344.462	-0.00478485	-0.699432
344.762	-0.00478455	-0.699066
345.062	-0.00478424	-0.699493
345.362	-0.00478394	-0.699371
345.662	-0.00478424	-0.699127
345.962	-0.00478394	-0.699493
346.262	-0.00478363	-0.69928
346.562	-0.00478363	-0.699127
346.862	-0.00478302	-0.699127
347.162	-0.00478271	-0.699402
347.462	-0.00478241	-0.699402
347.762	-0.00478119	-0.699097
348.062	-0.00477997	-0.699493
348.362	-0.00477966	-0.69928
348.662	-0.00477966	-0.699249
348.962	-0.00477936	-0.699371
349.262	-0.00477966	-0.699219
349.562	-0.00477966	-0.699371
349.862	-0.00477936	-0.699493
350.162	-0.00477936	-0.699341
350.462	-0.00477936	-0.699127
350.762	-0.00477905	-0.699188
351.062	-0.00477905	-0.699249
351.362	-0.00477875	-0.699493
351.662	-0.00477875	-0.69931
351.962	-0.00477844	-0.699158
352.262	-0.00477844	-0.699463
352.562	-0.00477814	-0.69931
352.862	-0.00477783	-0.699402
353.162	-0.00477783	-0.699554
353.462	-0.00477753	-0.699402
353.762	-0.00477722	-0.699249
354.062	-0.00477722	-0.699127
354.362	-0.00477692	-0.699432
354.662	-0.00477692	-0.699127
354.962	-0.00477692	-0.699402
355.262	-0.00477661	-0.699158
355.562	-0.00477692	-0.699158
355.862	-0.00477692	-0.69928
356.162	-0.00477661	-0.699188
356.462	-0.00477631	-0.69928
356.762	-0.0047757	-0.69928
357.062	-0.0047757	-0.69928
357.362	-0.00477539	-0.699158
357.662	-0.00477539	-0.699463
357.962	-0.00477539	-0.699158
358.262	-0.00477478	-0.699432
358.562	-0.00477509	-0.699127
358.862	-0.00477509	-0.69931
359.162	-0.00477417	-0.699066
359.462	-0.00477264	-0.699097
359.762	-0.00477264	-0.699097
360.062	-0.00477203	-0.699066
360.362	-0.00477234	-0.699097
360.662	-0.00477203	-0.699097
360.962	-0.00477234	-0.699219
361.262	-0.00477203	-0.699158
361.562	-0.00477203	-0.699249
361.862	-0.00477173	-0.69928
362.162	-0.00477203	-0.699341
362.462	-0.00477203	-0.699158
362.762	-0.00477173	-0.699097
363.062	-0.00477173	-0.699219
363.362	-0.00477173	-0.699127
363.662	-0.00477173	-0.699249
363.962	-0.00477112	-0.699066
364.262	-0.00477112	-0.69931
364.562	-0.00477112	-0.699127
364.862	-0.00477112	-0.699371
365.162	-0.00477081	-0.699127
365.462	-0.00477081	-0.699127
365.762	-0.00477081	-0.69931
366.062	-0.00477081	-0.699097
366.362	-0.00477051	-0.699432
366.662	-0.0047702	-0.699127
366.962	-0.0047702	-0.699371
367.262	-0.0047702	-0.699463
367.562	-0.0047699	-0.699158
367.862	-0.0047702	-0.699493
368.162	-0.0047702	-0.699463
368.462	-0.0047702	-0.699432
368.762	-0.0047702	-0.699249
369.062	-0.0047702	-0.699249
369.362	-0.0047699	-0.699493
369.662	-0.0047699	-0.699219
369.962	-0.0047702	-0.699341
370.262	-0.0047699	-0.699066
370.562	-0.00476959	-0.69931
370.862	-0.00476959	-0.699097
371.162	-0.00476837	-0.699219
371.462	-0.00476807	-0.699493
371.762	-0.00476776	-0.699341
372.062	-0.00476746	-0.699554
372.362	-0.00476746	-0.699371
372.662	-0.00476593	-0.69931
372.962	-0.00476349	-0.699432
373.262	-0.00476379	-0.699524
373.562	-0.00476379	-0.699463
373.862	-0.00476379	-0.699493
374.162	-0.00476379	-0.699463
374.462	-0.00476379	-0.699463
374.762	-0.00476379	-0.699432
375.062	-0.00476379	-0.699341
375.362	-0.00476379	-0.699463
375.662	-0.00476379	-0.699341
375.962	-0.00476379	-0.699493
376.262	-0.0047641	-0.69928
376.562	-0.0047641	-0.699097
376.862	-0.0047641	-0.699158
377.162	-0.00476379	-0.699219
377.462	-0.0047641	-0.699097
377.762	-0.00476349	-0.699249
378.062	-0.00476379	-0.699097
378.362	-0.00476349	-0.69931
378.662	-0.00476379	-0.69928
378.962	-0.00476379	-0.699249
379.262	-0.00476379	-0.699249
379.562	-0.00476379	-0.699188
379.862	-0.00476318	-0.699402
380.162	-0.00476288	-0.699097
380.462	-0.00476318	-0.699432
380.762	-0.00476288	-0.699188
381.062	-0.00476288	-0.699188
381.362	-0.00476288	-0.699402
381.662	-0.00476257	-0.699097
381.962	-0.00476257	-0.699188
382.262	-0.00476257	-0.699066
382.562	-0.00476257	-0.699066
382.862	-0.00476288	-0.699249
383.162	-0.00476257	-0.699066
383.462	-0.00476318	-0.699463
383.762	-0.00476288	-0.699432
384.062	-0.00476318	-0.699463
384.362	-0.00476288	-0.699402
384.662	-0.00476288	-0.699463
384.962	-0.00476318	-0.699249
385.262	-0.00476288	-0.699341
385.562	-0.00476288	-0.699127
385.862	-0.00476318	-0.699432
386.162	-0.00476318	-0.699219
386.462	-0.00476318	-0.699493
386.762	-0.00476288	-0.699371
387.062	-0.00476318	-0.699402
387.362	-0.00476318	-0.699371
387.662	-0.00476318	-0.699463
387.962	-0.00476318	-0.699402
388.262	-0.00476288	-0.699341
388.562	-0.00476318	-0.699493
388.862	-0.00476288	-0.699341
389.162	-0.00476318	-0.699493
389.462	-0.00476288	-0.699371
389.762	-0.00476318	-0.699463
390.062	-0.00476288	-0.69931
390.362	-0.00476318	-0.699066
390.662	-0.00476318	-0.699432
390.962	-0.00476318	-0.699188
391.262	-0.00476349	-0.699402
391.562	-0.00476349	-0.699463
391.862	-0.00476318	-0.699158
392.162	-0.00476318	-0.699341
392.462	-0.00476349	-0.699097
392.762	-0.00476318	-0.699188
393.062	-0.00476318	-0.699432
393.362	-0.00476288	-0.699463
393.662	-0.00476227	-0.699402
393.962	-0.00476196	-0.69931
394.262	-0.00476196	-0.699127
394.562	-0.00476257	-0.699341
394.862	-0.00476257	-0.699463
395.162	-0.00476257	-0.699188
395.462	-0.00476288	-0.699097
395.762	-0.00476288	-0.699097
396.062	-0.00476288	-0.699463
396.362	-0.00476288	-0.699554
396.662	-0.00476318	-0.699127
396.962	-0.00476318	-0.699219
397.262	-0.00476349	-0.699249
397.562	-0.00476318	-0.699524
397.862	-0.00476318	-0.699341
398.162	-0.00476288	-0.699158
398.462	-0.00476288	-0.699066
398.762	-0.00476318	-0.699158
399.062	-0.00476318	-0.699463
399.362	-0.00476318	-0.699493
399.662	-0.00476318	-0.699493
399.962	-0.00476349	-0.69931
400.262	-0.00476318	-0.699097
400.562	-0.00476318	-0.699158
400.862	-0.00476318	-0.699127
401.162	-0.00476318	-0.699127
401.462	-0.00476318	-0.699341
401.762	-0.00476318	-0.699463
402.062	-0.00476257	-0.699432
402.362	-0.00476288	-0.699188
402.662	-0.00476349	-0.699188
402.962	-0.00476288	-0.699493
403.262	-0.00476318	-0.699097
403.562	-0.00476135	-0.699188
403.862	-0.00476166	-0.699188
404.162	-0.00476196	-0.699127
404.462	-0.00476196	-0.699432
404.762	-0.00476227	-0.69931
405.062	-0.00476196	-0.699493
405.362	-0.00476227	-0.699463
405.662	-0.00476105	-0.699493
405.962	-0.00476105	-0.699432
406.262	-0.00476105	-0.699432
406.562	-0.00476166	-0.699463
406.862	-0.00476135	-0.699219
407.162	-0.00476135	-0.699249
407.462	-0.00476196	-0.699188
407.762	-0.00476196	-0.699158
408.062	-0.00476196	-0.699188
408.362	-0.00476196	-0.699127
408.662	-0.00476227	-0.699066
408.962	-0.00476257	-0.699097
409.262	-0.00476257	-0.699158
409.562	-0.00476257	-0.699127
409.862	-0.00476257	-0.699249
410.162	-0.00476288	-0.699371
410.462	-0.00476288	-0.699249
410.762	-0.00476288	-0.699371
411.062	-0.00476318	-0.699158
411.362	-0.00476318	-0.699249
411.662	-0.00476318	-0.699188
411.962	-0.00476318	-0.699463
412.262	-0.00476318	-0.699219
412.562	-0.00476349	-0.699524
412.862	-0.00476379	-0.699219
413.162	-0.00476379	-0.699493
413.462	-0.0047641	-0.699127
413.762	-0.0047641	-0.699463
414.062	-0.0047641	-0.699493
414.362	-0.0047641	-0.699463
414.662	-0.00476471	-0.699493
414.962	-0.0047644	-0.69928
415.262	-0.00476471	-0.69928
415.562	-0.00476471	-0.699097
415.862	-0.00476501	-0.699402
416.162	-0.00476501	-0.699127
416.462	-0.00476501	-0.699463
416.762	-0.00476471	-0.699249
417.062	-0.00476501	-0.699493
417.362	-0.00476501	-0.699158
417.662	-0.00476532	-0.699524
417.962	-0.00476532	-0.69928
418.262	-0.00476532	-0.699402
418.562	-0.00476532	-0.699493
418.862	-0.004765625	-0.699036
419.162	-0.00476624	-0.699371
419.462	-0.00476624	-0.699188
419.762	-0.00476654	-0.699402
420.062	-0.00476654	-0.699188
420.362	-0.004765625	-0.69931
420.662	-0.004765625	-0.699127
420.962	-0.00476593	-0.699341
421.262	-0.00476624	-0.699188
421.562	-0.00476624	-0.699402
421.862	-0.00476624	-0.69931
421.962	-0.00476624	-0.699402