File: Edgar/20240508/20240508/electrodeposition_pulsed_potential_20240508_A/pulses_2000_to_3000.txt
Time (s)	WE(1).Potential (V)	WE(1).Current (A)
2832.17	-0.697418	-0.0218262
2833.05	0.543121	9.46045e-07
2833.95	0.544586	1.25427e-05
2834.81	-0.697021	-0.0157135
2835.69	0.543884	-5.12695e-06
2836.59	0.544281	7.90405e-06
2837.47	0.00178528	0.00709198
2838.33	0.544281	-8.39233e-06
2839.23	0.543671	9.18579e-06
2840.11	0.00175171	0.00484436
2840.97	0.543671	-5.34058e-06
2841.87	0.542969	1.01929e-05
2842.77	0.542572	0.0156097
2843.61	0.543579	-5.18799e-06
2844.51	0.543274	5.49316e-06
2845.41	0.542908	0.00854492
2846.25	0.543091	-2.74658e-06
2847.15	0.544403	-3.8147e-06
2848.05	0.544281	0.000421875
2848.89	0.542847	-3.05176e-08
2849.79	0.543579	2.99072e-06
2850.69	0.544373	0.000151703
2851.53	0.544403	-9.73511e-06
2852.43	0.544128	-4.15039e-06
2853.33	0.543701	7.93457e-05
2854.17	0.544128	-7.08008e-06
2855.07	0.544312	-7.2937e-06
2855.97	0.543274	4.91333e-05
2856.81	0.542938	-4.88281e-07
2857.71	0.54303	1.92261e-06
2858.61	0.543854	3.02429e-05
2859.47	-0.696381	-0.0219116
2860.35	0.542938	1.86157e-06
2861.25	0.54306	2.25525e-05
2862.11	-0.696655	-0.0157471
2862.99	0.544373	-9.58252e-06
2863.89	0.543945	1.09558e-05
2864.77	0.00187378	0.00709076
2865.63	0.544098	-7.17163e-06
2866.53	0.544312	4.39453e-06
2867.41	0.000683594	0.00487305
2868.27	0.544342	-8.78906e-06
2869.17	0.54422	2.47192e-06
2870.07	0.542297	0.0156769
2870.91	0.542908	1.31226e-06
2871.81	0.544434	-1.46484e-06
2872.71	0.543854	0.00872192
2873.55	0.543091	-1.61743e-06
2874.45	0.544464	-1.98364e-06
2875.35	0.542816	0.000451935
2876.19	0.543976	-8.97217e-06
2877.09	0.544037	-1.28174e-06
2877.99	0.542847	0.00016687
2878.83	0.544403	-9.0332e-06
2879.73	0.543365	2.71606e-06
2880.63	0.542999	8.71887e-05
2881.47	0.542786	1.92261e-06
2882.37	0.54303	1.7395e-06
2883.27	0.543762	4.54712e-05
2884.11	0.544373	-9.73511e-06
2885.01	0.543121	-7.62939e-07
2885.91	0.544281	2.8656e-05
2886.77	-0.697052	-0.0219604
2887.65	0.544098	-6.46973e-06
2888.55	0.54425	1.59607e-05
2889.41	-0.697632	-0.015802
2890.29	0.542877	1.89209e-06
2891.19	0.543091	1.72424e-05
2892.07	0.00173645	0.00705353
2892.93	0.543335	-1.92261e-06
2893.83	0.543335	1.03149e-05
2894.71	0.00106201	0.00485687
2895.57	0.544617	-8.60596e-06
2896.47	0.544586	1.52588e-07
2897.37	0.543457	0.0157104
2898.21	0.543304	-3.66211e-06
2899.11	0.544403	-2.47192e-06
2900.01	0.543152	0.00887756
2900.85	0.543121	-1.98364e-06
2901.75	0.543701	3.05176e-07
2902.65	0.544373	0.00045932
2903.49	0.544098	-9.8877e-06
2904.39	0.544281	-4.24194e-06
2905.29	0.544037	0.000162567
2906.13	0.54306	-2.96021e-06
2907.03	0.543518	-2.13623e-07
2907.93	0.544067	7.91016e-05
2908.77	0.543518	-4.54712e-06
2909.67	0.543213	2.04468e-06
2910.57	0.543854	4.96216e-05
2911.41	0.543121	-2.10571e-06
2912.31	0.542969	1.95313e-06
2913.21	0.544495	2.68555e-05
2914.07	-0.696381	-0.0220093
2914.95	0.543152	-6.71387e-07
2915.85	0.542999	2.63062e-05
2916.71	-0.697632	-0.0158661
2917.59	0.543549	-3.87573e-06
2918.49	0.542969	1.77307e-05
2919.37	0.000314331	0.00701843
2920.23	0.544464	-1.10779e-05
2921.13	0.543091	1.3031e-05
2922.01	0.000463867	0.00484222
2922.87	0.542816	-1.09863e-06
2923.77	0.542999	1.15051e-05
2924.67	0.542236	0.0157379
2925.51	0.54425	-7.99561e-06
2926.41	0.543213	8.14819e-06
2927.31	0.543823	0.00898743
2928.15	0.543243	-2.74658e-06
2929.05	0.543335	1.43433e-06
2929.95	0.54361	0.000480896
2930.79	0.544342	-9.94873e-06
2931.69	0.544067	-1.00708e-06
2932.59	0.544525	0.000162598
2933.43	0.543335	-5.06592e-06
2934.33	0.543457	1.09863e-06
2935.23	0.544159	8.11157e-05
2936.07	0.54303	-2.2583e-06
2936.97	0.542938	3.66211e-06
2937.87	0.542908	5.6427e-05
2938.71	0.543488	-6.10352e-06
2939.61	0.544098	-4.85229e-06
2940.51	0.544373	2.59705e-05
2941.37	-0.697876	-0.0220367
2942.25	0.544403	-6.86646e-06
2943.15	0.544373	1.61438e-05
2944.01	-0.698303	-0.015921
2944.89	0.544037	-3.20435e-06
2945.79	0.543182	1.60217e-05
2946.67	0.000601196	0.00697632
2947.53	0.544067	-6.34766e-06
2948.43	0.544281	7.41577e-06
2949.31	0.0014801	0.00481567
2950.17	0.542908	1.19019e-06
2951.07	0.544342	2.44141e-07
2951.97	0.542969	0.0157501
2952.81	0.544403	-8.97217e-06
2953.71	0.543152	7.08008e-06
2954.61	0.544189	0.00910645
2955.45	0.544312	-7.53784e-06
2956.35	0.54303	6.37817e-06
2957.25	0.542755	0.000507507
2958.09	0.543793	-7.99561e-06
2958.99	0.542969	6.16455e-06
2959.89	0.543335	0.000172485
2960.73	0.542999	-9.76562e-07
2961.63	0.544006	-2.83813e-06
2962.53	0.543274	8.81348e-05
2963.37	0.542908	-9.46045e-07
2964.27	0.542877	4.05884e-06
2965.17	0.542847	5.50842e-05
2966.01	0.542816	0
2966.91	0.544128	-5.64575e-06
2967.81	0.544464	2.67334e-05
2968.67	-0.697876	-0.0220795
2969.55	0.544342	-7.23267e-06
2970.45	0.542847	2.56653e-05
2971.31	-0.69754	-0.0160004
2972.19	0.544281	-6.43921e-06
2973.09	0.544342	8.69751e-06
2973.97	0.00111389	0.00693268
2974.83	0.544098	-8.97217e-06
2975.73	0.544403	4.15039e-06
2976.61	0.000515747	0.00479645
2977.47	0.542786	1.92261e-06
2978.37	0.543732	5.49316e-06
2979.27	0.542786	0.0157776
2980.11	0.544098	-6.40869e-06
2981.01	0.544098	2.96021e-06
2981.91	0.543945	0.00921936
2982.75	0.544342	-8.5144e-06
2983.65	0.543457	5.0354e-06
2984.55	0.543762	0.000519714
2985.39	0.543396	-3.41797e-06
2986.29	0.542786	6.46973e-06
2987.19	0.543091	0.000176361
2988.03	0.543213	-1.52588e-06
2988.93	0.543213	9.46045e-07
2989.83	0.543365	8.58765e-05
2990.67	0.544464	-1.00403e-05
2991.57	0.542908	2.62451e-06
2992.47	0.543549	5.33142e-05
2993.31	0.543793	-6.40869e-06
2994.21	0.542877	3.05176e-06
2995.11	0.542816	3.46069e-05
2995.97	-0.697784	-0.0221252
2996.85	0.543701	-4.15039e-06
2997.75	0.543701	2.16064e-05
2998.61	-0.69809	-0.0160553
2999.49	0.544098	-6.16455e-06
3000.39	0.543945	1.22681e-05
3001.27	0.000518799	0.00688416
3002.13	0.543976	-6.16455e-06
3003.03	0.542847	1.4679e-05
3003.91	0.00188293	0.00476379
3004.77	0.543304	-8.8501e-07
3005.67	0.54364	5.92041e-06
3006.57	0.542114	0.0158142
3007.41	0.544098	-8.36182e-06
3008.31	0.542847	9.67407e-06
3009.21	0.542786	0.00932617
3010.05	0.544464	-1.02234e-05
3010.95	0.543457	2.71606e-06
3011.85	0.544464	0.000538635
3012.69	0.544434	-1.17798e-05
3013.59	0.543671	2.13623e-07
3014.49	0.542877	0.000180176
3015.33	0.542908	-7.01904e-07
3016.23	0.542877	3.63159e-06
3017.13	0.544556	8.28247e-05
3017.97	0.54361	-3.93677e-06
3018.87	0.542908	3.93677e-06
3019.77	0.542847	5.6488e-05
3020.61	0.544434	-1.15662e-05
3021.51	0.542938	2.44141e-06
3022.41	0.544525	2.65503e-05
3023.27	-0.696533	-0.0221741
3024.15	0.544037	-7.53784e-06
3025.05	0.542816	2.63062e-05
3025.91	-0.696777	-0.0161316
3026.79	0.543915	-6.68335e-06
3027.69	0.544342	9.09424e-06
3028.57	0.00167542	0.00683075
3029.43	0.54425	-8.17871e-06
3030.33	0.543762	4.97437e-06
3031.21	0.00160522	0.00473724
3032.07	0.544037	-4.76074e-06
3032.97	0.544403	4.24194e-06
3033.87	0.542297	0.0158173
3034.71	0.542908	-9.15527e-08
3035.61	0.544312	3.05176e-07
3036.51	0.543518	0.00943909
3037.35	0.544037	-9.97925e-06
3038.25	0.544373	-2.19727e-06
3039.15	0.544434	0.000562134
3039.99	0.542908	-9.15527e-07
3040.89	0.544373	-2.99072e-06
3041.79	0.543945	0.000173798
3042.63	0.54303	4.88281e-07
3043.53	0.543793	-2.31934e-06
3044.43	0.542847	9.32617e-05
3045.27	0.544006	-6.2561e-06
3046.17	0.542847	3.57056e-06
3047.07	0.544495	4.79126e-05
3047.91	0.543732	-5.0354e-06
3048.81	0.542877	3.20435e-06
3049.71	0.542816	3.98254e-05
3050.57	-0.696442	-0.0221649
3051.45	0.543671	-2.47192e-06
3052.35	0.543304	2.49023e-05
3053.21	-0.696838	-0.0161469
3054.09	0.543732	-4.79126e-06
3054.99	0.544373	1.06506e-05
3055.87	0.000906372	0.00683441
3056.73	0.544403	-9.24683e-06
3057.63	0.542816	1.55334e-05
3058.51	0.001953125	0.00473633
3059.37	0.544403	-8.66699e-06
3060.27	0.542999	1.19019e-05
3061.17	0.542145	0.0158447
3062.01	0.543304	-2.68555e-06
3062.91	0.542694	1.05286e-05
3063.81	0.543365	0.00947266
3064.65	0.544312	-8.20923e-06
3065.55	0.544495	-2.92969e-06
3066.45	0.544006	0.000567322
3067.29	0.542786	6.10352e-07
3068.19	0.542877	4.88281e-06
3069.09	0.543304	0.000183167
3069.93	0.54364	-4.18091e-06
3070.83	0.543549	2.16675e-06
3071.73	0.543732	8.99353e-05
3072.57	0.543121	-5.43213e-06
3073.47	0.543915	-2.71606e-06
3074.37	0.54422	4.90417e-05
3075.21	0.544464	-1.15051e-05
3076.11	0.543091	2.71606e-06
3077.01	0.54303	3.74756e-05
3077.87	-0.69696	-0.0222015
3078.75	0.543976	-4.85229e-06
3079.65	0.543732	2.06909e-05
3080.51	-0.69809	-0.0161987
3081.39	0.544067	-5.67627e-06
3082.29	0.543274	1.64185e-05
3083.17	0.000360107	0.0067865
3084.03	0.542999	9.15527e-07
3084.93	0.543396	1.1322e-05
3085.81	0.00111084	0.004711
3086.67	0.543976	-5.95093e-06
3087.57	0.543243	1.12915e-05
3088.47	0.543213	0.01586
3089.31	0.544464	-9.552e-06
3090.21	0.542786	8.54492e-06
3091.11	0.542511	0.00955811
3091.95	0.543854	-5.82886e-06
3092.85	0.54303	5.95093e-06
3093.75	0.543243	0.000596313
3094.59	0.544556	-1.09253e-05
3095.49	0.544525	-4.69971e-06
3096.39	0.542877	0.000190247
3097.23	0.543518	-6.7749e-06
3098.13	0.543579	2.16675e-06
3099.03	0.544403	8.71277e-05
3099.87	0.543701	-5.24902e-06
3100.77	0.542816	3.90625e-06
3101.67	0.542755	5.79834e-05
3102.51	0.544312	-9.49097e-06
3103.41	0.543915	-2.47192e-06
3104.31	0.544434	2.74963e-05
3105.17	-0.697723	-0.0222382
3106.05	0.542877	2.31934e-06
3106.95	0.54422	1.75781e-05
3107.81	-0.697296	-0.0162964
3108.69	0.543335	-1.77002e-06
3109.59	0.542877	2.05688e-05
3110.47	0.00131836	0.00673676
3111.33	0.542786	2.59399e-06
3112.23	0.544159	7.41577e-06
3113.11	0.000393677	0.00469269
3113.97	0.543915	-3.84521e-06
3114.87	0.543335	7.78198e-06
3115.77	0.54364	0.0158783
3116.61	0.543823	-4.54712e-06
3117.51	0.542999	8.02612e-06
3118.41	0.542419	0.00965576
3119.25	0.544434	-9.552e-06
3120.15	0.544403	-1.77002e-06
3121.05	0.543243	0.000623779
3121.89	0.543121	-3.05176e-08
3122.79	0.543274	3.96729e-06
3123.69	0.543945	0.000188202
3124.53	0.54425	-9.00269e-06
3125.43	0.543274	4.45557e-06
3126.33	0.543793	9.03625e-05
3127.17	0.543121	-8.8501e-07
3128.07	0.544342	-5.49316e-06
3128.97	0.543304	5.45959e-05
3129.81	0.542694	5.79834e-07
3130.71	0.544128	-5.49316e-06
3131.61	0.542908	3.79944e-05
3132.47	-0.697754	-0.0222717
3133.35	0.543518	-2.41089e-06
3134.25	0.543182	2.45361e-05
3135.11	-0.696716	-0.0163513
3135.99	0.544495	-8.14819e-06
3136.89	0.544373	1.02539e-05
3137.77	0.00158081	0.00668213
3138.63	0.543793	-2.44141e-06
3139.53	0.542969	1.37634e-05
3140.41	0.000515747	0.00465881
3141.27	0.542816	1.80054e-06
3142.17	0.544434	8.54492e-07
3143.07	0.543732	0.0158844
3143.91	0.542999	-2.92969e-06
3144.81	0.544128	1.2207e-07
3145.71	0.54248	0.00973816
3146.55	0.54361	-4.02832e-06
3147.45	0.544006	-5.79834e-07
3148.35	0.543182	0.000649719
3149.19	0.543335	-3.96729e-06
3150.09	0.542969	4.85229e-06
3150.99	0.544373	0.000189819
3151.83	0.542999	-1.00708e-06
3152.73	0.543732	3.05176e-07
3153.63	0.543671	9.42993e-05
3154.47	0.542908	-8.8501e-07
3155.37	0.544556	-6.22559e-06
3156.27	0.544037	5.34973e-05
3157.11	0.543793	-3.72314e-06
3158.01	0.544159	-5.5542e-06
3158.91	0.542969	3.89709e-05
3159.77	-0.696503	-0.0223206
3160.65	0.543671	-2.99072e-06
3161.55	0.544403	1.71204e-05
3162.41	-0.697296	-0.0163971
3163.29	0.542847	1.28174e-06
3164.19	0.543488	1.47095e-05
3165.07	0.0019043	0.00662842
3165.93	0.542725	1.46484e-06
3166.83	0.542847	1.53503e-05
3167.71	0.000378418	0.00462097
3168.57	0.542908	9.46045e-07
3169.47	0.543274	8.72803e-06
3170.37	0.542206	0.0159027
3171.21	0.544098	-6.95801e-06
3172.11	0.543945	4.24194e-06
3173.01	0.542542	0.0098175
3173.85	0.544037	-7.47681e-06
3174.75	0.544495	-3.17383e-06
3175.65	0.54361	0.000676575
3176.49	0.544342	-9.73511e-06
3177.39	0.542847	7.96509e-06
3178.29	0.54303	0.000201141
3179.13	0.542816	1.00708e-06
3180.03	0.544434	-5.5542e-06
3180.93	0.544373	9.16443e-05
3181.77	0.542877	-6.71387e-07
3182.67	0.544464	-4.85229e-06
3183.57	0.542908	6.10046e-05
3184.41	0.542877	-1.0376e-06
3185.31	0.544098	-5.0354e-06
3186.21	0.542847	3.94592e-05
3187.07	-0.697601	-0.0223511
3187.95	0.54303	-1.19019e-06
3188.85	0.542816	2.79236e-05
3189.71	-0.696777	-0.0164795
3190.59	0.544006	-5.43213e-06
3191.49	0.543365	1.66016e-05
3192.37	0.000805664	0.00657288
3193.23	0.544342	-7.62939e-06
3194.13	0.544128	7.90405e-06
3195.01	0.000482178	0.00458313
3195.87	0.543854	-3.9978e-06
3196.77	0.542969	1.22681e-05
3197.67	0.54361	0.0158966
3198.51	0.54361	-3.17383e-06
3199.41	0.542999	8.81958e-06
3200.31	0.544006	0.0098877
3201.15	0.543274	-2.89917e-06
3202.05	0.543976	1.19019e-06
3202.95	0.54425	0.000704956
3203.79	0.543396	-3.479e-06
3204.69	0.542847	4.79126e-06
3205.59	0.54303	0.000205994
3206.43	0.544312	-1.04675e-05
3207.33	0.544006	-2.80762e-06
3208.23	0.543854	9.48792e-05
3209.07	0.542938	-8.54492e-07
3209.97	0.543274	2.89917e-06
3210.87	0.542816	6.17371e-05
3211.71	0.544067	-1.00708e-05
3212.61	0.542816	3.54004e-06
3213.51	0.542816	4.07715e-05
3214.37	-0.697632	-0.0223846
3215.25	0.54361	-1.19019e-06
3216.15	0.543549	2.26746e-05
3217.01	-0.697693	-0.0165314
3217.89	0.542999	2.53296e-06
3218.79	0.543213	1.79138e-05
3219.67	0.00120239	0.00651886
3220.53	0.544342	-5.95093e-06
3221.43	0.544434	4.69971e-06
3222.31	0.000369263	0.00454224
3223.17	0.544525	-9.27734e-06
3224.07	0.544373	1.83105e-06
3224.97	0.543579	0.0158966
3225.81	0.543549	-3.17383e-06
3226.71	0.54425	1.2207e-06
3227.61	0.543152	0.0099762
3228.45	0.543579	-3.78418e-06
3229.35	0.544373	-3.02124e-06
3230.25	0.542816	0.000750732
3231.09	0.544373	-9.30786e-06
3231.99	0.542908	6.65283e-06
3232.89	0.544434	0.000200043
3233.73	0.542908	-3.66211e-07
3234.63	0.542969	5.00488e-06
3235.53	0.543457	9.86633e-05
3236.37	0.542847	-8.23975e-07
3237.27	0.543915	-2.62451e-06
3238.17	0.54422	5.23987e-05
3239.01	0.54303	-2.13623e-06
3239.91	0.543793	-3.41797e-06
3240.81	0.543243	3.82996e-05
3241.67	-0.697235	-0.0224304
3242.55	0.544128	-3.38745e-06
3243.45	0.543427	2.5177e-05
3244.31	-0.697845	-0.0166107
3245.19	0.543518	-2.74658e-06
3246.09	0.54361	1.60217e-05
3246.97	0.000979614	0.00645844
3247.83	0.543915	-4.54712e-06
3248.73	0.542877	1.47095e-05
3249.61	0.000680542	0.00450226
3250.47	0.54422	-5.95093e-06
3251.37	0.544403	1.40381e-06
3252.27	0.543457	0.0159058
3253.11	0.542816	1.2207e-06
3254.01	0.54364	3.17383e-06
3254.91	0.542664	0.0100494
3255.75	0.544403	-9.24683e-06
3256.65	0.54303	4.97437e-06
3257.55	0.54422	0.000780334
3258.39	0.542969	-2.04468e-06
3259.29	0.544434	-3.41797e-06
3260.19	0.543976	0.000209686
3261.03	0.543121	-5.49316e-07
3261.93	0.543732	-1.77002e-06
3262.83	0.544403	9.57947e-05
3263.67	0.543152	-2.44141e-06
3264.57	0.542938	3.66211e-06
3265.47	0.544312	5.30701e-05
3266.31	0.543152	-2.28882e-06
3267.21	0.543976	-3.75366e-06
3268.11	0.544525	2.92358e-05
3268.97	-0.696198	-0.022467
3269.85	0.544464	-5.58472e-06
3270.75	0.54425	2.04468e-05
3271.61	-0.697662	-0.0166809
3272.49	0.543213	-7.93457e-07
3273.39	0.543671	1.64795e-05
3274.27	0.00169678	0.00640411
3275.13	0.544464	-6.62231e-06
3276.03	0.544342	5.5542e-06
3276.91	0.00193176	0.00446198
3277.77	0.544434	-9.24683e-06
3278.67	0.54306	1.13525e-05
3279.57	0.543518	0.0159302
3280.41	0.544464	-9.18579e-06
3281.31	0.543396	7.38525e-06
3282.21	0.543335	0.0101227
3283.05	0.54364	-4.82178e-06
3283.95	0.543427	4.15039e-06
3284.85	0.543304	0.000831299
3285.69	0.543213	-2.74658e-06
3286.59	0.544037	-3.23486e-06
3287.49	0.544403	0.000211365
3288.33	0.543335	-3.78418e-06
3289.23	0.544006	-2.01416e-06
3290.13	0.54422	0.00010025
3290.97	0.543945	-6.95801e-06
3291.87	0.544067	-1.83105e-06
3292.77	0.544006	5.53589e-05
3293.61	0.544159	-1.04065e-05
3294.51	0.542847	3.63159e-06
3295.41	0.542969	4.03748e-05
3296.27	-0.69754	-0.0225159
3297.15	0.543396	2.74658e-07
3298.05	0.543274	2.63367e-05
3298.91	-0.69812	-0.0167542
3299.79	0.543884	-4.97437e-06
3300.69	0.543365	1.98059e-05
3301.57	0.00186462	0.0063443
3302.43	0.543793	-3.69263e-06
3303.33	0.544464	5.40161e-06
3304.21	0.000869751	0.00443481
3305.07	0.544189	-7.72095e-06
3305.97	0.542999	1.23901e-05
3306.87	0.542725	0.0159515
3307.71	0.543121	-1.06812e-06
3308.61	0.543701	3.9978e-06
3309.51	0.543671	0.0101868
3310.35	0.542847	9.15527e-08
3311.25	0.543915	5.18799e-07
3312.15	0.544342	0.000870361
3312.99	0.54425	-8.02612e-06
3313.89	0.543732	1.09863e-06
3314.79	0.542999	0.000228058
3315.63	0.544189	-8.66699e-06
3316.53	0.543671	-3.05176e-08
3317.43	0.543335	0.000105743
3318.27	0.544403	-1.02234e-05
3319.17	0.542847	4.88281e-06
3320.07	0.542938	6.38123e-05
3320.91	0.542847	-5.79834e-07
3321.81	0.544128	-4.42505e-06
3322.71	0.543793	3.66516e-05
3323.57	-0.696564	-0.0225677
3324.45	0.544281	-6.31714e-06
3325.35	0.543854	2.19727e-05
3326.21	-0.698212	-0.0168304
3327.09	0.543457	-1.49536e-06
3327.99	0.543945	1.54724e-05
3328.87	0.000384521	0.00629242
3329.73	0.54303	-3.05176e-08
3330.63	0.543671	1.15662e-05
3331.51	0.00171509	0.00438507
3332.37	0.544464	-9.00269e-06
3333.27	0.544464	2.10571e-06
3334.17	0.542297	0.0159424
3335.01	0.54303	-4.57764e-07
3335.91	0.543396	7.50732e-06
3336.81	0.54245	0.0102692
3337.65	0.544403	-8.60596e-06
3338.55	0.544006	2.01416e-06
3339.45	0.543701	0.000926819
3340.29	0.543854	-7.23267e-06
3341.19	0.543274	3.69263e-06
3342.09	0.544067	0.000227417
3342.93	0.544373	-8.48389e-06
3343.83	0.544464	-4.36401e-06
3344.73	0.543579	0.000106323
3345.57	0.544342	-1.01929e-05
3346.47	0.543365	2.96021e-06
3347.37	0.544434	5.49011e-05
3348.21	0.54303	-2.13623e-07
3349.11	0.542847	4.42505e-06
3350.01	0.544037	3.72009e-05
3350.87	-0.696655	-0.0225952
3351.75	0.542816	3.9978e-06
3352.65	0.543152	2.81372e-05
3353.51	-0.696686	-0.0169037
3354.39	0.542999	2.16675e-06
3355.29	0.544098	1.15662e-05
3356.17	0.000308228	0.0062323
3357.03	0.544434	-7.69043e-06
3357.93	0.544373	7.47681e-06
3358.81	0.00093689	0.00435364
3359.67	0.543793	-3.50952e-06
3360.57	0.542938	1.17493e-05
3361.47	0.542389	0.0159515
3362.31	0.544434	-8.23975e-06
3363.21	0.543304	8.69751e-06
3364.11	0.542542	0.0103424
3364.95	0.543091	1.95313e-06
3365.85	0.542908	7.84302e-06
3366.75	0.542786	0.000992432
3367.59	0.544403	-9.24683e-06
3368.49	0.542908	5.34058e-06
3369.39	0.54364	0.000237396
3370.23	0.542816	8.23975e-07
3371.13	0.54425	-3.20435e-06
3372.03	0.544189	0.00010257
3372.87	0.543549	-3.75366e-06
3373.77	0.543823	-1.12915e-06
3374.67	0.544464	5.59692e-05
3375.51	0.542969	-9.76562e-07
3376.41	0.544128	-3.93677e-06
3377.31	0.544434	3.32336e-05
3378.17	-0.697388	-0.0226318
3379.05	0.544006	-3.38745e-06
3379.95	0.542847	3.09143e-05
3380.81	-0.696625	-0.0169617
3381.69	0.543427	-4.27246e-07
3382.59	0.544464	1.10168e-05
3383.47	0.00133972	0.00617523
3384.33	0.544342	-6.74438e-06
3385.23	0.542847	1.67542e-05
3386.11	0.000656128	0.00431671
3386.97	0.544312	-8.91113e-06
3387.87	0.543213	8.75854e-06
3388.77	0.541992	0.0159607
3389.61	0.542877	1.58691e-06
3390.51	0.544006	2.86865e-06
3391.41	0.543793	0.0104065
3392.25	0.544159	-8.54492e-06
3393.15	0.544434	-1.80054e-06
3394.05	0.543579	0.00105042
3394.89	0.543396	-5.40161e-06
3395.79	0.544403	-3.35693e-06
3396.69	0.543732	0.000246552
3397.53	0.542847	-3.05176e-07
3398.43	0.543121	1.43433e-06
3399.33	0.544312	0.000106415
3400.17	0.543274	-3.20435e-06
3401.07	0.544281	-5.95093e-06
3401.97	0.54425	5.88379e-05
3402.81	0.544464	-1.00403e-05
3403.71	0.544434	-7.17163e-06
3404.61	0.544128	3.479e-05
3405.47	-0.69754	-0.0226776
3406.35	0.544525	-8.11768e-06
3407.25	0.543457	2.72217e-05
3408.11	-0.697784	-0.017041
3408.99	0.544373	-7.72095e-06
3409.89	0.542786	2.35901e-05
3410.77	0.00038147	0.00612671
3411.63	0.544434	-8.88062e-06
3412.53	0.54306	1.55945e-05
3413.41	0.000933838	0.00428101
3414.27	0.543854	-4.02832e-06
3415.17	0.543945	6.50024e-06
3416.07	0.542084	0.0159668
3416.91	0.544067	-8.57544e-06
3417.81	0.54422	2.80762e-06
3418.71	0.542633	0.0104767
3419.55	0.54364	-2.38037e-06
3420.45	0.54425	6.10352e-08
3421.35	0.544189	0.00112061
3422.19	0.544098	-7.96509e-06
3423.09	0.543823	3.05176e-07
3423.99	0.544373	0.00024942
3424.83	0.543823	-7.08008e-06
3425.73	0.544098	-1.86157e-06
3426.63	0.543091	0.000118622
3427.47	0.543152	-5.12695e-06
3428.37	0.544342	-4.57764e-06
3429.27	0.544128	5.99976e-05
3430.11	0.543182	-3.26538e-06
3431.01	0.543854	-1.09863e-06
3431.91	0.544128	3.61023e-05
3432.77	-0.697418	-0.022702
3433.65	0.544098	-4.54712e-06
3434.55	0.542938	3.02429e-05
3435.41	-0.69809	-0.0170898
3436.29	0.543762	-2.80762e-06
3437.19	0.544495	1.26648e-05
3438.07	0.00107422	0.00606842
3438.93	0.54361	-3.02124e-06
3439.83	0.544098	8.78906e-06
3440.71	0.00142212	0.00423248
3441.57	0.54306	-2.13623e-07
3442.47	0.542908	1.37939e-05
3443.37	0.543579	0.0159607
3444.21	0.543976	-5.5542e-06
3445.11	0.543182	1.11084e-05
3446.01	0.543427	0.0105408
3446.85	0.542969	-2.0752e-06
3447.75	0.544159	-7.62939e-07
3448.65	0.544189	0.00118835
3449.49	0.543121	-2.44141e-06
3450.39	0.544281	-8.54492e-07
3451.29	0.54422	0.000258636
3452.13	0.54422	-8.88062e-06
3453.03	0.544342	-1.80054e-06
3453.93	0.544037	0.00011673
3454.77	0.543762	-5.52368e-06
3455.67	0.542938	4.5166e-06
3456.57	0.542999	6.85425e-05
3457.41	0.544342	-8.23975e-06
3458.31	0.543427	9.15527e-08
3459.21	0.543762	4.08936e-05
3460.07	-0.696289	-0.0227509
3460.95	0.542999	3.20435e-06
3461.85	0.543549	2.65198e-05
3462.71	-0.698059	-0.0171539
3463.59	0.54306	1.52588e-07
3464.49	0.54422	1.35803e-05
3465.37	0.000839233	0.006015625
3466.23	0.544312	-7.56836e-06
3467.13	0.542999	1.73035e-05
3468.01	0.000866699	0.00420563
3468.87	0.542969	9.15527e-07
3469.77	0.543762	7.32422e-06
3470.67	0.542297	0.015979
3471.51	0.544403	-9.24683e-06
3472.41	0.543152	9.552e-06
3473.31	0.543762	0.0106079
3474.15	0.54425	-7.78198e-06
3475.05	0.544128	9.46045e-07
3475.95	0.543457	0.0012619
3476.79	0.54306	-7.62939e-07
3477.69	0.542969	6.71387e-06
3478.59	0.542969	0.000275299
3479.43	0.54303	-1.19019e-06
3480.33	0.543243	3.41797e-06
3481.23	0.543335	0.000121368
3482.07	0.544495	-1.12915e-05
3482.97	0.544159	-3.41797e-06
3483.87	0.543945	6.3385e-05
3484.71	0.542938	-1.89209e-06
3485.61	0.543243	8.23975e-07
3486.51	0.543091	4.57458e-05
3487.37	-0.697693	-0.0227875
3488.25	0.544434	-5.92041e-06
3489.15	0.544312	2.33154e-05
3490.01	-0.696747	-0.0172363
3490.89	0.543549	-1.86157e-06
3491.79	0.542816	2.37122e-05
3492.67	0.00172729	0.00595764
3493.53	0.544373	-6.68335e-06
3494.43	0.543365	1.297e-05
3495.31	0.000488281	0.00417114
3496.17	0.542938	2.99072e-06
3497.07	0.544342	5.27954e-06
3497.97	0.542145	0.015979
3498.81	0.543762	-5.64575e-06
3499.71	0.543762	3.32642e-06
3500.61	0.543579	0.0106659
3501.45	0.543121	-1.09863e-06
3502.35	0.544556	-1.28174e-06
3503.25	0.542847	0.00135162
3504.09	0.543549	-4.85229e-06
3504.99	0.543335	3.75366e-06
3505.89	0.543335	0.000282196
3506.73	0.543762	-8.81958e-06
3507.63	0.544006	-2.04468e-06
3508.53	0.544525	0.000117126
3509.37	0.544403	-1.00708e-05
3510.27	0.54303	4.02832e-06
3511.17	0.543365	7.00073e-05
3512.01	0.543427	-2.53296e-06
3512.91	0.544159	-6.19507e-06
3513.81	0.543182	4.34875e-05
3514.67	-0.69632	-0.0228363
3515.55	0.543213	1.86157e-06
3516.45	0.544159	2.28271e-05
3517.31	-0.696808	-0.0172913
3518.19	0.54303	8.23975e-07
3519.09	0.544281	1.53198e-05
3519.97	0.00203552	0.00590027
3520.83	0.544434	-6.95801e-06
3521.73	0.54422	8.27026e-06
3522.61	0.000875854	0.00413086
3523.47	0.543854	-5.06592e-06
3524.37	0.542877	1.32141e-05
3525.27	0.542419	0.0159943
3526.11	0.543518	-5.37109e-06
3527.01	0.542877	1.14746e-05
3527.91	0.542603	0.0107391
3528.75	0.542847	1.12915e-06
3529.65	0.544098	1.52588e-06
3530.55	0.544373	0.00142883
3531.39	0.544434	-8.02612e-06
3532.29	0.543732	-1.2207e-06
3533.19	0.544312	0.00028595
3534.03	0.544342	-9.27734e-06
3534.93	0.542938	5.46265e-06
3535.83	0.543976	0.000122894
3536.67	0.543304	1.2207e-07
3537.57	0.543274	1.49536e-06
3538.47	0.54361	7.12891e-05
3539.31	0.543671	-2.86865e-06
3540.21	0.543274	1.70898e-06
3541.11	0.543365	4.41589e-05
3541.97	-0.696136	-0.0228729
3542.85	0.543091	3.57056e-06
3543.75	0.544128	2.46582e-05
3544.61	-0.698242	-0.0173584
3545.49	0.544495	-8.48389e-06
3546.39	0.543274	2.06909e-05
3547.27	0.000442505	0.00585693
3548.13	0.543427	-2.96021e-06
3549.03	0.543091	1.52283e-05
3549.91	0.00205383	0.00408997
3550.77	0.542938	1.0376e-06
3551.67	0.543671	9.30786e-06
3552.57	0.542389	0.0160004
3553.41	0.543762	-4.05884e-06
3554.31	0.543793	3.14331e-06
3555.21	0.542542	0.0107819
3556.05	0.544434	-9.73511e-06
3556.95	0.543488	3.23486e-06
3557.85	0.543762	0.00153107
3558.69	0.542816	1.2207e-06
3559.59	0.542877	5.43213e-06
3560.49	0.544525	0.000296783
3561.33	0.543762	-4.60815e-06
3562.23	0.543854	-1.31226e-06
3563.13	0.54303	0.000132904
3563.97	0.542938	4.88281e-07
3564.87	0.543945	-1.98364e-06
3565.77	0.54422	6.78711e-05
3566.61	0.544495	-9.30786e-06
3567.51	0.542816	3.69263e-06
3568.41	0.54425	3.94287e-05
3569.27	-0.696136	-0.0229095
3570.15	0.543365	1.0376e-06
3571.05	0.543396	3.06091e-05
3571.91	-0.696533	-0.0174286
3572.79	0.544312	-7.69043e-06
3573.69	0.544434	1.43433e-05
3574.57	0.000457764	0.00580231
3575.43	0.544403	-8.45337e-06
3576.33	0.543518	1.14441e-05
3577.21	0.00192261	0.00406067
3578.07	0.542999	4.27246e-07
3578.97	0.543213	1.07727e-05
3579.87	0.542328	0.0159943
3580.71	0.544495	-9.52148e-06
3581.61	0.544189	3.50952e-06
3582.51	0.543762	0.0108337
3583.35	0.544373	-1.11084e-05
3584.25	0.54425	-3.35693e-07
3585.15	0.544434	0.00163177
3585.99	0.543365	-2.7771e-06
3586.89	0.544464	-2.83813e-06
3587.79	0.544128	0.000309326
3588.63	0.543182	-1.37329e-06
3589.53	0.543213	2.41089e-06
3590.43	0.543762	0.000130829
3591.27	0.544342	-9.552e-06
3592.17	0.542847	4.48608e-06
3593.07	0.544159	6.9519e-05
3593.91	0.544434	-1.11389e-05
3594.81	0.542847	3.9978e-06
3595.71	0.544281	4.02222e-05
3596.57	-0.697174	-0.0229431
3597.45	0.543854	-3.9978e-06
3598.35	0.54303	3.28674e-05
3599.21	-0.697083	-0.0174652
3600.09	0.542938	1.7395e-06
3600.99	0.544525	1.29089e-05
3601.87	0.00111084	0.00574982
3602.73	0.542847	1.98364e-06
3603.63	0.542938	1.98975e-05
3604.51	0.000488281	0.00402588
3605.37	0.544067	-8.69751e-06
3606.27	0.544281	6.46973e-06
3607.17	0.542542	0.0159973
3608.01	0.544434	-1.00098e-05
3608.91	0.544037	3.44849e-06
3609.81	0.54245	0.0108917
3610.65	0.544342	-7.87354e-06
3611.55	0.543243	6.7749e-06
3612.45	0.543243	0.00175537
3613.29	0.542908	-5.18799e-07
3614.19	0.54306	5.82886e-06
3615.09	0.54361	0.000322479
3615.93	0.544189	-9.30786e-06
3616.83	0.543304	3.8147e-06
3617.73	0.544342	0.00013092
3618.57	0.544464	-1.00403e-05
3619.47	0.543732	-3.20435e-06
3620.37	0.542938	7.89185e-05
3621.21	0.544464	-1.08337e-05
3622.11	0.54425	-5.06592e-06
3623.01	0.544403	4.02527e-05
3623.87	-0.696564	-0.0229614
3624.75	0.543427	3.35693e-07
3625.65	0.54306	3.28064e-05
3626.51	-0.69812	-0.017514
3627.39	0.542908	3.11279e-06
3628.29	0.542908	2.50549e-05
3629.17	0.000656128	0.00569946
3630.03	0.544189	-6.22559e-06
3630.93	0.542816	1.88904e-05
3631.81	0.000408936	0.00399109
3632.67	0.544189	-6.5918e-06
3633.57	0.543243	1.15051e-05
3634.47	0.543335	0.0159973
3635.31	0.543549	-2.41089e-06
3636.21	0.543091	1.11084e-05
3637.11	0.543762	0.0109253
3637.95	0.544189	-5.40161e-06
3638.85	0.54425	8.54492e-07
3639.75	0.543091	0.00188202
3640.59	0.543121	-3.17383e-06
3641.49	0.544373	-6.10352e-07
3642.39	0.544464	0.000329559
3643.23	0.544373	-1.01929e-05
3644.13	0.543854	4.88281e-07
3645.03	0.543091	0.000141083
3645.87	0.544403	-1.00708e-05
3646.77	0.54364	3.66211e-07
3647.67	0.543518	7.74841e-05
3648.51	0.544373	-9.91821e-06
3649.41	0.543549	-3.05176e-08
3650.31	0.544189	4.2572e-05
3651.17	-0.696289	-0.022995
3652.05	0.54361	-3.26538e-06
3652.95	0.54422	2.59399e-05
3653.81	-0.696625	-0.017569
3654.69	0.54303	-2.74658e-07
3655.59	0.544434	1.44348e-05
3656.47	0.00173035	0.00565247
3657.33	0.542877	2.65503e-06
3658.23	0.542999	1.72119e-05
3659.11	0.00057373	0.0039566
3659.97	0.543823	-3.84521e-06
3660.87	0.544342	5.92041e-06
3661.77	0.543549	0.0159973
3662.61	0.543182	-6.10352e-07
3663.51	0.544067	3.75366e-06
3664.41	0.54303	0.0109802
3665.25	0.544098	-5.21851e-06
3666.15	0.543671	1.09863e-06
3667.05	0.544189	0.00200562
3667.89	0.543793	-3.84521e-06
3668.79	0.543579	1.2207e-07
3669.69	0.544098	0.00034256
3670.53	0.543304	-1.77002e-06
3671.43	0.542847	7.47681e-06
3672.33	0.54303	0.000145752
3673.17	0.544189	-8.17871e-06
3674.07	0.544342	-4.08936e-06
3674.97	0.544403	7.18384e-05
3675.81	0.544403	-1.04675e-05
3676.71	0.542969	3.32642e-06
3677.61	0.54306	4.95605e-05
3678.47	-0.696167	-0.0230255
3679.35	0.544037	-4.60815e-06
3680.25	0.543335	3.15247e-05
3681.11	-0.697113	-0.01763
3681.99	0.544342	-6.74438e-06
3682.89	0.543274	1.85852e-05
3683.77	0.000952148	0.00561127
3684.63	0.544281	-7.35474e-06
3685.53	0.544373	7.72095e-06
3686.41	0.000439453	0.00392578
3687.27	0.54303	6.71387e-07
3688.17	0.542969	1.32141e-05
3689.07	0.542328	0.0160004
3689.91	0.542969	1.40381e-06
3690.81	0.542816	1.16272e-05
3691.71	0.54306	0.0110168
3692.55	0.543243	-1.58691e-06
3693.45	0.543091	7.08008e-06
3694.35	0.544373	0.00216736
3695.19	0.542725	1.86157e-06
3696.09	0.544037	-1.19019e-06
3696.99	0.542999	0.000362427
3697.83	0.54303	1.12915e-06
3698.73	0.543671	7.32422e-07
3699.63	0.543915	0.000140625
3700.47	0.544556	-1.08643e-05
3701.37	0.542938	5.0354e-06
3702.27	0.54303	8.02917e-05
3703.11	0.543243	-9.46045e-07
3704.01	0.544464	-6.22559e-06
3704.91	0.542755	5.31921e-05
3705.77	-0.696198	-0.0230347
3706.65	0.54303	2.62451e-06
3707.55	0.543488	3.0426e-05
3708.41	-0.697021	-0.0176636
3709.29	0.543335	-2.34985e-06
3710.19	0.543884	1.81274e-05
3711.07	0.000753784	0.00556458
3711.93	0.544312	-7.50732e-06
3712.83	0.542877	1.93481e-05
3713.71	0.000958252	0.00388275
3714.57	0.542816	1.58691e-06
3715.47	0.543091	1.36108e-05
3716.37	0.542053	0.0160095
3717.21	0.542816	2.19727e-06
3718.11	0.542999	1.00098e-05
3719.01	0.543396	0.0110748
3719.85	0.54422	-9.12476e-06
3720.75	0.54306	8.54492e-06
3721.65	0.542938	0.00235168
3722.49	0.542816	2.0752e-06
3723.39	0.543274	2.53296e-06
3724.29	0.544373	0.000365662
3725.13	0.542877	1.31226e-06
3726.03	0.543091	4.42505e-06
3726.93	0.543182	0.000151154
3727.77	0.542908	-1.34277e-06
3728.68	0.542938	4.88281e-06
3729.58	0.543976	7.64465e-05
3730.42	0.542847	3.35693e-07
3731.32	0.544067	-4.79126e-06
3732.22	0.542908	5.22461e-05
3733.08	-0.696533	-0.0230713
3733.96	0.542938	1.89209e-06
3734.86	0.543762	3.20129e-05
3735.72	-0.697693	-0.0177216
3736.6	0.544312	-5.88989e-06
3737.5	0.544373	1.75171e-05
3738.38	0.000964355	0.00550751
3739.24	0.54306	-2.13623e-07
3740.14	0.543152	1.83411e-05
3741.02	0.00209045	0.00384369
3741.88	0.544098	-7.96509e-06
3742.78	0.544373	5.21851e-06
3743.68	0.542236	0.0160095
3744.52	0.543121	-1.15967e-06
3745.42	0.544281	3.23486e-06
3746.32	0.542969	0.0111115
3747.16	0.544403	-8.75854e-06
3748.06	0.543793	3.35693e-06
3748.96	0.54425	0.00253723
3749.8	0.543945	-5.82886e-06
3750.7	0.544281	-9.46045e-07
3751.6	0.54422	0.000381775
3752.44	0.543213	-1.61743e-06
3753.34	0.54425	-3.69263e-06
3754.24	0.544495	0.000148315
3755.08	0.543091	-1.83105e-06
3755.98	0.542877	5.58472e-06
3756.88	0.542847	8.78601e-05
3757.72	0.544189	-1.02844e-05
3758.62	0.544464	-5.34058e-06
3759.52	0.544403	4.58984e-05
3760.38	-0.696686	-0.0230988
3761.26	0.544067	-4.08936e-06
3762.16	0.543091	3.50342e-05
3763.02	-0.697815	-0.0177765
3763.9	0.54361	-1.80054e-06
3764.8	0.542847	2.69165e-05
3765.68	0.000390625	0.00546844
3766.54	0.543121	2.74658e-07
3767.44	0.543213	1.79443e-05
3768.32	0.0013092	0.00381653
3769.18	0.542999	2.13623e-07
3770.08	0.543121	1.29395e-05
3770.98	0.542419	0.0160126
3771.82	0.542877	4.57764e-07
3772.72	0.544098	3.479e-06
3773.62	0.543915	0.0111481
3774.46	0.543488	-1.43433e-06
3775.36	0.543488	5.00488e-06
3776.26	0.54422	0.00278687
3777.1	0.542908	9.15527e-08
3778	0.544189	2.13623e-07
3778.9	0.544525	0.00039267
3779.74	0.544373	-9.552e-06
3780.64	0.542877	6.89697e-06
3781.54	0.543915	0.000158051
3782.38	0.543182	-2.13623e-06
3783.28	0.543304	3.41797e-06
3784.18	0.544434	7.70569e-05
3785.02	0.544495	-1.11389e-05
3785.92	0.544067	-2.89917e-06
3786.82	0.543335	4.92249e-05
3787.68	-0.696716	-0.0231201
3788.56	0.544434	-5.58472e-06
3789.46	0.542938	3.78418e-05
3790.32	-0.697296	-0.0178314
3791.2	0.542877	2.89917e-06
3792.1	0.544159	1.74255e-05
3792.98	0.000335693	0.00541931
3793.84	0.543274	8.8501e-07
3794.74	0.544128	1.19934e-05
3795.62	0.00142212	0.00378082
3796.48	0.543365	-3.05176e-08
3797.38	0.543976	6.80542e-06
3798.28	0.542786	0.0160095
3799.12	0.543488	-8.8501e-07
3800.02	0.542816	1.27563e-05
3800.92	0.543213	0.0111847
3801.76	0.544189	-6.16455e-06
3802.66	0.543793	2.92969e-06
3803.56	0.542908	0.00302002
3804.4	0.543793	-4.11987e-06
3805.3	0.542999	7.59888e-06
3806.2	0.543457	0.000413177
3807.04	0.543915	-6.31714e-06
3807.94	0.543976	4.88281e-07
3808.84	0.544403	0.000155853
3809.68	0.544403	-9.8877e-06
3810.58	0.543549	-1.15967e-06
3811.48	0.543854	8.43201e-05
3812.32	0.542908	0
3813.22	0.544342	-5.40161e-06
3814.12	0.543396	5.41077e-05
3814.98	-0.697723	-0.0231415
3815.86	0.543457	1.15967e-06
3816.76	0.544495	2.69775e-05
3817.62	-0.698029	-0.0178772
3818.5	0.544434	-7.75146e-06
3819.4	0.543579	2.38037e-05
3820.28	0.00138245	0.00535919
3821.14	0.54361	-2.22778e-06
3822.04	0.544464	8.5144e-06
3822.92	0.00141907	0.00374512
3823.78	0.544128	-5.82886e-06
3824.68	0.543579	9.06372e-06
3825.58	0.54364	0.0159973
3826.42	0.543213	1.83105e-07
3827.32	0.542908	1.16882e-05
3828.22	0.542725	0.0112335
3829.06	0.544098	-6.10352e-06
3829.96	0.544434	-3.05176e-08
3830.86	0.543396	0.00331329
3831.7	0.543335	-1.67847e-06
3832.6	0.543335	4.88281e-06
3833.5	0.543701	0.000423645
3834.34	0.544586	-8.39233e-06
3835.24	0.542938	6.50024e-06
3836.14	0.544434	0.000161163
3836.98	0.543274	-3.35693e-07
3837.88	0.543152	3.78418e-06
3838.78	0.54425	8.28857e-05
3839.62	0.542877	-2.2583e-06
3840.52	0.543976	-2.80762e-06
3841.42	0.543488	5.3833e-05
3842.28	-0.696259	-0.0231903
3843.16	0.543243	2.59399e-06
3844.06	0.543945	3.15552e-05
3844.92	-0.697174	-0.0179413
3845.8	0.542877	3.05176e-06
3846.7	0.54361	2.12708e-05
3847.58	0.000927734	0.00532166
3848.44	0.544495	-8.97217e-06
3849.34	0.544037	1.17798e-05
3850.22	0.00128174	0.00370575
3851.08	0.542969	3.05176e-06
3851.98	0.543945	8.17871e-06
3852.88	0.542145	0.0160095
3853.72	0.543762	-3.9978e-06
3854.62	0.542908	1.16272e-05
3855.52	0.543854	0.0112549
3856.36	0.544128	-6.34766e-06
3857.26	0.543518	4.05884e-06
3858.16	0.544312	0.00364349
3859	0.542908	1.09863e-06
3859.9	0.54422	2.44141e-07
3860.8	0.542816	0.000447662
3861.64	0.54306	-3.66211e-07
3862.54	0.542786	7.53784e-06
3863.44	0.544403	0.00016452
3864.28	0.543488	-3.96729e-06
3865.18	0.542938	6.2561e-06
3866.08	0.543823	8.82263e-05
3866.92	0.544464	-1.03149e-05
3867.82	0.543396	5.18799e-07
3868.72	0.544373	4.85229e-05
3869.58	-0.69754	-0.0231995
3870.46	0.544403	-6.53076e-06
3871.36	0.54364	3.46069e-05
3872.22	-0.697205	-0.0179901
3873.1	0.543915	-3.08228e-06
3874	0.544495	1.66321e-05
3874.88	0.00208435	0.00526947
3875.74	0.544373	-7.50732e-06
3876.64	0.543793	1.40686e-05
3877.52	0.00162964	0.00367432
3878.38	0.542938	5.49316e-07
3879.28	0.543701	1.04065e-05
3880.18	0.542145	0.0160095
3881.02	0.543457	-4.11987e-06
3881.92	0.543091	1.06812e-05
3882.82	0.543793	0.0113007
3883.66	0.543945	-7.01904e-06
3884.56	0.544006	1.95313e-06
3885.46	0.544281	0.00397461
3886.3	0.543427	-1.46484e-06
3887.2	0.543701	2.19727e-06
3888.1	0.543427	0.000458954
3888.94	0.542999	-1.31226e-06
3889.84	0.542908	6.83594e-06
3890.74	0.543427	0.000176453
3891.58	0.542938	-7.62939e-07
3892.48	0.543243	3.60107e-06
3893.38	0.543182	9.49707e-05
3894.22	0.544098	-8.75854e-06
3895.12	0.543396	2.01416e-06
3896.02	0.543701	5.39856e-05
3896.88	-0.69751	-0.02323
3897.76	0.54364	-6.71387e-07
3898.66	0.544434	3.01208e-05
3899.52	-0.696991	-0.018045
3900.4	0.543762	-4.15039e-06
3901.3	0.544098	2.35901e-05
3902.18	0.00111389	0.00521851
3903.04	0.542908	2.68555e-06
3903.94	0.542999	1.98059e-05
3904.82	0.000665283	0.00364777
3905.68	0.542877	1.00708e-06
3906.58	0.544159	8.8501e-06
3907.48	0.543427	0.0159943
3908.32	0.543304	-1.7395e-06
3909.22	0.542877	1.297e-05
3910.12	0.542969	0.0113281
3910.96	0.543671	-2.13623e-06
3911.86	0.544312	3.35693e-07
3912.76	0.543182	0.00438721
3913.6	0.543457	-3.08228e-06
3914.5	0.543823	3.08228e-06
3915.4	0.544464	0.000468872
3916.24	0.544128	-8.11768e-06
3917.14	0.543365	1.83105e-06
3918.04	0.542877	0.000184448
3918.88	0.543823	-6.92749e-06
3919.78	0.542908	6.71387e-06
3920.68	0.544342	8.77075e-05
3921.52	0.544281	-9.39941e-06
3922.42	0.54425	-4.85229e-06
3923.32	0.544556	4.80652e-05
3924.18	-0.696381	-0.0232574
3925.06	0.544403	-6.37817e-06
3925.96	0.543365	3.78418e-05
3926.82	-0.697388	-0.0180817
3927.7	0.543518	3.05176e-08
3928.6	0.544403	1.80969e-05
3929.48	0.00169983	0.005177
3930.34	0.54361	-2.7771e-06
3931.24	0.543945	1.38245e-05
3932.12	0.000695801	0.00361389
3932.98	0.543793	-6.83594e-06
3933.88	0.542969	1.51367e-05
3934.78	0.54361	0.0160034
3935.62	0.54303	-2.44141e-07
3936.52	0.543182	1.05896e-05
3937.42	0.542389	0.0113739
3938.26	0.544495	-9.12476e-06
3939.16	0.54361	2.71606e-06
3940.06	0.544098	0.00473511
3940.9	0.543274	-3.11279e-06
3941.8	0.543396	3.17383e-06
3942.7	0.542969	0.000495392
3943.54	0.543732	-6.073e-06
3944.44	0.543365	4.36401e-06
3945.34	0.544189	0.000183624
3946.18	0.543457	-6.56128e-06
3947.08	0.543518	2.74658e-07
3947.98	0.544373	8.86841e-05
3948.82	0.543518	-4.94385e-06
3949.72	0.543976	-2.65503e-06
3950.62	0.544312	5.20935e-05
3951.48	-0.69754	-0.0232971
3952.36	0.543549	-2.99072e-06
3953.26	0.543365	3.8269e-05
3954.12	-0.698029	-0.0181488
3955	0.543823	-2.68555e-06
3955.9	0.54361	2.27051e-05
3956.78	0.00118103	0.00514374
3957.64	0.544373	-7.87354e-06
3958.54	0.542969	1.80664e-05
3959.42	0.000506592	0.00358948
3960.28	0.54425	-6.89697e-06
3961.18	0.543915	9.85718e-06
3962.08	0.54361	0.0160095
3962.92	0.543549	-3.14331e-06
3963.82	0.544434	2.74658e-06
3964.72	0.544067	0.0114044
3965.56	0.542755	2.22778e-06
3966.46	0.543945	3.08228e-06
3967.36	0.544189	0.00506897
3968.2	0.544373	-9.552e-06
3969.1	0.543579	4.24194e-06
3970	0.543213	0.000512085
3970.84	0.543701	-3.69263e-06
3971.74	0.544586	-2.96021e-06
3972.64	0.542877	0.00019455
3973.48	0.544373	-8.63647e-06
3974.38	0.542877	5.0354e-06
3975.28	0.543274	9.84192e-05
3976.12	0.543854	-7.20215e-06
3977.02	0.544128	-2.86865e-06
3977.92	0.542786	6.21033e-05
3978.78	-0.697388	-0.0233032
3979.66	0.544373	-5.70679e-06
3980.56	0.542908	4.06494e-05
3981.42	-0.697449	-0.0181854
3982.3	0.544525	-6.74438e-06
3983.2	0.543793	2.23389e-05
3984.08	0.000900269	0.00509949
3984.94	0.544464	-8.20923e-06
3985.84	0.543854	1.4679e-05
3986.72	0.00203552	0.00353912
3987.58	0.543579	-1.95313e-06
3988.48	0.542847	1.42822e-05
3989.38	0.542969	0.0159973
3990.22	0.542877	2.41089e-06
3991.12	0.542847	1.26038e-05
3992.02	0.542389	0.0114471
3992.86	0.544342	-8.75854e-06
3993.76	0.543732	4.91333e-06
3994.66	0.544067	0.0053772
3995.5	0.544556	-8.91113e-06
3996.4	0.544373	-1.49536e-06
3997.3	0.543335	0.000530701
3998.14	0.544373	-9.12476e-06
3999.04	0.543243	3.20435e-06
3999.94	0.542847	0.000200928
4000.78	0.542908	-1.09863e-06
4001.68	0.542908	4.39453e-06
4002.58	0.543396	9.99756e-05
4003.42	0.542877	1.83105e-07
4004.32	0.543243	1.70898e-06
4005.22	0.542816	6.43311e-05
4006.08	-0.696594	-0.0233368
4006.96	0.544342	-4.27246e-06
4007.86	0.544434	3.24402e-05
4008.72	-0.696655	-0.0182556
4009.6	0.542847	3.14331e-06
4010.5	0.543335	2.62146e-05
4011.38	0.00126648	0.00505371
4012.24	0.544403	-8.05664e-06
4013.14	0.543854	1.55945e-05
4014.02	0.00134583	0.00350739
4014.88	0.543701	-4.11987e-06
4015.78	0.543579	8.57544e-06
4016.68	0.542542	0.0160065
4017.52	0.543182	4.88281e-07
4018.42	0.543182	1.10168e-05
4019.32	0.543671	0.0114746
4020.16	0.543213	-9.46045e-07
4021.06	0.543579	5.88989e-06
4021.96	0.544067	0.00557861
4022.8	0.544434	-8.69751e-06
4023.7	0.542908	7.08008e-06
4024.6	0.542847	0.000550537
4025.44	0.543152	-1.46484e-06
4026.34	0.543304	6.62231e-06
4027.24	0.544281	0.000195221
4028.08	0.54361	-3.26538e-06
4028.98	0.543915	-1.52588e-07
4029.88	0.543549	9.91211e-05
4030.72	0.544342	-1.0437e-05
4031.62	0.543732	-1.19019e-06
4032.52	0.543274	6.15845e-05
4033.38	-0.696411	-0.0233337
4034.26	0.543915	-3.08228e-06
4035.16	0.543335	3.91235e-05
4036.02	-0.697083	-0.0182678
4036.9	0.542969	3.17383e-06
4037.8	0.542938	2.93274e-05
4038.68	0.000735474	0.00501099
4039.54	0.544403	-7.50732e-06
4040.44	0.544403	1.08948e-05
4041.32	0.00119629	0.00348206
4042.18	0.544281	-7.93457e-06
4043.08	0.544281	6.46973e-06
4043.98	0.542694	0.0159912
4044.82	0.54361	-4.45557e-06
4045.72	0.543365	8.20923e-06
4046.62	0.542328	0.011496
4047.46	0.542999	-1.83105e-06
4048.36	0.544434	6.40869e-07
4049.26	0.544189	0.00580902
4050.1	0.543091	-1.7395e-06
4051	0.544525	-1.95313e-06
4051.9	0.542847	0.000569763
4052.74	0.542969	-9.15527e-07
4053.64	0.544037	1.83105e-07
4054.54	0.543121	0.000208466
4055.38	0.54361	-3.84521e-06
4056.28	0.544464	-4.66919e-06
4057.18	0.544464	9.82056e-05
4058.02	0.543213	-2.62451e-06
4058.92	0.542908	5.21851e-06
4059.82	0.542847	6.51245e-05
4060.68	-0.696747	-0.0233582
4061.56	0.543671	1.58691e-06
4062.46	0.543091	4.2511e-05
4063.32	-0.697266	-0.0182922
4064.2	0.544495	-6.50024e-06
4065.1	0.544189	2.45361e-05
4065.98	0.000488281	0.00496796
4066.84	0.543762	-4.42505e-06
4067.74	0.542999	2.23999e-05
4068.62	0.00172424	0.00344543
4069.48	0.542908	2.89917e-06
4070.38	0.544189	8.14819e-06
4071.28	0.543488	0.0159851
4072.12	0.542908	9.76562e-07
4073.02	0.54306	1.37329e-05
4073.92	0.542389	0.0115204
4074.76	0.543457	-4.11987e-06
4075.66	0.543579	6.16455e-06
4076.56	0.543335	0.00596985
4077.4	0.544403	-8.78906e-06
4078.3	0.542999	7.69043e-06
4079.2	0.543915	0.00058075
4080.04	0.544556	-1.11389e-05
4080.94	0.543152	5.09644e-06
4081.84	0.543121	0.000212585
4082.68	0.54425	-8.17871e-06
4083.58	0.544189	-4.45557e-06
4084.48	0.543427	0.00010437
4085.32	0.543335	-2.68555e-06
4086.22	0.542969	5.06592e-06
4087.12	0.542999	6.35376e-05
4087.98	-0.69751	-0.0233429
4088.86	0.544434	-5.43213e-06
4089.76	0.542938	4.27856e-05
4090.62	-0.696899	-0.0183289
4091.5	0.543091	9.76562e-07
4092.4	0.542938	3.01819e-05
4093.28	0.000427246	0.00492645
4094.14	0.542847	2.44141e-06
4095.04	0.543182	1.95923e-05
4095.92	0.00192871	0.00341003
4096.78	0.543091	1.52588e-06
4097.68	0.544403	6.34766e-06
4098.58	0.542084	0.0159912
4099.42	0.542938	9.46045e-07
4100.32	0.543274	1.13831e-05
4101.22	0.54306	0.0115326
4102.06	0.542999	1.67847e-06
4102.96	0.544159	2.80762e-06
4103.86	0.543976	0.00615631
4104.7	0.543274	-3.23486e-06
4105.6	0.543152	8.54492e-06
4106.5	0.543793	0.000603333
4107.34	0.544403	-9.765625E-06
4108.24	0.543091	6.46973e-06
4109.14	0.544495	0.000210815
4109.98	0.542847	-6.10352e-08
4110.88	0.543976	-1.95313e-06
4111.78	0.54306	0.000111572
4112.62	0.542999	-7.62939e-07
4113.52	0.544006	-4.11987e-06
4114.42	0.544189	5.8136e-05
4115.28	-0.69751	-0.0233917
4116.16	0.544403	-6.073e-06
4117.06	0.544464	3.35999e-05
4117.92	-0.697662	-0.0183746
4118.8	0.542999	3.479e-06
4119.7	0.543121	2.81067e-05
4120.58	0.000463867	0.00488831
4121.44	0.54425	-5.70679e-06
4122.34	0.542938	2.26135e-05
4123.22	0.001953125	0.00338257
4124.08	0.544342	-7.78198e-06
4124.98	0.542938	1.66626e-05
4125.88	0.542267	0.0159851
4126.72	0.543243	-4.57764e-07
4127.62	0.543152	1.22681e-05
4128.52	0.542969	0.0115662
4129.36	0.543365	-1.12915e-06
4130.26	0.544464	3.35693e-07
4131.16	0.544342	0.00629456
4132	0.544312	-5.43213e-06
4132.14	0.542755	1.0376e-06