File: Edgar/20240508/20240508/electrodeposition_pulsed_potential_20240508_A/pulses_0_to_1000.txt
Time (s)	WE(1).Potential (V)	WE(1).Current (A)
182.985	-0.699249	-0.0028479
183.865	0.544037	-1.4801e-05
184.765	0.543091	-7.26318e-06
185.625	-0.697479	-0.00217072
186.505	0.54303	-9.58252e-06
187.405	0.543854	-8.8501e-06
188.285	0.00152588	0.000203125
189.145	0.543182	-7.62939e-06
190.045	0.543182	-5.27954e-06
190.925	0.000616455	5.2002e-05
191.785	0.543335	-9.0332e-06
192.685	0.544495	-1.26038e-05
193.585	0.542755	8.11157e-05
194.425	0.543182	-1.1261e-05
195.325	0.54361	-5.0354e-06
196.225	0.544098	1.36414e-05
197.065	0.544464	-1.38855e-05
197.965	0.543976	-8.42285e-06
198.865	0.544464	1.77002e-06
199.705	0.542908	-2.65503e-06
200.605	0.543488	-1.01624e-05
201.505	0.544464	-2.0752e-06
202.345	0.542877	-4.36401e-06
203.245	0.542969	-1.58691e-06
204.145	0.542999	3.93677e-06
204.985	0.544464	-1.40686e-05
205.885	0.542755	-1.28174e-06
206.785	0.54364	-2.04468e-06
207.625	0.542938	-3.57056e-06
208.525	0.543121	-4.21143e-06
209.425	0.543671	-4.82178e-06
210.285	-0.698151	-0.00459412
211.165	0.542816	-2.04468e-06
212.065	0.543121	-2.13623e-06
212.925	-0.697327	-0.00329071
213.805	0.54422	-1.01013e-05
214.705	0.543182	-7.93457e-07
215.585	0.00144348	0.00137451
216.445	0.542999	-3.14331e-06
217.345	0.543854	-7.87354e-06
218.225	0.000732422	5.95398e-05
219.085	0.544067	-1.04065e-05
219.985	0.543335	-6.04248e-06
220.885	0.54306	8.15125e-05
221.725	0.542847	-3.11279e-06
222.625	0.544189	-1.0376e-05
223.525	0.542908	2.49634e-05
224.365	0.543091	-4.24194e-06
225.265	0.544098	-1.07422e-05
226.165	0.544067	4.76074e-06
227.005	0.542877	-4.02832e-06
227.905	0.54425	-1.42822e-05
228.805	0.543182	6.7749e-06
229.645	0.543854	-9.82666e-06
230.545	0.542755	-2.56348e-06
231.445	0.543243	8.54492e-07
232.285	0.542847	-4.30298e-06
233.185	0.542755	-5.06592e-06
234.085	0.544495	-8.02612e-06
234.925	0.543427	-8.57544e-06
235.825	0.54422	-1.3855e-05
236.725	0.544464	-9.73511e-06
237.585	-0.698578	-0.00674194
238.465	0.543762	-9.42993e-06
239.365	0.544373	-1.00098e-05
240.225	-0.69873	-0.00394104
241.105	0.542938	-4.69971e-06
242.005	0.542908	-1.00708e-06
242.885	0.00212097	0.00466858
243.745	0.542999	-1.02539e-05
244.645	0.544098	-1.05286e-05
245.525	0.00103149	0.000101837
246.385	0.544312	-1.47705e-05
247.285	0.543213	-3.50952e-06
248.185	0.543274	0.000104889
249.025	0.543671	-1.0376e-05
249.925	0.543213	-4.18091e-06
250.825	0.542908	2.54211e-05
251.665	0.542877	-3.35693e-06
252.565	0.544434	-1.40381e-05
253.465	0.543152	8.78906e-06
254.305	0.544098	-1.23596e-05
255.205	0.543427	-9.91821e-06
256.105	0.544281	-4.27246e-06
256.945	0.544312	-1.40991e-05
257.845	0.542938	-4.21143e-06
258.745	0.54306	1.0376e-06
259.585	0.544067	-1.01013e-05
260.485	0.544281	-1.24207e-05
261.385	0.543762	-5.27954e-06
262.225	0.543091	-5.09644e-06
263.125	0.544037	-1.40991e-05
264.025	0.544006	-8.72803e-06
264.885	-0.698242	-0.00831299
265.765	0.544434	-1.37024e-05
266.665	0.543152	-1.83105e-06
267.525	-0.697754	-0.00448761
268.405	0.543762	-1.0498e-05
269.305	0.543884	-9.49097e-06
270.185	0.00200195	0.00645172
271.045	0.544128	-1.33362e-05
271.945	0.54306	-3.38745e-06
272.825	0.0006073	0.000313232
273.685	0.543732	-8.81958e-06
274.585	0.544434	-1.20544e-05
275.485	0.544067	0.000152069
276.325	0.543335	-8.57544e-06
277.225	0.542908	-3.2959e-06
278.125	0.543732	2.60925e-05
278.965	0.542694	-3.66211e-06
279.865	0.544464	-1.32751e-05
280.765	0.542938	1.12305e-05
281.605	0.543762	-1.1322e-05
282.505	0.544281	-1.2207e-05
283.405	0.544464	-5.27954e-06
284.245	0.54364	-7.59888e-06
285.145	0.54361	-1.07117e-05
286.045	0.543518	-3.54004e-06
286.885	0.543518	-1.01929e-05
287.785	0.543579	-1.12305e-05
288.685	0.542755	-3.05176e-08
289.525	0.543243	-5.76782e-06
290.425	0.54364	-7.65991e-06
291.325	0.544556	-7.50732e-06
292.185	-0.697357	-0.0094635
293.065	0.543427	-9.97925e-06
293.965	0.542908	-6.10352e-07
294.825	-0.698975	-0.00497009
295.705	0.542877	-5.46265e-06
296.605	0.544556	-1.21155e-05
297.485	0.00126038	0.00744598
298.345	0.544495	-1.45569e-05
299.245	0.544586	-1.17798e-05
300.125	0.000708008	0.000733643
300.985	0.54361	-9.00269e-06
301.885	0.543304	-1.05896e-05
302.785	0.544281	0.000207825
303.625	0.544434	-1.54114e-05
304.525	0.544647	-1.46484e-05
305.425	0.542816	3.93982e-05
306.265	0.543701	-1.2207e-05
307.165	0.543671	-4.24194e-06
308.065	0.543182	1.2085e-05
308.905	0.543243	-6.34766e-06
309.805	0.544495	-1.53809e-05
310.705	0.543671	5.37109e-06
311.545	0.544067	-1.24207e-05
312.445	0.543335	-7.38525e-06
313.345	0.543427	2.16675e-06
314.185	0.54303	-5.76782e-06
315.085	0.543671	-9.06372e-06
315.985	0.543854	-6.53076e-06
316.825	0.543243	-5.67627e-06
317.725	0.54422	-1.28174e-05
318.625	0.544342	-1.17493e-05
319.485	-0.697327	-0.0103058
320.365	0.544495	-1.42822e-05
321.265	0.543488	-5.7373e-06
322.125	-0.698975	-0.00540436
323.005	0.544281	-1.45874e-05
323.905	0.543793	-9.06372e-06
324.785	0.000238037	0.00804749
325.645	0.542938	-3.38745e-06
326.545	0.544159	-1.0376e-05
327.425	0.00144653	0.00124023
328.285	0.544312	-1.48315e-05
329.185	0.544464	-1.14746e-05
330.085	0.544342	0.000268616
330.925	0.543091	-7.65991e-06
331.825	0.544312	-1.37634e-05
332.725	0.542786	4.90723e-05
333.565	0.543396	-9.765625E-06
334.465	0.543304	-5.15747e-06
335.365	0.542908	1.89819e-05
336.205	0.544189	-1.23291e-05
337.105	0.543671	-1.11389e-05
338.005	0.544403	-1.83105e-06
338.845	0.542816	-4.45557e-06
339.745	0.544434	-1.38855e-05
340.645	0.543976	-2.31934e-06
341.485	0.543427	-1.08337e-05
342.385	0.542938	-9.0332e-06
343.285	0.544556	-8.48389e-06
344.125	0.54425	-1.4801e-05
345.025	0.543732	-8.88062e-06
345.925	0.54364	-5.18799e-07
346.785	-0.697113	-0.0109528
347.665	0.542847	-4.45557e-06
348.565	0.54306	-1.77002e-06
349.425	-0.69812	-0.00578674
350.305	0.543518	-1.05896e-05
351.205	0.544525	-1.27869e-05
352.085	0.00106201	0.00845642
352.945	0.543762	-7.75146e-06
353.845	0.544312	-1.12305e-05
354.725	0.00103149	0.00173431
355.585	0.544159	-1.0437e-05
356.485	0.54361	-7.84302e-06
357.385	0.543152	0.000330994
358.225	0.543152	-6.89697e-06
359.125	0.543793	-8.54492e-06
360.025	0.543243	5.40161e-05
360.865	0.542877	-3.87573e-06
361.765	0.544373	-1.3855e-05
362.665	0.542908	2.005e-05
363.505	0.54364	-1.14136e-05
364.405	0.544373	-1.50452e-05
365.305	0.542969	1.03149e-05
366.145	0.54303	-5.49316e-06
367.045	0.544281	-1.35803e-05
367.945	0.543427	1.09863e-06
368.785	0.542938	-4.88281e-06
369.685	0.544434	-1.44043e-05
370.585	0.544373	-9.15527e-06
371.425	0.544495	-1.474e-05
372.325	0.542725	-6.37817e-06
373.225	0.543152	1.09863e-06
374.085	-0.697906	-0.011441
374.965	0.543701	-1.171875E-05
375.865	0.543182	-4.18091e-06
376.725	-0.698914	-0.0060968
377.605	0.543976	-1.13831e-05
378.505	0.543488	-6.65283e-06
379.385	0.00188599	0.00871582
380.245	0.542969	-6.53076e-06
381.145	0.54306	-4.88281e-06
382.025	0.00183105	0.00217743
382.885	0.544189	-1.1261e-05
383.785	0.544556	-1.27869e-05
384.685	0.54425	0.000390778
385.525	0.544037	-1.42822e-05
386.425	0.544525	-1.39465e-05
387.325	0.543091	6.51245e-05
388.165	0.542877	-4.94385e-06
389.065	0.543671	-7.20215e-06
389.965	0.543762	1.8158e-05
390.805	0.543518	-9.3689e-06
391.705	0.543243	-4.63867e-06
392.605	0.542908	1.14136e-05
393.445	0.543976	-1.66016e-05
394.345	0.544678	-1.07727e-05
395.245	0.542999	7.78198e-06
396.085	0.54361	-9.42993e-06
396.985	0.544464	-1.40991e-05
397.885	0.543884	-4.11987e-06
398.725	0.543549	-8.17871e-06
399.625	0.542908	-3.2959e-06
400.525	0.542938	-1.2207e-07
401.385	-0.698669	-0.0118652
402.265	0.543976	-1.51672e-05
403.165	0.542877	-2.89917e-06
404.025	-0.698547	-0.00638458
404.905	0.544342	-1.34583e-05
405.805	0.544403	-1.35498e-05
406.685	0.000708008	0.00891113
407.545	0.543182	-6.37817e-06
408.445	0.544403	-1.40686e-05
409.325	0.000939941	0.00255585
410.185	0.54303	-5.31006e-06
411.085	0.542999	-4.08936e-06
411.985	0.543579	0.000458374
412.825	0.542999	-4.88281e-06
413.725	0.543091	-5.46265e-06
414.625	0.54303	7.30896e-05
415.465	0.543488	-8.27026e-06
416.365	0.542847	-4.11987e-06
417.265	0.543549	2.63062e-05
418.105	0.54425	-1.45569e-05
419.005	0.542969	-6.31714e-06
419.905	0.543091	1.27563e-05
420.745	0.544342	-1.62964e-05
421.645	0.542877	-4.91333e-06
422.545	0.542908	6.62231e-06
423.385	0.542908	-9.21631e-06
424.285	0.544281	-1.66931e-05
425.185	0.543854	-1.83105e-06
426.025	0.543213	-8.60596e-06
426.925	0.544342	-1.09558e-05
427.825	0.543701	-4.73022e-06
428.685	-0.698486	-0.0122284
429.565	0.543762	-7.08008e-06
430.465	0.542847	-5.85937e-06
431.325	-0.697601	-0.00664917
432.205	0.543213	-4.11987e-06
433.105	0.542755	2.74658e-07
433.985	0.000341797	0.00904846
434.845	0.543854	-6.2561e-06
435.745	0.544159	-8.94165e-06
436.625	0.00103149	0.00288513
437.485	0.542755	-3.66211e-06
438.385	0.543335	-4.54712e-06
439.285	0.543671	0.000525513
440.125	0.543396	-1.17798e-05
441.025	0.54361	-8.27026e-06
441.925	0.544281	7.27234e-05
442.765	0.543427	-7.38525e-06
443.665	0.543701	-9.27734e-06
444.565	0.544403	2.13623e-05
445.405	0.543732	-7.99561e-06
446.305	0.54306	-3.69263e-06
447.205	0.542969	1.20544e-05
448.045	0.544495	-1.474e-05
448.945	0.542877	-3.87573e-06
449.845	0.543213	3.32642e-06
450.685	0.543091	-4.94385e-06
451.585	0.543335	-5.18799e-06
452.485	0.543365	2.19727e-06
453.325	0.544006	-1.29395e-05
454.225	0.543671	-7.04956e-06
455.125	0.544403	-1.02844e-05
455.985	-0.69809	-0.0125458
456.865	0.54303	-4.97437e-06
457.765	0.542847	-4.27246e-07
458.625	-0.698425	-0.00687927
459.505	0.543396	-6.98853e-06
460.405	0.544067	-8.94165e-06
461.285	0.0016449	0.00917053
462.145	0.544159	-1.42822e-05
463.045	0.544312	-6.74438e-06
463.925	0.000527954	0.0031604
464.785	0.542664	-4.18091e-06
465.685	0.542969	-4.69971e-06
466.585	0.544281	0.000592651
467.425	0.544159	-1.2207e-05
468.325	0.54422	-1.18103e-05
469.225	0.543762	8.48694e-05
470.065	0.543884	-1.15662e-05
470.965	0.544617	-1.49841e-05
471.865	0.542938	3.36609e-05
472.705	0.542725	-3.60107e-06
473.605	0.544342	-1.14746e-05
474.505	0.54422	6.89697e-06
475.345	0.544098	-1.44043e-05
476.245	0.543732	-8.02612e-06
477.145	0.542786	7.08008e-06
477.985	0.544159	-1.2207e-05
478.885	0.544556	-1.48621e-05
479.785	0.542877	3.60107e-06
480.625	0.543518	-7.20215e-06
481.525	0.543488	-8.14819e-06
482.425	0.543335	-2.22778e-06
483.285	-0.698059	-0.0128235
484.165	0.542877	-5.09644e-06
485.065	0.544525	-1.0498e-05
485.925	-0.697754	-0.00710693
486.805	0.543457	-8.54492e-06
487.705	0.542908	-1.40381e-06
488.585	0.00125427	0.00925293
489.445	0.543549	-6.62231e-06
490.345	0.542938	-2.47192e-06
491.225	0.00101624	0.00339569
492.085	0.542908	-3.479e-06
492.985	0.54425	-1.22375e-05
493.885	0.544617	0.000665894
494.725	0.544556	-1.40991e-05
495.625	0.542999	-3.08228e-06
496.525	0.542877	9.74121e-05
497.365	0.542908	-4.15039e-06
498.265	0.542877	-1.86157e-06
499.165	0.542938	3.84521e-05
500.005	0.542847	-3.11279e-06
500.905	0.542938	-4.3335e-06
501.805	0.544281	7.87354e-06
502.645	0.542969	-6.13403e-06
503.545	0.544128	-1.50452e-05
504.445	0.543549	3.44849e-06
505.285	0.544342	-1.43738e-05
506.185	0.543274	-6.04248e-06
507.085	0.542786	4.30298e-06
507.925	0.543762	-7.50732e-06
508.825	0.542999	-4.69971e-06
509.725	0.54422	-8.08716e-06
510.585	-0.698029	-0.0130981
511.465	0.544403	-1.44043e-05
512.365	0.543213	-1.15967e-06
513.225	-0.697296	-0.00731201
514.105	0.544586	-1.60522e-05
515.005	0.544281	-8.97217e-06
515.885	0.00184021	0.00931091
516.745	0.542938	-4.27246e-06
517.645	0.544312	-1.12915e-05
518.525	0.000808716	0.00359161
519.385	0.542816	-3.72314e-06
520.285	0.543854	-9.91821e-06
521.185	0.544189	0.000750122
522.025	0.543945	-1.21155e-05
522.925	0.544342	-1.27258e-05
523.825	0.543945	9.5459e-05
524.665	0.542877	-5.49316e-06
525.565	0.544525	-1.34888e-05
526.465	0.543182	3.79944e-05
527.305	0.544495	-1.51367e-05
528.205	0.542908	-2.31934e-06
529.105	0.543793	1.27563e-05
529.945	0.543152	-5.09644e-06
530.845	0.543976	-1.14136e-05
531.745	0.543304	5.00488e-06
532.585	0.542999	-4.91333e-06
533.485	0.543762	-9.61304e-06
534.385	0.542999	4.21143e-06
535.225	0.543732	-1.06201e-05
536.125	0.544434	-1.42212e-05
537.025	0.542816	2.53296e-06
537.885	-0.697937	-0.0133301
538.765	0.543274	-9.67407e-06
539.665	0.544373	-1.0437e-05
540.525	-0.698059	-0.00749817
541.405	0.542786	-3.84521e-06
542.305	0.544495	-1.02844e-05
543.185	0.0013855	0.00935974
544.045	0.543091	-5.37109e-06
544.945	0.543427	-5.18799e-06
545.825	0.000540161	0.00377411
546.685	0.542847	-4.85229e-06
547.585	0.544159	-1.08643e-05
548.485	0.544281	0.000839539
549.325	0.542877	-3.78418e-06
550.225	0.544617	-1.32141e-05
551.125	0.543121	0.000108978
551.965	0.543518	-8.39233e-06
552.865	0.544373	-1.33972e-05
553.765	0.543152	4.31824e-05
554.605	0.544403	-1.4679e-05
555.505	0.54364	-9.0332e-06
556.405	0.542847	2.20642e-05
557.245	0.543457	-7.47681e-06
558.145	0.542877	-3.14331e-06
559.045	0.542969	1.08948e-05
559.885	0.542877	-5.37109e-06
560.785	0.544403	-1.49231e-05
561.685	0.543549	1.2207e-06
562.525	0.543213	-7.84302e-06
563.425	0.544434	-1.36414e-05
564.325	0.543396	1.25122e-06
565.185	-0.697815	-0.0135712
566.065	0.543823	-8.60596e-06
566.965	0.543152	9.15527e-08
567.825	-0.697235	-0.00769653
568.705	0.542725	-5.12695e-06
569.605	0.544006	-8.66699e-06
570.485	0.000506592	0.00940857
571.345	0.543945	-9.94873e-06
572.245	0.54303	4.57764e-07
573.125	0.00209045	0.00391998
573.985	0.542725	-2.99072e-06
574.885	0.543488	-5.06592e-06
575.785	0.542969	0.00094696
576.625	0.543762	-8.17871e-06
577.525	0.544006	-7.62939e-06
578.425	0.543457	0.000112213
579.265	0.543518	-5.67627e-06
580.165	0.542877	-2.86865e-06
581.065	0.54306	4.44031e-05
581.905	0.543182	-5.5542e-06
582.805	0.54422	-1.19934e-05
583.705	0.542969	2.16675e-05
584.545	0.543304	-7.78198e-06
585.445	0.543152	-3.57056e-06
586.345	0.54361	6.073e-06
587.185	0.542999	-4.45557e-06
588.085	0.543365	-7.90405e-06
588.985	0.543518	7.01904e-07
589.825	0.543884	-1.21155e-05
590.725	0.544342	-1.38855e-05
591.625	0.543762	-6.71387e-07
592.485	-0.697845	-0.0137665
593.365	0.542755	-4.69971e-06
594.265	0.543396	-3.32642e-06
595.125	-0.697845	-0.00786438
596.005	0.543091	-6.13403e-06
596.905	0.54364	-5.5542e-06
597.785	0.000323486	0.00944519
598.645	0.542816	-4.63867e-06
599.545	0.54306	-1.61743e-06
600.425	0.00163879	0.00406616
601.285	0.544495	-1.51978e-05
602.185	0.544342	-1.04065e-05
603.085	0.542908	0.00106415
603.925	0.54306	-6.16455e-06
604.825	0.542877	-3.479e-06
605.725	0.54422	0.000116852
606.565	0.542725	-3.479e-06
607.465	0.544342	-1.26343e-05
608.365	0.543457	4.45557e-05
609.205	0.543549	-1.18103e-05
610.105	0.542908	-1.98364e-06
611.005	0.544464	1.29089e-05
611.845	0.543854	-1.14136e-05
612.745	0.544464	-1.32141e-05
613.645	0.543121	1.14136e-05
614.485	0.543823	-1.23596e-05
615.385	0.543915	-9.58252e-06
616.285	0.544495	-3.54004e-06
617.125	0.543274	-6.71387e-06
618.025	0.542847	-3.63159e-06
618.925	0.544342	-7.47681e-06
619.785	-0.697601	-0.0139954
620.665	0.54303	-5.06592e-06
621.565	0.544556	-9.24683e-06
622.425	-0.697845	-0.00803833
623.305	0.544006	-1.15051e-05
624.205	0.543701	-2.71606e-06
625.085	0.000302124	0.00947571
625.945	0.54306	-4.76074e-06
626.845	0.543182	-3.96729e-07
627.725	0.00162964	0.00418335
628.585	0.544617	-1.37024e-05
629.485	0.544464	-1.25732e-05
630.385	0.54364	0.00118469
631.225	0.542755	-3.66211e-06
632.125	0.54361	-7.1106e-06
633.025	0.542908	0.000131653
633.865	0.544556	-1.3092e-05
634.765	0.544495	-1.34583e-05
635.665	0.543732	4.36707e-05
636.505	0.542725	-2.56348e-06
637.405	0.542847	-2.59399e-06
638.305	0.544189	1.58691e-05
639.145	0.542847	-3.02124e-06
640.045	0.544159	-1.03455e-05
640.945	0.543121	1.3855e-05
641.785	0.544495	-1.474e-05
642.685	0.542725	-1.2207e-06
643.585	0.544495	-2.92969e-06
644.425	0.542877	-4.66919e-06
645.325	0.544434	-1.474e-05
646.225	0.542999	5.61523e-06
647.085	-0.697296	-0.0141754
647.965	0.542847	-3.57056e-06
648.865	0.543488	-2.13623e-07
649.725	-0.698792	-0.008203125
650.605	0.543732	-8.75854e-06
651.505	0.544189	-8.81958e-06
652.385	0.000509644	0.00950317
653.245	0.542938	-3.93677e-06
654.145	0.543945	-7.50732e-06
655.025	0.000793457	0.00430328
655.885	0.54303	-5.27954e-06
656.785	0.542877	-3.05176e-07
657.685	0.543396	0.00133331
658.525	0.543427	-1.07422e-05
659.425	0.542969	-3.96729e-06
660.325	0.544373	0.000129456
661.165	0.543518	-9.09424e-06
662.065	0.542908	-8.23975e-07
662.965	0.542938	4.84314e-05
663.805	0.543823	-9.30786e-06
664.705	0.544464	-1.18103e-05
665.605	0.544342	1.67542e-05
666.445	0.543152	-6.5918e-06
667.345	0.542847	-3.60107e-06
668.245	0.543823	8.05664e-06
669.085	0.543732	-1.05286e-05
669.985	0.543182	-5.34058e-06
670.885	0.544006	2.99072e-06
671.725	0.542877	-4.11987e-06
672.625	0.54303	-4.02832e-06
673.525	0.542938	4.11987e-06
674.385	-0.697144	-0.0143616
675.265	0.543091	-6.71387e-06
676.165	0.542816	1.12915e-06
677.025	-0.698212	-0.00835571
677.905	0.542999	-4.54712e-06
678.805	0.544464	-1.07727e-05
679.685	0.00181885	0.00950928
680.545	0.544128	-1.09558e-05
681.445	0.543304	-2.96021e-06
682.325	0.00197754	0.00439819
683.185	0.54303	-4.79126e-06
684.085	0.543182	-3.84521e-06
684.985	0.544495	0.00149902
685.825	0.544006	-1.17798e-05
686.725	0.543915	-9.85718e-06
687.625	0.543396	0.000143982
688.465	0.544189	-1.33362e-05
689.365	0.542816	-3.05176e-06
690.265	0.544373	4.68445e-05
691.105	0.543182	-8.11768e-06
692.005	0.544281	-1.04675e-05
692.905	0.543304	2.76184e-05
693.745	0.544434	-1.45874e-05
694.645	0.542816	-2.38037e-06
695.545	0.544189	7.17163e-06
696.385	0.544525	-1.46484e-05
697.285	0.543671	-9.8877e-06
698.185	0.542969	8.69751e-06
699.025	0.544373	-1.43433e-05
699.925	0.543274	-5.82886e-06
700.825	0.54303	4.97437e-06
701.685	-0.698425	-0.0145294
702.565	0.542938	-3.75366e-06
703.465	0.544464	-6.95801e-06
704.325	-0.698792	-0.00851135
705.205	0.543213	-5.82886e-06
706.105	0.544312	-7.59888e-06
706.985	0.00168152	0.00951843
707.845	0.544098	-1.00098e-05
708.745	0.542755	-1.67847e-06
709.625	0.00135193	0.00448975
710.485	0.542877	-3.72314e-06
711.385	0.544556	-1.0376e-05
712.285	0.543091	0.00171234
713.125	0.544098	-1.25732e-05
714.025	0.543549	-6.43921e-06
714.925	0.543671	0.000148651
715.765	0.544189	-1.28784e-05
716.665	0.542847	-1.58691e-06
717.565	0.544281	4.72717e-05
718.405	0.544373	-1.13831e-05
719.305	0.543213	-4.63867e-06
720.205	0.543396	2.66113e-05
721.045	0.542908	-5.95093e-06
721.945	0.544586	-1.28174e-05
722.845	0.544434	5.88989e-06
723.685	0.543732	-1.14136e-05
724.585	0.544128	-8.23975e-06
725.485	0.542999	7.78198e-06
726.325	0.543427	-1.00098e-05
727.225	0.543457	-7.04956e-06
728.125	0.544067	-2.22778e-06
728.985	-0.698059	-0.0147003
729.865	0.544556	-1.36414e-05
730.765	0.542816	2.7771e-06
731.625	-0.697723	-0.00867004
732.505	0.543884	-1.06201e-05
733.405	0.544281	-8.27026e-06
734.285	0.00138855	0.00954285
735.145	0.54425	-1.22375e-05
736.045	0.54306	-1.64795e-06
736.925	0.00209656	0.00457397
737.785	0.544434	-1.3916e-05
738.685	0.543121	-1.92261e-06
739.585	0.543976	0.00194855
740.425	0.544128	-1.02844e-05
741.325	0.543732	-9.3689e-06
742.225	0.542938	0.000161041
743.065	0.543457	-1.08032e-05
743.965	0.544067	-1.10474e-05
744.865	0.543274	5.88379e-05
745.705	0.544098	-1.20239e-05
746.605	0.54306	-3.9978e-06
747.505	0.54364	2.68555e-05
748.345	0.544159	-1.27563e-05
749.245	0.543304	-5.18799e-06
750.145	0.544067	7.87354e-06
750.985	0.543457	-8.14819e-06
751.885	0.544525	-1.46179e-05
752.785	0.544373	2.74658e-07
753.625	0.542877	-3.08228e-06
754.525	0.542877	-2.50244e-06
755.425	0.544464	-4.21143e-06
756.285	-0.696899	-0.0148651
757.165	0.543457	-7.65991e-06
758.065	0.542847	4.02832e-06
758.925	-0.698792	-0.00880432
759.805	0.544525	-1.21155e-05
760.705	0.54361	-2.53296e-06
761.585	0.00180664	0.00953979
762.445	0.543457	-6.10352e-06
763.345	0.542816	1.2207e-07
764.225	0.00201721	0.00464539
765.085	0.543396	-5.49316e-06
765.985	0.543091	-9.15527e-07
766.885	0.544586	0.00225342
767.725	0.542999	-4.24194e-06
768.625	0.543457	-4.94385e-06
769.525	0.543091	0.000165161
770.365	0.544434	-1.31836e-05
771.265	0.544434	-1.28784e-05
772.165	0.543915	5.78308e-05
773.005	0.544434	-1.48926e-05
773.905	0.543823	-9.46045e-06
774.805	0.543182	2.93579e-05
775.645	0.544006	-1.21765e-05
776.545	0.544586	-1.20544e-05
777.445	0.544464	7.35474e-06
778.285	0.542847	-3.69263e-06
779.185	0.542908	-2.86865e-06
780.085	0.543732	4.63867e-06
780.925	0.544403	-1.34888e-05
781.825	0.542969	-4.18091e-06
782.725	0.544159	-2.96021e-06
783.585	-0.696899	-0.0150177
784.465	0.542877	-2.38037e-06
785.365	0.542786	3.63159e-06
786.225	-0.696991	-0.00895386
787.105	0.542725	-2.80762e-06
788.005	0.544159	-6.68335e-06
788.885	0.00103149	0.00953979
789.745	0.544464	-1.4801e-05
790.645	0.543457	-4.24194e-06
791.525	0.00090332	0.00472382
792.385	0.543243	-7.20215e-06
793.285	0.542847	-1.52588e-07
794.185	0.544128	0.00264404
795.025	0.54364	-7.69043e-06
795.925	0.543579	-6.50024e-06
796.825	0.542938	0.000175568
797.665	0.543884	-1.05591e-05
798.565	0.543152	-2.22778e-06
799.465	0.542969	6.56738e-05
800.305	0.542786	-2.22778e-06
801.205	0.543182	-4.18091e-06
802.106	0.542786	3.26233e-05
802.946	0.543335	-9.09424e-06
803.846	0.542877	-2.34985e-06
804.746	0.542938	1.80969e-05
805.586	0.542877	-4.63867e-06
806.486	0.542786	-2.71606e-06
807.386	0.543304	9.82666e-06
808.226	0.543854	-1.03149e-05
809.126	0.544342	-1.40076e-05
810.026	0.543396	2.31934e-06
810.886	-0.696991	-0.0151764
811.766	0.544006	-1.07422e-05
812.666	0.54361	-1.5564e-06
813.526	-0.697205	-0.00908508
814.406	0.544037	-1.0437e-05
815.306	0.542938	2.0752e-06
816.186	0.00163879	0.0095459
817.046	0.542908	-4.3335e-06
817.946	0.543427	-3.60107e-06
818.826	0.0012146	0.0047879
819.686	0.54303	-4.15039e-06
820.586	0.542816	3.66211e-07
821.486	0.543335	0.00316193
822.326	0.543091	-5.64575e-06
823.226	0.544373	-1.15051e-05
824.126	0.543335	0.000179779
824.966	0.54364	-9.39941e-06
825.866	0.54422	-1.00403e-05
826.766	0.543976	6.05469e-05
827.606	0.542908	-4.15039e-06
828.506	0.544434	-1.27869e-05
829.406	0.54306	3.27454e-05
830.246	0.543915	-8.3313e-06
831.146	0.544098	-1.07117e-05
832.046	0.544525	7.84302e-06
832.886	0.54303	-6.5918e-06
833.786	0.543335	-4.57764e-06
834.686	0.544312	1.43433e-06
835.526	0.542847	-3.05176e-06
836.426	0.544006	-9.3689e-06
837.326	0.543732	-3.66211e-07
838.186	-0.698334	-0.0153076
839.066	0.544342	-1.43738e-05
839.966	0.542877	4.27246e-06
840.826	-0.697571	-0.00921021
841.706	0.543579	-7.65991e-06
842.606	0.544098	-5.27954e-06
843.486	0.000558472	0.00953979
844.346	0.543884	-1.09558e-05
845.246	0.542816	2.13623e-06
846.126	0.000558472	0.00485748
846.986	0.543976	-1.16272e-05
847.886	0.542969	-7.01904e-07
848.786	0.544586	0.00384552
849.626	0.544342	-1.44653e-05
850.526	0.544067	-8.5144e-06
851.426	0.54303	0.00018985
852.266	0.544006	-1.12305e-05
853.166	0.543518	-6.073e-06
854.066	0.544495	6.03027e-05
854.906	0.543427	-7.01904e-06
855.806	0.543976	-9.46045e-06
856.706	0.54425	2.6825e-05
857.546	0.544006	-8.42285e-06
858.446	0.542908	-2.2583e-06
859.346	0.543854	1.41907e-05
860.186	0.544067	-1.35803e-05
861.086	0.544159	-1.27563e-05
861.986	0.543823	5.00488e-06
862.826	0.544403	-1.50452e-05
863.726	0.544006	-9.0332e-06
864.626	0.542786	6.10352e-06
865.486	-0.698212	-0.0154541
866.366	0.542694	-1.67847e-06
867.266	0.544342	-4.82178e-06
868.126	-0.697845	-0.00934448
869.006	0.542999	-3.69263e-06
869.906	0.543457	-3.44849e-06
870.786	0.000961304	0.00953064
871.646	0.54425	-1.15967e-05
872.546	0.543365	-1.28174e-06
873.426	0.00184631	0.0049057
874.286	0.543243	-5.70679e-06
875.186	0.542725	-3.05176e-08
876.086	0.544312	0.00477692
876.926	0.544128	-9.00269e-06
877.826	0.542816	-7.32422e-07
878.726	0.54364	0.000192413
879.566	0.542969	-3.05176e-06
880.466	0.543304	-4.48608e-06
881.366	0.543121	7.08313e-05
882.206	0.543732	-9.24683e-06
883.106	0.543579	-7.59888e-06
884.006	0.544098	2.83508e-05
884.846	0.542908	-3.60107e-06
885.746	0.542938	-3.23486e-06
886.646	0.542847	2.06299e-05
887.486	0.544495	-1.29395e-05
888.386	0.543396	-5.58472e-06
889.286	0.543488	8.3313e-06
890.126	0.543854	-1.01318e-05
891.026	0.543121	-4.60815e-06
891.926	0.542908	8.3313e-06
892.786	-0.696899	-0.0156067
893.666	0.543121	-4.73022e-06
894.566	0.54364	-1.52588e-07
895.426	-0.698608	-0.00948181
896.306	0.543121	-4.18091e-06
897.206	0.543976	-4.88281e-06
898.086	0.00112915	0.00954285
898.946	0.542999	-5.61523e-06
899.846	0.544647	-8.91113e-06
900.726	0.00118713	0.00495728
901.586	0.544373	-1.15051e-05
902.486	0.544342	-8.94165e-06
903.386	0.542999	0.00585297
904.226	0.544342	-1.31531e-05
905.126	0.542908	-2.44141e-07
906.026	0.543701	0.000200195
906.866	0.542847	-3.87573e-06
907.766	0.543884	-6.19507e-06
908.666	0.543854	7.18689e-05
909.506	0.542816	-3.75366e-06
910.406	0.544464	-1.16882e-05
911.306	0.542877	3.90015e-05
912.146	0.544037	-1.25122e-05
913.046	0.54306	-3.72314e-06
913.946	0.544189	1.35498e-05
914.786	0.542847	-3.75366e-06
915.686	0.543182	-4.57764e-06
916.586	0.542816	1.42822e-05
917.426	0.543243	-7.35474e-06
918.326	0.543182	-4.45557e-06
919.226	0.543488	4.11987e-06
920.086	-0.69809	-0.0157471
920.966	0.54364	-9.06372e-06
921.866	0.542908	3.9978e-06
922.726	-0.697327	-0.00962219
923.606	0.543427	-7.44629e-06
924.506	0.542969	2.0752e-06
925.386	0.00177002	0.00952148
926.246	0.542969	-3.26538e-06
927.146	0.543976	-5.24902e-06
928.026	0.00189819	0.00500427
928.886	0.544373	-1.37939e-05
929.786	0.544128	-8.05664e-06
930.686	0.542969	0.0067923
931.526	0.544403	-1.30615e-05
932.426	0.543671	-6.2561e-06
933.326	0.54303	0.00021225
934.166	0.542908	-5.92041e-06
935.066	0.544067	-8.45337e-06
935.966	0.544067	6.99768e-05
936.806	0.542786	-3.90625e-06
937.706	0.543335	-7.75146e-06
938.606	0.542786	3.93066e-05
939.446	0.542908	-3.2959e-06
940.346	0.542908	-1.77002e-06
941.246	0.542999	2.0874e-05
942.086	0.54303	-4.5166e-06
942.986	0.543335	-5.34058e-06
943.886	0.544403	3.90625e-06
944.726	0.544373	-1.3092e-05
945.626	0.543701	-8.75854e-06
946.526	0.542938	8.20923e-06
947.386	-0.698029	-0.0158722
948.266	0.544189	-1.32751e-05
949.166	0.544434	-4.63867e-06
950.026	-0.698517	-0.009729
950.906	0.544037	-9.52148e-06
951.806	0.544464	-7.04956e-06
952.686	0.00129395	0.00952148
953.546	0.542938	-2.83813e-06
954.446	0.544403	-8.05664e-06
955.326	0.00156555	0.00505188
956.186	0.544128	-1.1322e-05
957.086	0.544464	-9.94873e-06
957.986	0.542908	0.00753479
958.826	0.544159	-9.91821e-06
959.726	0.543274	-3.35693e-07
960.626	0.543152	0.000218506
961.466	0.542908	-4.97437e-06
962.366	0.544342	-9.85718e-06
963.266	0.542969	8.08105e-05
964.106	0.544403	-1.32141e-05
965.006	0.544403	-1.14136e-05
965.906	0.543762	3.479e-05
966.746	0.544006	-8.02612e-06
967.646	0.542877	-3.05176e-08
968.546	0.543884	1.37634e-05
969.386	0.544403	-1.38855e-05
970.286	0.544037	-8.5144e-06
971.186	0.542999	1.33057e-05
972.026	0.542908	-5.06592e-06
972.926	0.544067	-9.73511e-06
973.826	0.543335	4.69971e-06
974.686	-0.696716	-0.0160217
975.566	0.542725	-1.52588e-06
976.466	0.544098	-4.05884e-06
977.326	-0.698151	-0.00986633
978.206	0.544312	-1.27563e-05
979.106	0.543671	3.35693e-07
979.986	0.0019043	0.00950317
980.846	0.544586	-1.35193e-05
981.746	0.543701	-3.93677e-06
982.626	0.000604248	0.00510315
983.486	0.54425	-1.28174e-05
984.386	0.54306	-8.8501e-07
985.286	0.542938	0.00810852
986.126	0.543121	-4.97437e-06
987.026	0.544464	-9.97925e-06
987.926	0.542725	0.00023111
988.766	0.544464	-1.27563e-05
989.666	0.543121	-1.43433e-06
990.566	0.543274	7.9834e-05
991.406	0.543304	-7.04956e-06
992.306	0.544403	-1.07727e-05
993.206	0.542786	4.21753e-05
994.046	0.544128	-1.2085e-05
994.946	0.542908	-1.61743e-06
995.846	0.544403	1.34277e-05
996.686	0.543854	-8.91113e-06
997.586	0.543457	-5.31006e-06
998.486	0.543579	1.0498e-05
999.326	0.542969	-5.34058e-06
1000.23	0.544342	-1.15662e-05
1001.13	0.543091	6.74438e-06
1001.99	-0.696777	-0.0161469
1002.87	0.542786	-2.71606e-06
1003.77	0.542694	6.37817e-06
1004.63	-0.698547	-0.00999146
1005.51	0.543701	-8.60596e-06
1006.41	0.544464	-5.76782e-06
1007.29	0.00141602	0.00949707
1008.15	0.543915	-1.35803e-05
1009.05	0.544525	-8.57544e-06
1009.93	0.00166016	0.00513428
1010.79	0.544312	-1.23596e-05
1011.69	0.542847	2.0752e-06
1012.59	0.543976	0.00855103
1013.43	0.54425	-1.28174e-05
1014.33	0.543732	-6.98853e-06
1015.23	0.542908	0.000241638
1016.07	0.542816	-2.50244e-06
1016.97	0.54361	-5.0354e-06
1017.87	0.542969	8.7738e-05
1018.71	0.542847	-3.35693e-06
1019.61	0.543854	-8.5144e-06
1020.51	0.542786	4.3335e-05
1021.35	0.543152	-4.60815e-06
1022.25	0.544373	-1.17798e-05
1023.15	0.543121	2.33765e-05
1023.99	0.542908	-4.57764e-06
1024.89	0.543243	-3.69263e-06
1025.79	0.544495	5.18799e-06
1026.63	0.543427	-1.10168e-05
1027.53	0.543518	-4.54712e-06
1028.43	0.544556	-1.34277e-06
1029.29	-0.69696	-0.0162628
1030.17	0.544281	-1.08032e-05
1031.07	0.544098	-1.83105e-06
1031.93	-0.697662	-0.0101135
1032.81	0.543182	-4.36401e-06
1033.71	0.544464	-7.53784e-06
1034.59	0.00140381	0.0094696
1035.45	0.542877	-3.05176e-06
1036.35	0.544159	-5.88989e-06
1037.23	0.00212097	0.00516968
1038.09	0.544464	-1.42822e-05
1038.99	0.542969	1.31226e-06
1039.89	0.543213	0.0089447
1040.73	0.542694	-2.22778e-06
1041.63	0.543427	-1.00708e-06
1042.53	0.543152	0.00024762
1043.37	0.543457	-7.20215e-06
1044.27	0.54425	-1.03455e-05
1045.17	0.544464	8.19702e-05
1046.01	0.542908	-2.2583e-06
1046.91	0.543671	-7.14111e-06
1047.81	0.542999	4.17175e-05
1048.65	0.54364	-6.62231e-06
1049.55	0.543488	-5.88989e-06
1050.45	0.543335	2.2644e-05
1051.29	0.544342	-1.22986e-05
1052.19	0.544067	-8.54492e-06
1053.09	0.544159	7.17163e-06
1053.93	0.544434	-1.41907e-05
1054.83	0.542847	-1.34277e-06
1055.73	0.544312	-3.05176e-08
1056.59	-0.69812	-0.016391
1057.47	0.544006	-9.552e-06
1058.37	0.543121	5.46265e-06
1059.23	-0.698669	-0.0102051
1060.11	0.542969	-2.83813e-06
1061.01	0.542816	4.42505e-06
1061.89	0.000210571	0.0094635
1062.75	0.543304	-5.70679e-06
1063.65	0.542816	2.96021e-06
1064.53	0.00203857	0.00520203
1065.39	0.544434	-1.2207e-05
1066.29	0.543518	-2.44141e-06
1067.19	0.542999	0.0092926
1068.03	0.54361	-7.87354e-06
1068.93	0.543701	-5.12695e-06
1069.83	0.542908	0.000258301
1070.67	0.542938	-3.50952e-06
1071.57	0.544189	-8.5144e-06
1072.47	0.543335	9.09424e-05
1073.31	0.542877	-3.38745e-06
1074.21	0.54422	-1.00403e-05
1075.11	0.543823	3.96729e-05
1075.95	0.544373	-1.37024e-05
1076.85	0.543701	-5.52368e-06
1077.75	0.544403	1.71204e-05
1078.59	0.542999	-5.15747e-06
1079.49	0.543488	-5.52368e-06
1080.39	0.54425	8.5144e-06
1081.23	0.544373	-1.41907e-05
1082.13	0.54306	-2.41089e-06
1083.03	0.543396	8.30078e-06
1083.89	-0.696747	-0.01651
1084.77	0.54306	-3.72314e-06
1085.67	0.542877	8.3313e-06
1086.53	-0.697083	-0.0103271
1087.41	0.542969	-2.71606e-06
1088.31	0.544189	-2.0752e-06
1089.19	0.00133362	0.00944824
1090.05	0.543976	-1.0376e-05
1090.95	0.544403	-6.83594e-06
1091.83	0.00166626	0.00523407
1092.69	0.543762	-6.62231e-06
1093.59	0.543854	-5.85937e-06
1094.49	0.542908	0.00958862
1095.33	0.543335	-6.65283e-06
1096.23	0.54303	2.44141e-07
1097.13	0.542969	0.000268829
1097.97	0.542877	-3.41797e-06
1098.87	0.542816	4.27246e-07
1099.77	0.542999	9.47876e-05
1100.61	0.542847	-2.92969e-06
1101.51	0.543732	-3.9978e-06
1102.41	0.544281	3.76587e-05
1103.25	0.543793	-7.44629e-06
1104.15	0.543121	-2.74658e-06
1105.05	0.544403	1.62048e-05
1105.89	0.544281	-1.27869e-05
1106.79	0.542877	-9.76562e-07
1107.69	0.544342	7.14111e-06
1108.53	0.543732	-8.05664e-06
1109.43	0.544434	-1.14136e-05
1110.33	0.542816	1.12305e-05
1111.19	-0.69809	-0.016629
1112.07	0.54361	-7.41577e-06
1112.97	0.54425	-2.19727e-06
1113.83	-0.698334	-0.0104309
1114.71	0.543579	-8.27026e-06
1115.61	0.54303	2.16675e-06
1116.49	0.000375366	0.00942078
1117.35	0.544159	-8.14819e-06
1118.25	0.544189	-6.74438e-06
1119.13	0.00194092	0.00526367
1119.99	0.544403	-1.28479e-05
1120.89	0.544586	-8.27026e-06
1121.79	0.54303	0.00988464
1122.63	0.543854	-9.85718e-06
1123.53	0.544403	-8.54492e-06
1124.43	0.544098	0.000273407
1125.27	0.542908	-3.05176e-06
1126.17	0.544403	-1.08032e-05
1127.07	0.544403	8.7677e-05
1127.91	0.54425	-1.24207e-05
1128.81	0.543488	-4.88281e-06
1129.71	0.544464	3.80554e-05
1130.55	0.543945	-1.09558e-05
1131.45	0.543213	-3.2959e-06
1132.35	0.544434	1.73645e-05
1133.19	0.543793	-8.30078e-06
1134.09	0.54306	-3.50952e-06
1134.99	0.544006	9.12476e-06
1135.83	0.542816	-2.19727e-06
1136.73	0.544159	-1.24817e-05
1137.63	0.544434	2.38037e-06
1138.49	-0.697296	-0.0167572
1139.37	0.543427	-6.46973e-06
1140.27	0.544403	-2.19727e-06
1141.13	-0.69696	-0.010553
1142.01	0.544189	-1.03149e-05
1142.91	0.542938	5.49316e-06
1143.79	0.00043335	0.00939331
1144.65	0.544495	-1.27869e-05
1145.55	0.544342	-6.28662e-06
1146.43	0.000473022	0.00529907
1147.29	0.542969	-2.47192e-06
1148.19	0.544434	-7.96509e-06
1149.09	0.542786	0.010144
1149.93	0.542786	-2.74658e-06
1150.83	0.543335	-1.98364e-06
1151.73	0.542847	0.000289886
1152.57	0.544281	-1.2146e-05
1153.47	0.544495	-1.03455e-05
1154.37	0.542877	0.000101501
1155.21	0.542969	-3.32642e-06
1156.11	0.544281	-1.00708e-05
1157.01	0.544403	4.01917e-05
1157.85	0.544525	-1.39771e-05
1158.75	0.54364	-3.35693e-06
1159.65	0.542877	2.8717e-05
1160.49	0.542999	-5.06592e-06
1161.39	0.544159	-7.90405e-06
1162.29	0.54422	9.00269e-06
1163.13	0.54422	-1.26038e-05
1164.03	0.544617	-1.07117e-05
1164.93	0.544189	2.86865e-06
1165.79	-0.697113	-0.016864
1166.67	0.544281	-1.06201e-05
1167.57	0.544281	-4.57764e-07
1168.43	-0.697662	-0.0106628
1169.31	0.543793	-7.35474e-06
1170.21	0.544312	-2.28882e-06
1171.09	0.000631714	0.00939331
1171.95	0.544006	-9.61304e-06
1172.85	0.54361	5.79834e-07
1173.73	0.0011322	0.00532135
1174.59	0.544037	-9.67407e-06
1175.49	0.543488	-1.80054e-06
1176.39	0.543243	0.0103729
1177.23	0.544098	-1.04065e-05
1178.13	0.544189	-6.7749e-06
1179.03	0.543091	0.000299011
1179.87	0.543945	-1.07727e-05
1180.77	0.543732	-6.50024e-06
1181.67	0.543671	0.000100616
1182.51	0.54306	-1.34277e-06
1183.41	0.543518	-6.28662e-06
1184.31	0.543396	4.57153e-05
1185.15	0.544159	-1.31226e-05
1186.05	0.544189	-9.61304e-06
1186.95	0.543243	2.85034e-05
1187.79	0.543884	-1.19934e-05
1188.69	0.543976	-1.00098e-05
1189.59	0.544373	6.71387e-06
1190.43	0.543701	-4.91333e-06
1191.33	0.543091	-3.84521e-06
1192.23	0.544556	2.89917e-06
1193.09	-0.697876	-0.0169678
1193.97	0.54306	-1.92261e-06
1194.87	0.542664	8.88062e-06
1195.73	-0.698456	-0.0107574
1196.61	0.544403	-1.19629e-05
1197.51	0.544556	-2.16675e-06
1198.39	0.000424194	0.00936584
1199.25	0.544464	-1.27258e-05
1200.15	0.544159	-4.36401e-06
1201.03	0.00116882	0.0053421
1201.89	0.544281	-1.26648e-05
1202.79	0.543152	7.32422e-07
1203.69	0.54303	0.0105988
1204.53	0.543182	-4.63867e-06
1205.43	0.542816	1.7395e-06
1206.33	0.543091	0.000309998
1207.17	0.544586	-1.44043e-05
1208.07	0.544464	-9.15527e-06
1208.97	0.542816	0.000106873
1209.81	0.543182	-5.79834e-06
1210.71	0.544006	-7.53784e-06
1211.61	0.543488	4.7699e-05
1212.45	0.544067	-1.20544e-05
1213.35	0.543884	-9.27734e-06
1214.25	0.543121	2.82593e-05
1215.09	0.542938	-3.93677e-06
1215.99	0.544006	-7.44629e-06
1216.89	0.54425	1.08032e-05
1217.73	0.542908	-8.54492e-07
1218.63	0.542877	-1.34277e-06
1219.53	0.543732	5.88989e-06
1220.39	-0.698151	-0.0170776
1221.27	0.542786	-1.40381e-06
1222.17	0.542969	7.99561e-06
1223.03	-0.698669	-0.0108551
1223.91	0.544434	-1.14441e-05
1224.81	0.544342	-2.83813e-06
1225.69	0.00167847	0.00933838
1226.55	0.543121	-3.96729e-06
1227.45	0.543427	2.44141e-07
1228.33	0.00205383	0.00535706
1229.19	0.543976	-1.05896e-05
1230.09	0.543152	1.06812e-06
1230.99	0.543701	0.0108185
1231.83	0.543152	-4.5166e-06
1232.73	0.543854	-6.19507e-06
1233.63	0.543762	0.000316071
1234.47	0.544434	-1.25122e-05
1235.37	0.543549	-2.44141e-06
1236.27	0.542847	0.000108429
1237.11	0.544556	-1.3855e-05
1238.01	0.54306	-1.2207e-06
1238.91	0.542938	5.3894e-05
1239.75	0.54303	-2.96021e-06
1240.65	0.544281	-9.61304e-06
1241.55	0.543884	2.43225e-05
1242.39	0.542755	-2.53296e-06
1243.29	0.543243	-4.39453e-06
1244.19	0.543549	1.58081e-05
1245.03	0.544098	-1.0498e-05
1245.93	0.542847	-1.70898e-06
1246.83	0.543457	9.46045e-06
1247.69	-0.698029	-0.0171906
1248.57	0.543335	-4.39453e-06
1249.47	0.543335	6.19507e-06
1250.33	-0.697571	-0.010968
1251.21	0.542877	-2.92969e-06
1252.11	0.543121	3.14331e-06
1252.99	0.00157166	0.00932617
1253.85	0.542816	-1.95313e-06
1254.75	0.543549	-1.0376e-06
1255.63	0.0014679	0.00538513
1256.49	0.543152	-3.54004e-06
1257.39	0.544067	-6.80542e-06
1258.29	0.543365	0.0110168
1259.13	0.544037	-9.33838e-06
1260.03	0.542755	8.8501e-07
1260.93	0.543152	0.000331512
1261.77	0.543762	-6.68335e-06
1262.67	0.542999	-7.32422e-07
1263.57	0.543915	0.000105591
1264.41	0.544434	-1.38245e-05
1265.31	0.544159	-8.5144e-06
1266.21	0.543915	4.80042e-05
1267.05	0.543152	-5.64575e-06
1267.95	0.542938	3.35693e-07
1268.85	0.544281	2.27966e-05
1269.69	0.543274	-5.24902e-06
1270.59	0.543121	-1.5564e-06
1271.49	0.543243	1.98059e-05
1272.33	0.542786	-1.83105e-06
1273.23	0.543823	-6.56128e-06
1274.13	0.543335	1.14136e-05
1274.99	-0.697388	-0.0173035
1275.87	0.543884	-9.18579e-06
1276.77	0.544342	3.35693e-07
1277.63	-0.697998	-0.0110474
1278.51	0.542938	-4.11987e-06
1279.41	0.544495	-2.68555e-06
1280.29	0.000708008	0.00928955
1281.15	0.544098	-8.60596e-06
1282.05	0.543793	-2.7771e-06
1282.93	0.00204773	0.00539642
1283.79	0.544464	-1.33057e-05
1284.69	0.544281	-4.79126e-06
1285.59	0.543793	0.0111938
1286.43	0.542847	-2.16675e-06
1287.33	0.543671	-1.5564e-06
1288.23	0.544464	0.000334625
1289.07	0.54364	-9.18579e-06
1289.97	0.542786	1.52588e-06
1290.87	0.543335	0.000115082
1291.71	0.542786	-2.71606e-06
1292.61	0.542725	2.41089e-06
1293.51	0.544189	4.86145e-05
1294.35	0.544159	-1.09558e-05
1295.25	0.543945	-8.94165e-06
1296.15	0.543365	2.97241e-05
1296.99	0.544006	-7.99561e-06
1297.89	0.543274	-4.27246e-06
1298.79	0.542816	2.12097e-05
1299.63	0.543823	-1.19324e-05
1300.53	0.544312	-1.15051e-05
1301.43	0.542969	1.30615e-05
1302.29	-0.697968	-0.0174042
1303.17	0.544403	-9.82666e-06
1304.07	0.543365	5.46265e-06
1304.93	-0.697205	-0.0111603
1305.81	0.542999	-2.13623e-06
1306.71	0.543243	3.84521e-06
1307.59	0.00153503	0.00926514
1308.45	0.544098	-9.94873e-06
1309.35	0.543091	1.64795e-06
1310.23	0.00125427	0.0054184
1311.09	0.543304	-4.69971e-06
1311.99	0.543915	-4.42505e-06
1312.89	0.542694	0.0113922
1313.73	0.544281	-1.27563e-05
1314.63	0.543365	-1.46484e-06
1315.53	0.543579	0.000351776
1316.37	0.544312	-1.15967e-05
1317.27	0.54303	1.2207e-07
1318.17	0.54425	0.000109406
1319.01	0.542999	-3.26538e-06
1319.91	0.543823	-6.13403e-06
1320.81	0.543121	5.75867e-05
1321.65	0.54425	-1.0437e-05
1322.55	0.543121	-1.77002e-06
1323.45	0.544281	2.4353e-05
1324.29	0.542938	-5.12695e-06
1325.19	0.543762	-5.95093e-06
1326.09	0.543121	2.05078e-05
1326.93	0.54306	-3.479e-06
1327.83	0.542847	-2.80762e-06
1328.73	0.543488	9.765625E-06
1329.59	-0.697418	-0.0175232
1330.47	0.542908	-4.21143e-06
1331.37	0.543335	8.08716e-06
1332.23	-0.697632	-0.011264
1333.11	0.543243	-3.32642e-06
1334.01	0.542908	3.63159e-06
1334.89	0.000512695	0.00924072
1335.75	0.543488	-5.70679e-06
1336.65	0.544342	-4.5166e-06
1337.53	0.000845337	0.00543091
1338.39	0.54425	-1.2146e-05
1339.29	0.54425	-5.06592e-06
1340.19	0.542542	0.0115692
1341.03	0.543457	-5.92041e-06
1341.93	0.543243	-9.15527e-07
1342.83	0.543335	0.000368439
1343.67	0.544189	-1.10168e-05
1344.57	0.543732	-4.02832e-06
1345.47	0.54361	0.00011673
1346.31	0.542816	-3.84521e-06
1347.21	0.543579	-6.95801e-06
1348.11	0.542908	6.073e-05
1348.95	0.544189	-1.08948e-05
1349.85	0.543152	-3.23486e-06
1350.75	0.542938	3.4668e-05
1351.59	0.543396	-6.37817e-06
1352.49	0.543121	-1.52588e-06
1353.39	0.544189	1.29395e-05
1354.23	0.544037	-1.05591e-05
1355.13	0.542999	-1.34277e-06
1356.03	0.544128	4.57764e-06
1356.89	-0.697998	-0.0176178
1357.77	0.542999	-3.11279e-06
1358.67	0.543945	8.54492e-07
1359.53	-0.698242	-0.0113495
1360.41	0.54306	-2.19727e-06
1361.31	0.543976	7.32422e-07
1362.19	0.00111694	0.00922241
1363.05	0.543243	-4.39453e-06
1363.95	0.544312	-3.84521e-06
1364.83	0.00194702	0.00543823
1365.69	0.542847	-9.76562e-07
1366.59	0.542969	4.69971e-06
1367.49	0.542847	0.0117432
1368.33	0.543182	-4.5166e-06
1369.23	0.544373	-6.53076e-06
1370.13	0.542938	0.000383026
1370.97	0.542969	-2.50244e-06
1371.87	0.543793	-6.13403e-06
1372.77	0.54425	0.000114349
1373.61	0.544403	-1.16882e-05
1374.51	0.542938	1.5564e-06
1375.41	0.542847	6.18286e-05
1376.25	0.542999	-3.32642e-06
1377.15	0.544403	-9.58252e-06
1378.05	0.543396	3.24402e-05
1378.89	0.542999	-5.18799e-07
1379.79	0.543243	-2.44141e-07
1380.69	0.544434	1.06812e-05
1381.53	0.544342	-1.22681e-05
1382.43	0.542877	-1.0376e-06
1383.33	0.543945	6.073e-06
1384.19	-0.698151	-0.0177307
1385.07	0.542969	-7.62939e-07
1385.97	0.544281	2.19727e-06
1386.83	-0.697601	-0.0114655
1387.71	0.543182	-3.93677e-06
1388.61	0.543274	3.93677e-06
1389.49	0.00122375	0.00920105
1390.35	0.542786	-1.2207e-07
1391.25	0.544525	-4.42505e-06
1392.13	0.00098877	0.00545044
1392.99	0.543152	-4.79126e-06
1393.89	0.544159	-5.31006e-06
1394.79	0.543427	0.0118988
1395.63	0.543823	-1.12e-05
1396.53	0.542755	3.57056e-06
1397.43	0.544495	0.000385529
1398.27	0.544128	-9.552e-06
1399.17	0.543182	5.49316e-07
1400.07	0.542847	0.000129852
1400.91	0.542786	-2.53296e-06
1401.81	0.543488	-4.24194e-06
1402.71	0.544403	5.35278e-05
1403.55	0.544464	-1.3855e-05
1404.45	0.543976	-7.50732e-06
1405.35	0.542847	3.68652e-05
1406.19	0.543091	-6.01196e-06
1407.09	0.544434	-1.03455e-05
1407.99	0.543304	2.17285e-05
1408.83	0.544281	-1.37024e-05
1409.73	0.544586	-1.12e-05
1410.63	0.544342	6.71387e-06
1411.49	-0.696747	-0.0178345
1412.37	0.543945	-7.84302e-06
1413.27	0.542786	1.00708e-05
1414.13	-0.697113	-0.011557
1415.01	0.542877	-1.25122e-06
1415.91	0.543884	6.40869e-07
1416.79	0.00151062	0.00916748
1417.65	0.544312	-1.06201e-05
1418.55	0.544525	-5.24902e-06
1419.43	0.00143738	0.00545685
1420.29	0.543701	-7.75146e-06
1421.19	0.544495	-6.19507e-06
1422.09	0.544037	0.0120392
1422.93	0.543427	-6.10352e-06
1423.83	0.544342	-6.22559e-06
1424.73	0.544098	0.000402649
1425.57	0.542908	-2.68555e-06
1426.47	0.544006	-6.98853e-06
1427.37	0.544067	0.000122528
1428.21	0.544525	-1.23291e-05
1429.11	0.543518	-4.24194e-06
1430.01	0.544373	5.34058e-05
1430.85	0.544495	-1.12305e-05
1431.75	0.543701	-2.41089e-06
1432.65	0.54422	2.75574e-05
1433.49	0.544281	-1.24512e-05
1434.39	0.543457	-6.89697e-06
1435.29	0.543335	2.0813e-05
1436.13	0.543091	-2.56348e-06
1437.03	0.542816	2.31934e-06
1437.93	0.542969	1.65405e-05
1438.79	-0.697052	-0.0179504
1439.67	0.542816	7.01904e-07
1440.57	0.544373	1.43433e-06
1441.43	-0.697144	-0.0116577
1442.31	0.544281	-1.08948e-05
1443.21	0.542816	9.21631e-06
1444.09	0.00122986	0.00912781
1444.95	0.543274	-3.96729e-06
1445.85	0.544067	-4.08936e-06
1446.73	0.00067749	0.00546906
1447.59	0.543427	-3.9978e-06
1448.49	0.544281	-5.61523e-06
1449.39	0.543671	0.0121948
1450.23	0.544189	-1.08948e-05
1451.13	0.544586	-8.63647e-06
1452.03	0.544342	0.000415161
1452.87	0.542877	-2.22778e-06
1453.77	0.542908	2.41089e-06
1454.67	0.544006	0.000128082
1455.51	0.542786	-1.80054e-06
1456.41	0.543518	-4.85229e-06
1457.31	0.543884	6.12488e-05
1458.15	0.543304	-7.32422e-06
1459.05	0.54306	-9.15527e-07
1459.95	0.543182	3.77808e-05
1460.79	0.543945	-9.67407e-06
1461.69	0.543732	-7.53784e-06
1462.59	0.544189	1.57471e-05
1463.43	0.543518	-7.2937e-06
1464.33	0.542999	-1.09863e-06
1465.23	0.542816	1.66931e-05
1466.09	-0.697968	-0.0180328
1466.97	0.543182	-3.44849e-06
1467.87	0.54306	8.69751e-06
1468.73	-0.698486	-0.0117371
1469.61	0.543915	-7.84302e-06
1470.51	0.543976	-5.79834e-07
1471.39	0.00162659	0.00910339
1472.25	0.54364	-4.76074e-06
1473.15	0.544312	-3.69263e-06
1474.03	0.000527954	0.00547607
1474.89	0.542969	-3.8147e-06
1475.79	0.54425	-4.48608e-06
1476.69	0.542389	0.0123352
1477.53	0.544128	-1.00098e-05
1478.43	0.544159	-5.76782e-06
1479.33	0.542755	0.000442474
1480.17	0.543549	-5.79834e-06
1481.07	0.544556	-7.84302e-06
1481.97	0.542877	0.000137817
1482.81	0.543152	-4.21143e-06
1482.95	0.544098	-1.06812e-05