File: Edgar/20240508/20240508/electrodeposition_pulsed_potential_20240508_A/pulses_1000_to_2000.txt
Time (s)	WE(1).Potential (V)	WE(1).Current (A)
1507.88	-0.697723	-0.0181946
1508.76	0.543121	-3.87573e-06
1509.66	0.544373	3.66211e-07
1510.52	-0.697144	-0.0119019
1511.4	0.544464	-1.171875E-05
1512.3	0.542786	7.32422e-06
1513.18	0.000424194	0.00895691
1514.04	0.543549	-4.18091e-06
1514.94	0.54425	-4.27246e-06
1515.82	0.000442505	0.00536987
1516.68	0.54306	-3.78418e-06
1517.58	0.542755	3.50952e-06
1518.48	0.543243	0.0122742
1519.32	0.544098	-1.0498e-05
1520.22	0.542938	2.80762e-06
1521.12	0.542786	0.000441101
1521.96	0.543793	-9.67407e-06
1522.86	0.542908	3.02124e-06
1523.76	0.542755	0.000139496
1524.6	0.543488	-4.5166e-06
1525.5	0.543274	6.10352e-08
1526.4	0.544403	5.859375E-05
1527.24	0.543274	-6.40869e-06
1528.14	0.543091	-1.46484e-06
1529.04	0.543945	2.97852e-05
1529.88	0.543365	-6.86646e-06
1530.78	0.543182	-1.83105e-07
1531.68	0.542908	2.50244e-05
1532.52	0.544373	-1.24207e-05
1533.42	0.543854	-7.62939e-06
1534.32	0.543335	1.44043e-05
1535.18	-0.697876	-0.0181976
1536.06	0.543945	-7.87354e-06
1536.96	0.544586	3.38745e-06
1537.82	-0.697388	-0.0119232
1538.7	0.544434	-1.27258e-05
1539.6	0.543335	5.82886e-06
1540.48	0.00166626	0.00900574
1541.34	0.544159	-9.12476e-06
1542.24	0.543274	9.76562e-07
1543.12	0.00133972	0.00544098
1543.98	0.544403	-1.07727e-05
1544.88	0.544525	-7.44629e-06
1545.78	0.542877	0.0124847
1546.62	0.543518	-4.94385e-06
1547.52	0.543243	5.18799e-07
1548.42	0.544464	0.000450317
1549.26	0.542816	-1.86157e-06
1550.16	0.543762	-2.2583e-06
1551.06	0.544128	0.000134186
1551.9	0.542999	-1.52588e-06
1552.8	0.542877	1.46484e-06
1553.7	0.543457	6.58875e-05
1554.54	0.543274	-5.27954e-06
1555.44	0.543121	-1.46484e-06
1556.34	0.544159	3.18909e-05
1557.18	0.543091	-3.32642e-06
1558.08	0.543854	-4.36401e-06
1558.98	0.544403	1.5625e-05
1559.82	0.544495	-1.14746e-05
1560.72	0.543671	-4.94385e-06
1561.62	0.543182	1.52283e-05
1562.48	-0.696503	-0.0183197
1563.36	0.542786	-6.10352e-07
1564.26	0.542786	1.22681e-05
1565.12	-0.698547	-0.0120026
1566	0.543213	-1.70898e-06
1566.9	0.542999	8.02612e-06
1567.78	0.000836182	0.00899353
1568.64	0.54425	-9.70459e-06
1569.54	0.542969	4.76074e-06
1570.42	0.00116882	0.00547241
1571.28	0.544098	-8.36182e-06
1572.18	0.544403	-6.2561e-06
1573.08	0.54245	0.0126373
1573.92	0.542847	-1.92261e-06
1574.82	0.542847	2.44141e-06
1575.72	0.544556	0.000466858
1576.56	0.542908	-2.10571e-06
1577.46	0.542969	1.49536e-06
1578.36	0.544342	0.000138123
1579.2	0.543213	-3.20435e-06
1580.1	0.544403	-8.91113e-06
1581	0.544098	6.20728e-05
1581.84	0.544434	-1.31836e-05
1582.74	0.544281	-1.07727e-05
1583.64	0.544159	3.2074e-05
1584.48	0.544037	-7.20215e-06
1585.38	0.54425	-9.58252e-06
1586.28	0.542999	2.38953e-05
1587.12	0.544189	-1.1322e-05
1588.02	0.544006	-7.62939e-06
1588.92	0.543976	1.14136e-05
1589.78	-0.69696	-0.0184113
1590.66	0.543823	-7.1106e-06
1591.56	0.543243	9.97925e-06
1592.42	-0.697601	-0.0120819
1593.3	0.543182	-2.7771e-06
1594.2	0.54361	3.57056e-06
1595.08	0.000552368	0.00897217
1595.94	0.543701	-6.56128e-06
1596.84	0.543121	3.90625e-06
1597.72	0.00050354	0.00548676
1598.58	0.542816	-9.76562e-07
1599.48	0.54306	2.71606e-06
1600.38	0.543091	0.0127716
1601.22	0.542969	-3.35693e-06
1602.12	0.544403	-6.34766e-06
1603.02	0.543121	0.000497711
1603.86	0.544128	-8.88062e-06
1604.76	0.542969	1.49536e-06
1605.66	0.544189	0.000143646
1606.5	0.544281	-1.21765e-05
1607.4	0.543701	-5.21851e-06
1608.3	0.543091	7.12585e-05
1609.14	0.544556	-1.27869e-05
1610.04	0.54422	-7.32422e-06
1610.94	0.544159	3.40576e-05
1611.78	0.542847	-3.32642e-06
1612.68	0.542816	8.8501e-07
1613.58	0.542877	2.68555e-05
1614.42	0.544464	-1.32141e-05
1615.32	0.543793	-6.62231e-06
1616.22	0.542755	1.78223e-05
1617.08	-0.697113	-0.0185272
1617.96	0.542786	7.62939e-07
1618.86	0.544098	4.69971e-06
1619.72	-0.697021	-0.0122009
1620.6	0.544098	-7.72095e-06
1621.5	0.544373	-2.01416e-06
1622.38	0.000427246	0.00896301
1623.24	0.543152	-3.63159e-06
1624.14	0.544403	-8.8501e-07
1625.02	0.000665283	0.00549652
1625.88	0.542938	-2.2583e-06
1626.78	0.543396	2.41089e-06
1627.68	0.542358	0.0129181
1628.52	0.542969	-2.62451e-06
1629.42	0.543396	-9.15527e-08
1630.32	0.544159	0.000509033
1631.16	0.543213	-4.27246e-06
1632.06	0.543915	-6.10352e-06
1632.96	0.544067	0.000148163
1633.8	0.543823	-7.20215e-06
1634.7	0.542999	1.83105e-07
1635.6	0.54425	6.51855e-05
1636.44	0.543884	-9.94873e-06
1637.34	0.544464	-8.20923e-06
1638.24	0.543427	3.86963e-05
1639.08	0.544281	-1.10474e-05
1639.98	0.54303	4.27246e-07
1640.88	0.542786	2.70691e-05
1641.72	0.542969	-2.96021e-06
1642.62	0.543243	-2.83813e-06
1643.52	0.543243	1.40991e-05
1644.38	-0.697937	-0.0186371
1645.26	0.544403	-1.04065e-05
1646.16	0.542999	1.27869e-05
1647.02	-0.698425	-0.0122803
1647.9	0.544342	-1.08032e-05
1648.8	0.544434	-4.27246e-07
1649.68	0.000515747	0.0089325
1650.54	0.544159	-9.15527e-06
1651.44	0.542908	6.01196e-06
1652.32	0.00194092	0.00549286
1653.18	0.544281	-1.02234e-05
1654.08	0.544006	-2.01416e-06
1654.98	0.54303	0.013031
1655.82	0.542816	-6.71387e-07
1656.72	0.542847	4.30298e-06
1657.62	0.542938	0.000537415
1658.46	0.543732	-7.78198e-06
1659.36	0.543396	-1.70898e-06
1660.26	0.54425	0.000149994
1661.1	0.543396	-6.46973e-06
1662	0.54361	1.2207e-07
1662.9	0.543762	7.23572e-05
1663.74	0.543396	-6.13403e-06
1664.64	0.54306	-3.05176e-08
1665.54	0.543793	3.88184e-05
1666.38	0.544159	-1.03455e-05
1667.28	0.544128	-8.8501e-06
1668.18	0.544312	1.58997e-05
1669.02	0.544189	-8.3313e-06
1669.92	0.543121	-2.50244e-06
1670.82	0.543304	1.74255e-05
1671.68	-0.696991	-0.0187286
1672.56	0.543396	-5.27954e-06
1673.46	0.542847	1.38855e-05
1674.32	-0.697449	-0.0123718
1675.2	0.543976	-7.26318e-06
1676.1	0.543335	7.41577e-06
1676.98	0.000643921	0.00889282
1677.84	0.542908	-1.2207e-06
1678.74	0.544495	-2.19727e-06
1679.62	0.00178223	0.00549805
1680.48	0.542969	-1.77002e-06
1681.38	0.543335	2.65503e-06
1682.28	0.544006	0.0131531
1683.12	0.543304	-7.53784e-06
1684.02	0.542816	3.57056e-06
1684.92	0.544281	0.00054718
1685.76	0.543152	-6.7749e-06
1686.66	0.542969	2.2583e-06
1687.56	0.542969	0.00015863
1688.4	0.543488	-7.41577e-06
1689.3	0.543762	-2.34985e-06
1690.2	0.542969	7.95593e-05
1691.04	0.544312	-1.26038e-05
1691.94	0.544464	-8.20923e-06
1692.84	0.544434	3.45764e-05
1693.68	0.544159	-9.70459e-06
1694.58	0.543335	-3.41797e-06
1695.48	0.54361	2.64587e-05
1696.32	0.544556	-1.28784e-05
1697.22	0.543518	-2.28882e-06
1698.12	0.542786	2.005e-05
1698.98	-0.696777	-0.0188293
1699.86	0.543152	-2.50244e-06
1700.76	0.544159	5.09644e-06
1701.62	-0.698273	-0.0124481
1702.5	0.54422	-9.552e-06
1703.4	0.544067	2.19727e-06
1704.28	0.00126343	0.0088501
1705.14	0.544403	-1.13525e-05
1706.04	0.544403	-2.10571e-06
1706.92	0.00167236	0.00549927
1707.78	0.544189	-8.05664e-06
1708.68	0.544464	-4.97437e-06
1709.58	0.543365	0.0132721
1710.42	0.543976	-9.52148e-06
1711.32	0.544037	-3.23486e-06
1712.22	0.543304	0.000577087
1713.06	0.543335	-5.24902e-06
1713.96	0.544434	-7.69043e-06
1714.86	0.542786	0.000166107
1715.7	0.543518	-6.16455e-06
1716.6	0.543854	-4.79126e-06
1717.5	0.543732	7.48901e-05
1718.34	0.543091	-5.24902e-06
1719.24	0.544525	-8.08716e-06
1720.14	0.543579	3.83301e-05
1720.98	0.543549	-7.69043e-06
1721.88	0.544373	-7.47681e-06
1722.78	0.544128	2.0874e-05
1723.62	0.544281	-1.171875E-05
1724.52	0.544373	-9.85718e-06
1725.42	0.543823	1.10168e-05
1726.28	-0.696503	-0.0189301
1727.16	0.543518	-5.00488e-06
1728.06	0.542999	1.16882e-05
1728.92	-0.696869	-0.0125458
1729.8	0.543457	-7.72095e-06
1730.7	0.542938	7.78198e-06
1731.58	0.00120544	0.00881653
1732.44	0.543121	-9.15527e-07
1733.34	0.543488	5.98145e-06
1734.22	0.001828	0.00549957
1735.08	0.544159	-9.79614e-06
1735.98	0.543518	6.10352e-07
1736.88	0.54245	0.0133728
1737.72	0.54306	-2.99072e-06
1738.62	0.544128	-5.85937e-06
1739.52	0.544006	0.000597534
1740.36	0.544495	-1.13831e-05
1741.26	0.543671	-1.86157e-06
1742.16	0.543427	0.000168274
1743	0.542755	-6.10352e-07
1743.9	0.544464	-8.05664e-06
1744.8	0.54422	7.29675e-05
1745.64	0.544403	-1.2207e-05
1746.54	0.542816	1.0376e-06
1747.44	0.543365	4.27856e-05
1748.28	0.543457	-6.40869e-06
1749.18	0.542786	1.83105e-07
1750.08	0.54306	2.89612e-05
1750.92	0.542999	-3.78418e-06
1751.82	0.544037	-4.57764e-06
1752.72	0.543579	1.35498e-05
1753.58	-0.697388	-0.0190063
1754.46	0.542999	-7.93457e-07
1755.36	0.543549	9.61304e-06
1756.22	-0.697418	-0.0126251
1757.1	0.543213	-5.85937e-06
1758	0.544312	6.10352e-07
1758.88	8.54492e-05	0.00879211
1759.74	0.542969	-2.80762e-06
1760.64	0.542938	6.40869e-06
1761.52	0.00121765	0.00550323
1762.38	0.544189	-8.30078e-06
1763.28	0.542938	5.31006e-06
1764.18	0.543457	0.0134796
1765.02	0.544281	-1.01013e-05
1765.92	0.543091	3.78418e-06
1766.82	0.544098	0.000621643
1767.66	0.542969	-3.57056e-06
1768.56	0.544342	-6.28662e-06
1769.46	0.544342	0.000163513
1770.3	0.543182	-4.42505e-06
1771.2	0.544159	-8.5144e-06
1772.1	0.544067	7.59277e-05
1772.94	0.543152	-4.08936e-06
1773.84	0.542877	1.7395e-06
1774.74	0.543732	4.21448e-05
1775.58	0.54306	-5.46265e-06
1776.48	0.542969	-2.44141e-07
1777.38	0.544281	2.08435e-05
1778.22	0.543091	-3.87573e-06
1779.12	0.54422	-9.30786e-06
1780.02	0.543518	1.5625e-05
1780.88	-0.696899	-0.0191193
1781.76	0.544342	-7.93457e-06
1782.66	0.543579	9.09424e-06
1783.52	-0.697052	-0.0127258
1784.4	0.543549	-5.43213e-06
1785.3	0.54425	1.70898e-06
1786.18	0.000878906	0.00874939
1787.04	0.543762	-3.96729e-06
1787.94	0.544373	-9.15527e-07
1788.82	0.000567627	0.00550415
1789.68	0.54306	-4.15039e-06
1790.58	0.543884	5.49316e-07
1791.48	0.542999	0.0135803
1792.32	0.544067	-6.65283e-06
1793.22	0.543335	2.16675e-06
1794.12	0.544189	0.000645752
1794.96	0.544312	-1.17798e-05
1795.86	0.543976	-4.39453e-06
1796.76	0.542847	0.000177338
1797.6	0.544373	-1.09253e-05
1798.5	0.544342	-7.96509e-06
1799.4	0.544159	7.50427e-05
1800.24	0.543762	-8.3313e-06
1801.14	0.543793	-4.76074e-06
1802.04	0.543915	4.41284e-05
1802.88	0.543213	-4.60815e-06
1803.78	0.543213	-2.16675e-06
1804.68	0.543762	2.53601e-05
1805.52	0.544434	-1.33972e-05
1806.42	0.543121	-1.34277e-06
1807.32	0.543304	1.81274e-05
1808.18	-0.698029	-0.0192108
1809.06	0.542877	-7.01904e-07
1809.96	0.544373	3.93677e-06
1810.82	-0.698273	-0.012793
1811.7	0.542999	-8.54492e-07
1812.6	0.54303	1.03149e-05
1813.48	0.000827026	0.00871887
1814.34	0.542938	1.19019e-06
1815.24	0.543152	5.95093e-06
1816.12	0.000912476	0.00549835
1816.98	0.544128	-7.69043e-06
1817.88	0.543213	3.9978e-06
1818.78	0.542328	0.013681
1819.62	0.544281	-1.01013e-05
1820.52	0.542847	4.82178e-06
1821.42	0.543365	0.000676575
1822.26	0.544281	-1.06506e-05
1823.16	0.542938	2.47192e-06
1824.06	0.544312	0.000173065
1824.9	0.543121	-3.44849e-06
1825.8	0.543182	-2.13623e-07
1826.7	0.543396	8.38928e-05
1827.54	0.542969	-7.32422e-07
1828.44	0.543793	-4.45557e-06
1829.34	0.543762	4.40063e-05
1830.18	0.544312	-1.07117e-05
1831.08	0.542969	1.49536e-06
1831.98	0.544189	2.15759e-05
1832.82	0.544342	-1.14746e-05
1833.72	0.542999	-3.05176e-07
1834.62	0.543518	1.68152e-05
1835.48	-0.697876	-0.0192993
1836.36	0.543243	-3.38745e-06
1837.26	0.54306	1.39771e-05
1838.12	-0.697571	-0.0128784
1839	0.542999	-1.98364e-06
1839.9	0.544128	2.19727e-06
1840.78	0.000210571	0.00869446
1841.64	0.543121	-4.97437e-06
1842.54	0.542938	8.05664e-06
1843.42	0.00202942	0.00549774
1844.28	0.54306	-2.31934e-06
1845.18	0.542999	5.67627e-06
1846.08	0.542297	0.0137878
1846.92	0.543701	-7.26318e-06
1847.82	0.543915	-2.53296e-06
1848.72	0.544312	0.000700684
1849.56	0.544037	-9.49097e-06
1850.46	0.544189	-5.09644e-06
1851.36	0.544342	0.000177185
1852.2	0.543915	-7.44629e-06
1853.1	0.544128	-5.12695e-06
1854	0.542938	8.81348e-05
1854.84	0.54425	-1.27869e-05
1855.74	0.542999	2.99072e-06
1856.64	0.544067	4.14734e-05
1857.48	0.54303	-3.41797e-06
1858.38	0.54425	-9.30786e-06
1859.28	0.543274	2.87476e-05
1860.12	0.543854	-6.62231e-06
1861.02	0.543182	-1.58691e-06
1861.92	0.544342	1.35498e-05
1862.78	-0.696625	-0.0194122
1863.66	0.544006	-6.62231e-06
1864.56	0.543549	1.0376e-05
1865.42	-0.698273	-0.0129608
1866.3	0.543579	-2.92969e-06
1867.2	0.543823	2.47192e-06
1868.08	0.000424194	0.00865784
1868.94	0.543549	-7.99561e-06
1869.84	0.543549	4.76074e-06
1870.72	0.001171875	0.00549957
1871.58	0.542847	4.27246e-07
1872.48	0.54364	1.15967e-06
1873.38	0.543427	0.0138672
1874.22	0.54303	-1.31226e-06
1875.12	0.543701	-1.70898e-06
1876.02	0.544312	0.000726318
1876.86	0.542969	-2.74658e-06
1877.76	0.54306	1.46484e-06
1878.66	0.542938	0.000190063
1879.5	0.543396	-4.36401e-06
1880.4	0.542969	2.31934e-06
1881.3	0.542816	8.92944e-05
1882.14	0.543671	-4.42505e-06
1883.04	0.54425	-5.0354e-06
1883.94	0.543579	4.54407e-05
1884.78	0.544312	-1.20544e-05
1885.68	0.543823	-2.7771e-06
1886.58	0.544342	2.23389e-05
1887.42	0.543488	-7.62939e-06
1888.32	0.543365	-2.22778e-06
1889.22	0.543427	1.76086e-05
1890.08	-0.696747	-0.0194824
1890.96	0.54425	-9.12476e-06
1891.86	0.543213	1.29395e-05
1892.72	-0.697266	-0.0130432
1893.6	0.543854	-5.95093e-06
1894.5	0.544189	3.26538e-06
1895.38	0.000518799	0.00862732
1896.24	0.54422	-1.00708e-05
1897.14	0.54303	8.02612e-06
1898.02	0.00102844	0.00549286
1898.88	0.542969	-9.15527e-08
1899.78	0.542877	5.79834e-06
1900.68	0.542328	0.0139587
1901.52	0.544342	-9.49097e-06
1902.42	0.54425	-4.5166e-06
1903.32	0.54306	0.000766907
1904.16	0.543243	-2.86865e-06
1905.06	0.544342	-6.80542e-06
1905.96	0.544403	0.000185852
1906.8	0.543701	-6.43921e-06
1907.7	0.543121	-3.66211e-07
1908.6	0.544098	8.4259e-05
1909.44	0.544006	-8.72803e-06
1910.34	0.544373	-7.35474e-06
1911.24	0.542999	5.41382e-05
1912.08	0.542847	-2.19727e-06
1912.98	0.542816	1.12915e-06
1913.88	0.543335	2.95105e-05
1914.72	0.542969	-1.46484e-06
1915.62	0.543243	-1.58691e-06
1916.52	0.544434	1.11084e-05
1917.38	-0.697968	-0.0195801
1918.26	0.543701	-6.46973e-06
1919.16	0.544098	8.57544e-06
1920.02	-0.698425	-0.0131348
1920.9	0.544403	-9.70459e-06
1921.8	0.544067	4.66919e-06
1922.68	0.00168152	0.00858765
1923.54	0.542938	-2.01416e-06
1924.44	0.54364	3.66211e-06
1925.32	0.002005	0.00548767
1926.18	0.544342	-1.03149e-05
1927.08	0.543793	8.54492e-07
1927.98	0.542603	0.0140472
1928.82	0.543732	-6.40869e-06
1929.72	0.542969	4.39453e-06
1930.62	0.542847	0.000798035
1931.46	0.543243	-2.62451e-06
1932.36	0.542694	2.59399e-06
1933.26	0.544098	0.000192932
1934.1	0.544189	-8.69751e-06
1935	0.543976	-4.66919e-06
1935.9	0.544128	8.76465e-05
1936.74	0.544373	-1.1261e-05
1937.64	0.543915	-5.43213e-06
1938.54	0.544006	4.54102e-05
1939.38	0.543732	-1.00098e-05
1940.28	0.543396	-3.41797e-06
1941.18	0.543091	3.15247e-05
1942.02	0.542725	-2.65503e-06
1942.92	0.544434	-9.73511e-06
1943.82	0.544128	1.35193e-05
1944.68	-0.697052	-0.0196686
1945.56	0.544067	-7.41577e-06
1946.46	0.544006	6.56128e-06
1947.32	-0.696747	-0.013205
1948.2	0.542816	4.27246e-07
1949.1	0.542847	1.28479e-05
1949.98	0.00109253	0.00855103
1950.84	0.544128	-8.11768e-06
1951.74	0.543732	4.97437e-06
1952.62	0.00181274	0.00548523
1953.48	0.543884	-5.61523e-06
1954.38	0.542816	9.15527e-06
1955.28	0.542206	0.0141235
1956.12	0.543243	-2.41089e-06
1957.02	0.544403	-4.48608e-06
1957.92	0.543915	0.000826416
1958.76	0.542786	-7.93457e-07
1959.66	0.543579	2.13623e-07
1960.56	0.544373	0.000194092
1961.4	0.544586	-1.28479e-05
1962.3	0.542725	1.89209e-06
1963.2	0.544586	8.45947e-05
1964.04	0.543579	-6.71387e-06
1964.94	0.543213	3.05176e-08
1965.84	0.544434	4.37622e-05
1966.68	0.543671	-9.67407e-06
1967.58	0.544098	-8.42285e-06
1968.48	0.544373	2.41699e-05
1969.32	0.542816	-2.16675e-06
1970.22	0.543396	-3.17383e-06
1971.12	0.543091	2.26746e-05
1971.98	-0.697144	-0.0197449
1972.86	0.543976	-5.37109e-06
1973.76	0.544434	6.43921e-06
1974.62	-0.697601	-0.0132935
1975.5	0.544403	-9.79614e-06
1976.4	0.543335	7.93457e-06
1977.28	0.00105896	0.0085083
1978.14	0.542877	-5.49316e-07
1979.04	0.543518	5.37109e-06
1979.92	0.00200195	0.00547455
1980.78	0.544403	-1.07422e-05
1981.68	0.54422	-2.31934e-06
1982.58	0.543762	0.0142029
1983.42	0.543854	-7.56836e-06
1984.32	0.542908	3.96729e-06
1985.22	0.544464	0.000858765
1986.06	0.544128	-9.73511e-06
1986.96	0.543732	1.83105e-07
1987.86	0.544464	0.000199158
1988.7	0.543732	-6.13403e-06
1989.6	0.543854	-3.17383e-06
1990.5	0.544373	8.76465e-05
1991.34	0.544312	-1.02234e-05
1992.24	0.542847	1.98364e-06
1993.14	0.544098	4.7821e-05
1993.98	0.544373	-1.2146e-05
1994.88	0.543945	-6.98853e-06
1995.78	0.542816	3.42712e-05
1996.62	0.544098	-9.82666e-06
1997.52	0.543091	-1.25122e-06
1998.42	0.544464	1.53503e-05
1999.28	-0.697876	-0.0198547
2000.16	0.543304	-3.66211e-06
2001.06	0.542877	1.7334e-05
2001.92	-0.698273	-0.0133667
2002.8	0.544434	-1.02844e-05
2003.7	0.54364	7.96509e-06
2004.58	0.00162354	0.00848083
2005.44	0.544006	-7.08008e-06
2006.34	0.543091	9.70459e-06
2007.22	0.00196838	0.00546875
2008.08	0.542969	-5.79834e-07
2008.98	0.544373	-2.0752e-06
2009.88	0.542114	0.0142822
2010.72	0.54425	-1.11694e-05
2011.62	0.542786	7.62939e-06
2012.52	0.544189	0.000899048
2013.36	0.543335	-4.82178e-06
2014.26	0.544067	-4.05884e-06
2015.16	0.544128	0.000204742
2016	0.543121	-2.34985e-06
2016.9	0.544403	-7.32422e-06
2017.8	0.542908	9.86633e-05
2018.64	0.543427	-7.41577e-06
2019.54	0.544434	-7.59888e-06
2020.44	0.542877	5.62744e-05
2021.28	0.543823	-6.65283e-06
2022.18	0.544159	-4.54712e-06
2023.08	0.543182	3.32336e-05
2023.92	0.543182	-6.40869e-06
2024.82	0.544556	-1.00403e-05
2025.72	0.542969	2.31628e-05
2026.58	-0.697968	-0.0199219
2027.46	0.543976	-5.52368e-06
2028.36	0.544312	6.80542e-06
2029.22	-0.69812	-0.0134399
2030.1	0.543976	-6.16455e-06
2031	0.54422	2.38037e-06
2031.88	0.000369263	0.00845337
2032.74	0.544128	-6.71387e-06
2033.64	0.544281	-1.61743e-06
2034.52	0.00158081	0.00546295
2035.38	0.544434	-9.73511e-06
2036.28	0.544281	-2.53296e-06
2037.18	0.542633	0.0143524
2038.02	0.543457	-6.92749e-06
2038.92	0.543396	5.21851e-06
2039.82	0.544159	0.000942383
2040.66	0.543304	-6.10352e-06
2041.56	0.543823	-4.27246e-07
2042.46	0.54425	0.000207886
2043.3	0.543457	-2.71606e-06
2044.2	0.543854	-2.28882e-06
2045.1	0.544403	9.03931e-05
2045.94	0.544464	-1.27258e-05
2046.84	0.544464	-6.98853e-06
2047.74	0.544312	4.6936e-05
2048.58	0.542938	-4.45557e-06
2049.48	0.543762	-4.69971e-06
2050.38	0.543457	3.19824e-05
2051.22	0.54303	-6.10352e-07
2052.12	0.542877	1.28174e-06
2053.02	0.542847	2.4292e-05
2053.88	-0.697052	-0.0200165
2054.76	0.543579	-3.66211e-06
2055.66	0.542816	1.69983e-05
2056.52	-0.69751	-0.0135284
2057.4	0.543457	-3.9978e-06
2058.3	0.542847	1.34277e-05
2059.18	0.00162354	0.00840454
2060.04	0.544434	-9.12476e-06
2060.94	0.543762	3.75366e-06
2061.82	0.000430298	0.00546112
2062.68	0.543121	-2.89917e-06
2063.58	0.542847	5.00488e-06
2064.48	0.542511	0.0144287
2065.32	0.543091	-2.13623e-06
2066.22	0.544556	-5.09644e-06
2067.12	0.542847	0.000997009
2067.96	0.542847	-2.10571e-06
2068.86	0.544006	-2.22778e-06
2069.76	0.54364	0.000217102
2070.6	0.544342	-1.01013e-05
2071.5	0.544464	-5.70679e-06
2072.4	0.54306	9.94263e-05
2073.24	0.542938	-1.15967e-06
2074.14	0.543488	1.52588e-07
2075.04	0.544403	4.85535e-05
2075.88	0.544159	-1.06201e-05
2076.78	0.544373	-8.05664e-06
2077.68	0.54303	3.7384e-05
2078.52	0.544373	-1.09558e-05
2079.42	0.542908	2.34985e-06
2080.32	0.543304	2.13318e-05
2081.18	-0.697754	-0.0200928
2082.06	0.542847	1.00708e-06
2082.96	0.54303	1.66016e-05
2083.82	-0.697052	-0.0136078
2084.7	0.544067	-7.99561e-06
2085.6	0.542938	1.25122e-05
2086.48	0.00162964	0.00835876
2087.34	0.544006	-8.36182e-06
2088.24	0.543732	4.27246e-07
2089.12	0.000463867	0.00544983
2089.98	0.544525	-1.12915e-05
2090.88	0.543701	1.83105e-06
2091.78	0.543396	0.0144958
2092.62	0.543732	-5.31006e-06
2093.52	0.544342	-4.48608e-06
2094.42	0.544434	0.00103882
2095.26	0.543274	-3.84521e-06
2096.16	0.542847	4.11987e-06
2097.06	0.544312	0.000216187
2097.9	0.544495	-1.13525e-05
2098.8	0.542725	2.10571e-06
2099.7	0.544464	9.43298e-05
2100.54	0.544403	-1.23291e-05
2101.44	0.542816	1.7395e-06
2102.34	0.542999	5.62134e-05
2103.18	0.544434	-1.09863e-05
2104.08	0.544403	-8.08716e-06
2104.98	0.543823	2.98462e-05
2105.82	0.543549	-8.54492e-06
2106.72	0.543304	1.92261e-06
2107.62	0.542816	2.59705e-05
2108.48	-0.697662	-0.020166
2109.36	0.544464	-8.72803e-06
2110.26	0.542969	1.61133e-05
2111.12	-0.697998	-0.013678
2112	0.544128	-7.59888e-06
2112.9	0.542816	1.46179e-05
2113.78	0.000250244	0.0083252
2114.64	0.544464	-1.03455e-05
2115.54	0.54361	6.68335e-06
2116.42	0.00202942	0.00542725
2117.28	0.54364	-5.27954e-06
2118.18	0.544098	0
2119.08	0.542694	0.0145538
2119.92	0.544189	-1.11084e-05
2120.82	0.543243	5.85937e-06
2121.72	0.542908	0.0011087
2122.56	0.543823	-5.52368e-06
2123.46	0.543091	5.7373e-06
2124.36	0.543518	0.000226868
2125.2	0.544067	-1.03455e-05
2126.1	0.544464	-7.17163e-06
2127	0.544495	9.57336e-05
2127.84	0.544403	-1.07422e-05
2128.74	0.543335	-1.15967e-06
2129.64	0.543213	5.79834e-05
2130.48	0.544098	-9.765625E-06
2131.38	0.544373	-8.66699e-06
2132.28	0.543915	3.07312e-05
2133.12	0.54306	-3.93677e-06
2134.02	0.544098	-6.95801e-06
2134.92	0.543274	2.1759e-05
2135.78	-0.697388	-0.0202545
2136.66	0.543213	-1.83105e-07
2137.56	0.543121	1.67542e-05
2138.42	-0.697174	-0.0137604
2139.3	0.543121	-1.83105e-07
2140.2	0.542725	1.34277e-05
2141.08	0.00100403	0.00827637
2141.94	0.543671	-5.00488e-06
2142.84	0.54306	8.91113e-06
2143.72	0.00151367	0.00541718
2144.58	0.544403	-9.91821e-06
2145.48	0.544281	8.54492e-07
2146.38	0.54361	0.0146149
2147.22	0.542725	4.27246e-07
2148.12	0.544464	-4.11987e-06
2149.02	0.544098	0.00116699
2149.86	0.542816	3.66211e-07
2150.76	0.543152	1.46484e-06
2151.66	0.543762	0.00022876
2152.5	0.544098	-9.3689e-06
2153.4	0.542847	2.65503e-06
2154.3	0.543396	0.000104309
2155.14	0.544403	-1.07422e-05
2156.04	0.54422	-5.70679e-06
2156.94	0.544098	5.07507e-05
2157.78	0.543793	-7.1106e-06
2158.68	0.542969	1.43433e-06
2159.58	0.54303	3.57361e-05
2160.42	0.543091	-1.98364e-06
2161.32	0.544281	-6.68335e-06
2162.22	0.542908	2.61536e-05
2163.08	-0.697754	-0.0203278
2163.96	0.543793	-5.09644e-06
2164.86	0.54364	1.27869e-05
2165.72	-0.697968	-0.0138458
2166.6	0.543243	-2.41089e-06
2167.5	0.543427	1.11084e-05
2168.38	0.000341797	0.0082428
2169.24	0.544128	-8.08716e-06
2170.14	0.543365	6.31714e-06
2171.02	0.001171875	0.0054068
2171.88	0.544281	-8.63647e-06
2172.78	0.544159	1.00708e-06
2173.68	0.542664	0.0146942
2174.52	0.54306	-1.40381e-06
2175.42	0.543304	3.63159e-06
2176.32	0.543427	0.00124786
2177.16	0.543701	-7.75146e-06
2178.06	0.543457	-2.04468e-06
2178.96	0.544189	0.00023233
2179.8	0.543396	-4.24194e-06
2180.7	0.54306	2.10571e-06
2181.6	0.542969	0.000108154
2182.44	0.543213	-3.41797e-06
2183.34	0.543579	-9.76562e-07
2184.24	0.543762	5.5542e-05
2185.08	0.543091	-4.18091e-06
2185.98	0.543274	-7.01904e-07
2186.88	0.544281	3.00598e-05
2187.72	0.543213	-4.45557e-06
2188.62	0.543427	-2.62451e-06
2189.52	0.543304	2.19727e-05
2190.38	-0.697845	-0.0204102
2191.26	0.54422	-8.72803e-06
2192.16	0.543091	1.70898e-05
2193.02	-0.697906	-0.0139099
2193.9	0.544373	-9.49097e-06
2194.8	0.54422	3.66211e-06
2195.68	0.00147095	0.00819397
2196.54	0.542847	1.58691e-06
2197.44	0.542969	8.94165e-06
2198.32	0.000830078	0.0053952
2199.18	0.544373	-1.00708e-05
2200.08	0.54364	6.95801e-06
2200.98	0.543396	0.0147461
2201.82	0.543457	-4.15039e-06
2202.72	0.543365	2.13623e-06
2203.62	0.544403	0.00132599
2204.46	0.543823	-7.41577e-06
2205.36	0.542938	5.34058e-06
2206.26	0.544403	0.000236145
2207.1	0.543335	-3.87573e-06
2208	0.54303	4.27246e-06
2208.9	0.542847	0.000111938
2209.74	0.544434	-1.19324e-05
2210.64	0.544464	-7.69043e-06
2211.54	0.54303	6.20728e-05
2212.38	0.543243	-4.76074e-06
2213.28	0.543793	-5.98145e-06
2214.18	0.543304	3.60107e-05
2215.02	0.543762	-8.17871e-06
2215.92	0.543579	-5.21851e-06
2216.82	0.542847	2.69775e-05
2217.68	-0.697876	-0.0205017
2218.56	0.544434	-8.94165e-06
2219.46	0.543457	1.31226e-05
2220.32	-0.69809	-0.0140015
2221.2	0.543549	-3.14331e-06
2222.1	0.544037	6.43921e-06
2222.98	0.000579834	0.00816345
2223.84	0.542847	1.49536e-06
2224.74	0.544342	7.93457e-07
2225.62	0.00114746	0.00538055
2226.48	0.544434	-9.39941e-06
2227.38	0.542786	9.49097e-06
2228.28	0.542328	0.0148163
2229.12	0.544098	-7.87354e-06
2230.02	0.544037	-1.52588e-06
2230.92	0.543488	0.00143646
2231.76	0.544098	-5.88989e-06
2232.66	0.544373	-5.09644e-06
2233.56	0.54303	0.000248505
2234.4	0.544067	-8.78906e-06
2235.3	0.544342	-6.65283e-06
2236.2	0.543243	0.000107452
2237.04	0.543243	-2.89917e-06
2237.94	0.542816	3.66211e-06
2238.84	0.543854	5.65796e-05
2239.68	0.543274	-1.46484e-06
2240.58	0.543671	-4.91333e-06
2241.48	0.542725	4.03442e-05
2242.32	0.542816	-1.19019e-06
2243.22	0.542847	1.49536e-06
2244.12	0.542877	2.60315e-05
2244.98	-0.697815	-0.0205994
2245.86	0.544128	-8.81958e-06
2246.76	0.544464	8.60596e-06
2247.62	-0.697906	-0.0140991
2248.5	0.544067	-7.53784e-06
2249.4	0.543671	7.41577e-06
2250.28	0.00101624	0.00812378
2251.14	0.544342	-8.30078e-06
2252.04	0.543091	9.18579e-06
2252.92	0.00191956	0.0053656
2253.78	0.544189	-1.02844e-05
2254.68	0.542847	8.08716e-06
2255.58	0.542969	0.0148804
2256.42	0.542908	1.83105e-07
2257.32	0.544342	-3.08228e-06
2258.22	0.543091	0.00157776
2259.06	0.544403	-1.21765e-05
2259.96	0.542847	4.27246e-06
2260.86	0.543335	0.000253937
2261.7	0.544403	-1.06201e-05
2262.6	0.542908	2.92969e-06
2263.5	0.542908	0.000112732
2264.34	0.542694	1.52588e-07
2265.24	0.542847	2.86865e-06
2266.14	0.542755	6.42395e-05
2266.98	0.543518	-5.52368e-06
2267.88	0.544128	-5.92041e-06
2268.78	0.542908	3.97644e-05
2269.62	0.544525	-1.12305e-05
2270.52	0.54425	-5.31006e-06
2271.42	0.543915	2.05383e-05
2272.28	-0.697662	-0.0206543
2273.16	0.543823	-6.2561e-06
2274.06	0.542877	1.94397e-05
2274.92	-0.69809	-0.0141663
2275.8	0.543884	-6.50024e-06
2276.7	0.544464	4.39453e-06
2277.58	0.000280762	0.00807495
2278.44	0.54361	-5.43213e-06
2279.34	0.543518	5.18799e-06
2280.22	0.000912476	0.00535217
2281.08	0.543427	-5.15747e-06
2281.98	0.544281	-3.96729e-07
2282.88	0.543091	0.0149323
2283.72	0.542725	8.8501e-07
2284.62	0.544067	-7.01904e-07
2285.52	0.544556	0.00172882
2286.36	0.54425	-1.08337e-05
2287.26	0.54422	-3.78418e-06
2288.16	0.543884	0.000255493
2289	0.544434	-1.06812e-05
2289.9	0.544312	-5.00488e-06
2290.8	0.543793	0.000110413
2291.64	0.543976	-8.91113e-06
2292.54	0.544373	-9.24683e-06
2293.44	0.543457	6.0791e-05
2294.28	0.542969	-1.34277e-06
2295.18	0.543732	-1.89209e-06
2296.08	0.544067	3.23486e-05
2296.92	0.544434	-1.34277e-05
2297.82	0.542847	1.15967e-06
2298.72	0.542969	2.71301e-05
2299.58	-0.696411	-0.0207336
2300.46	0.543823	-5.46265e-06
2301.36	0.544281	1.23596e-05
2302.22	-0.697815	-0.0142365
2303.1	0.543762	-4.73022e-06
2304	0.544495	5.27954e-06
2304.88	0.000372314	0.00803833
2305.74	0.544403	-9.21631e-06
2306.64	0.543671	4.69971e-06
2307.52	0.000570679	0.00533813
2308.38	0.542877	-8.8501e-07
2309.28	0.543701	3.87573e-06
2310.18	0.543427	0.0149841
2311.02	0.542786	-5.79834e-07
2311.92	0.544159	-2.53296e-06
2312.82	0.542847	0.00192963
2313.66	0.542725	-1.00708e-06
2314.56	0.54303	4.27246e-06
2315.46	0.544525	0.000256256
2316.3	0.544067	-7.96509e-06
2317.2	0.543579	9.76562e-07
2318.1	0.54303	0.000118073
2318.94	0.543793	-7.59888e-06
2319.84	0.544495	-6.31714e-06
2320.74	0.542816	6.52466e-05
2321.58	0.54422	-9.73511e-06
2322.48	0.543976	-4.82178e-06
2323.38	0.544434	3.125E-05
2324.22	0.542969	-2.34985e-06
2325.12	0.544464	-7.84302e-06
2326.02	0.54364	2.13623e-05
2326.88	-0.697632	-0.0207977
2327.76	0.543152	3.02124e-06
2328.66	0.544403	9.64355e-06
2329.52	-0.698364	-0.014325
2330.4	0.543335	-4.27246e-06
2331.3	0.543518	1.15051e-05
2332.18	0.00170898	0.00798035
2333.04	0.544403	-8.69751e-06
2333.94	0.544067	4.36401e-06
2334.82	0.000546265	0.00532196
2335.68	0.542847	1.92261e-06
2336.58	0.544464	-2.04468e-06
2337.48	0.542328	0.015033
2338.32	0.543518	-5.82886e-06
2339.22	0.544189	-2.16675e-06
2340.12	0.543457	0.0022348
2340.96	0.544464	-1.13525e-05
2341.86	0.544464	-4.39453e-06
2342.76	0.543762	0.000270508
2343.6	0.542908	-1.40381e-06
2344.5	0.542999	2.99072e-06
2345.4	0.544403	0.000110687
2346.24	0.542847	-7.32422e-07
2347.14	0.544037	-3.9978e-06
2348.04	0.543549	5.896e-05
2348.88	0.543213	-2.53296e-06
2349.78	0.542999	1.58691e-06
2350.68	0.543518	3.94897e-05
2351.52	0.543701	-5.95093e-06
2352.42	0.544464	-8.88062e-06
2353.32	0.544159	1.81885e-05
2354.18	-0.696625	-0.0208923
2355.06	0.542908	2.74658e-07
2355.96	0.544556	9.61304e-06
2356.82	-0.696838	-0.0144135
2357.7	0.542847	3.35693e-07
2358.6	0.543182	9.94873e-06
2359.48	0.00185852	0.00794373
2360.34	0.543091	-3.96729e-07
2361.24	0.544464	1.2207e-06
2362.12	0.00205078	0.00529297
2362.98	0.543732	-5.15747e-06
2363.88	0.543671	2.74658e-06
2364.78	0.543335	0.0150787
2365.62	0.543457	-3.72314e-06
2366.52	0.544067	-8.23975e-07
2367.42	0.543701	0.0026297
2368.26	0.543854	-5.95093e-06
2369.16	0.54422	-3.66211e-06
2370.06	0.543427	0.00027594
2370.9	0.54422	-8.20923e-06
2371.8	0.544464	-6.86646e-06
2372.7	0.543823	0.000117432
2373.54	0.544586	-1.01013e-05
2374.44	0.543396	-1.98364e-06
2375.34	0.543365	6.47278e-05
2376.18	0.544159	-1.04065e-05
2377.08	0.543488	-3.60107e-06
2377.98	0.544342	3.27759e-05
2378.82	0.542938	-1.58691e-06
2379.72	0.543304	-2.62451e-06
2380.62	0.543915	2.36206e-05
2381.48	-0.696228	-0.0209595
2382.36	0.543427	-1.2207e-06
2383.26	0.543427	1.66016e-05
2384.12	-0.69696	-0.0144897
2385	0.542938	-1.09863e-06
2385.9	0.543884	8.54492e-06
2386.78	0.0014679	0.00789795
2387.64	0.543213	-1.70898e-06
2388.54	0.542755	1.171875E-05
2389.42	0.00100098	0.00527863
2390.28	0.543457	-3.35693e-06
2391.18	0.542938	7.38525e-06
2392.08	0.543182	0.0151276
2392.92	0.543335	-4.76074e-06
2393.82	0.543518	3.41797e-06
2394.72	0.544617	0.00318695
2395.56	0.543213	-3.05176e-08
2396.46	0.54306	4.42505e-06
2397.36	0.54425	0.000279144
2398.2	0.543915	-6.01196e-06
2399.1	0.544525	-6.83594e-06
2400	0.544128	0.000115753
2400.84	0.543762	-8.27026e-06
2401.74	0.543152	7.32422e-07
2402.64	0.543213	6.67114e-05
2403.48	0.542755	-9.15527e-08
2404.38	0.544342	-6.31714e-06
2405.28	0.542816	4.35181e-05
2406.12	0.542908	-3.08228e-06
2407.02	0.542969	6.40869e-07
2407.92	0.542786	2.93884e-05
2408.78	-0.697968	-0.0210205
2409.66	0.543213	-8.8501e-07
2410.56	0.544342	1.11694e-05
2411.42	-0.696838	-0.014563
2412.3	0.543121	-6.10352e-07
2413.2	0.543182	1.474e-05
2414.08	0.00118103	0.00785522
2414.94	0.543091	-2.74658e-07
2415.84	0.543152	1.07422e-05
2416.72	0.000924683	0.0052655
2417.58	0.544403	-9.30786e-06
2418.48	0.544128	2.28882e-06
2419.38	0.543121	0.0151703
2420.22	0.542847	6.40869e-07
2421.12	0.543671	3.05176e-07
2422.02	0.544617	0.00385864
2422.86	0.543518	-2.50244e-06
2423.76	0.543915	1.52588e-07
2424.66	0.542847	0.000294464
2425.5	0.544434	-1.06812e-05
2426.4	0.544586	-3.78418e-06
2427.3	0.544403	0.000114777
2428.14	0.542877	-1.12915e-06
2429.04	0.544281	-5.40161e-06
2429.94	0.543365	6.38123e-05
2430.78	0.542847	6.10352e-08
2431.68	0.544281	-5.88989e-06
2432.58	0.543671	3.70178e-05
2433.42	0.543884	-8.57544e-06
2434.32	0.543091	1.58691e-06
2435.22	0.542755	2.77405e-05
2436.08	-0.696503	-0.02109375
2436.96	0.54361	-5.49316e-06
2437.86	0.54422	1.15051e-05
2438.72	-0.698151	-0.0146271
2439.6	0.543274	-3.72314e-06
2440.5	0.543335	1.22375e-05
2441.38	0.000274658	0.00779724
2442.24	0.54303	-1.12915e-06
2443.14	0.543762	5.15747e-06
2444.02	0.00149231	0.00524231
2444.88	0.544556	-1.08337e-05
2445.78	0.543671	2.74658e-06
2446.68	0.54364	0.015213
2447.52	0.542938	5.49316e-07
2448.42	0.544464	-4.97437e-06
2449.32	0.542999	0.00472321
2450.16	0.542877	-1.52588e-07
2451.06	0.543243	1.89209e-06
2451.96	0.542786	0.000301483
2452.8	0.544159	-9.97925e-06
2453.7	0.544373	-6.5918e-06
2454.6	0.543152	0.000126617
2455.44	0.542908	-3.05176e-07
2456.34	0.542999	1.67847e-06
2457.24	0.543488	6.79321e-05
2458.08	0.54364	-7.62939e-06
2458.98	0.543732	-4.94385e-06
2459.88	0.544312	3.52478e-05
2460.72	0.542908	-7.93457e-07
2461.62	0.542877	2.50244e-06
2462.52	0.543823	2.31934e-05
2463.38	-0.69754	-0.0211456
2464.26	0.542847	1.64795e-06
2465.16	0.543182	1.9928e-05
2466.02	-0.69812	-0.0147034
2466.9	0.543274	-2.44141e-06
2467.8	0.543182	1.3092e-05
2468.68	0.00147705	0.00776062
2469.54	0.543884	-3.08228e-06
2470.44	0.54422	3.9978e-06
2471.32	0.00202637	0.00522095
2472.18	0.544281	-9.8877e-06
2473.08	0.542999	7.72095e-06
2473.98	0.542603	0.015274
2474.82	0.542969	5.49316e-07
2475.72	0.544159	-2.80762e-06
2476.62	0.542969	0.00537079
2477.46	0.544373	-8.69751e-06
2478.36	0.543701	-7.32422e-07
2479.26	0.544373	0.000300934
2480.1	0.543091	3.05176e-08
2481	0.543823	-1.89209e-06
2481.9	0.544281	0.000121277
2482.74	0.543335	-2.50244e-06
2483.64	0.543274	1.06812e-06
2484.54	0.542786	7.36084e-05
2485.38	0.542969	-3.05176e-07
2486.28	0.542877	3.14331e-06
2487.18	0.542847	4.44946e-05
2488.02	0.544434	-1.10779e-05
2488.92	0.54425	-5.27954e-06
2489.82	0.54422	2.1637e-05
2490.68	-0.697754	-0.0211945
2491.56	0.542755	1.95313e-06
2492.46	0.544342	1.26343e-05
2493.32	-0.698059	-0.0147797
2494.2	0.542877	1.09863e-06
2495.1	0.544128	9.00269e-06
2495.98	0.000720215	0.00772705
2496.84	0.543274	-4.57764e-06
2497.74	0.544342	2.28882e-06
2498.62	0.00115356	0.00520386
2499.48	0.542877	-4.88281e-07
2500.38	0.543488	5.27954e-06
2501.28	0.541992	0.0153107
2502.12	0.542786	2.13623e-06
2503.02	0.544373	-1.34277e-06
2503.92	0.544312	0.00596527
2504.76	0.543304	-4.94385e-06
2505.66	0.54422	-2.2583e-06
2506.56	0.542938	0.000317261
2507.4	0.544434	-9.91821e-06
2508.3	0.543762	1.0376e-06
2509.2	0.542786	0.000133026
2510.04	0.543365	-4.36401e-06
2510.94	0.544067	-5.00488e-06
2511.84	0.544189	6.48499e-05
2512.68	0.543549	-6.28662e-06
2513.58	0.544037	-4.36401e-06
2514.48	0.544525	3.36914e-05
2515.32	0.543243	-3.9978e-06
2516.22	0.54303	-4.88281e-07
2517.12	0.542969	2.948e-05
2517.98	-0.696503	-0.0212921
2518.86	0.543518	-3.9978e-06
2519.76	0.542755	2.19421e-05
2520.62	-0.696655	-0.0148865
2521.5	0.544342	-8.45337e-06
2522.4	0.543213	1.50757e-05
2523.28	0.000436401	0.00768127
2524.14	0.544006	-8.39233e-06
2525.04	0.544281	2.99072e-06
2525.92	0.000668335	0.00519501
2526.78	0.544464	-9.85718e-06
2527.68	0.542969	7.87354e-06
2528.58	0.542175	0.0153656
2529.42	0.544128	-1.04675e-05
2530.32	0.543732	-3.05176e-07
2531.22	0.544098	0.0063974
2532.06	0.544189	-8.30078e-06
2532.96	0.542877	5.43213e-06
2533.86	0.542999	0.000323853
2534.7	0.544281	-9.8877e-06
2535.6	0.544434	-5.12695e-06
2536.5	0.542755	0.000135437
2537.34	0.544525	-1.25732e-05
2538.24	0.54303	3.17383e-06
2539.14	0.543884	6.52161e-05
2539.98	0.544281	-9.67407e-06
2540.88	0.54425	-6.68335e-06
2541.78	0.543213	4.20532e-05
2542.62	0.544464	-1.16882e-05
2543.52	0.543884	-4.11987e-06
2544.42	0.543396	2.3468e-05
2545.28	-0.696381	-0.0213562
2546.16	0.542908	1.70898e-06
2547.06	0.543213	2.08435e-05
2547.92	-0.697845	-0.0149506
2548.8	0.54303	1.34277e-06
2549.7	0.544128	7.04956e-06
2550.58	0.00157471	0.00762939
2551.44	0.544434	-9.33838e-06
2552.34	0.543365	8.45337e-06
2553.22	0.00200806	0.00516479
2554.08	0.543518	-1.37329e-06
2554.98	0.544312	-3.05176e-08
2555.88	0.543365	0.0153992
2556.72	0.542908	-8.23975e-07
2557.62	0.542786	8.5144e-06
2558.52	0.543549	0.00674988
2559.36	0.543823	-5.7373e-06
2560.26	0.544281	-2.04468e-06
2561.16	0.544403	0.000321838
2562	0.543823	-5.58472e-06
2562.9	0.544006	-3.78418e-06
2563.8	0.542694	0.000136902
2564.64	0.543213	-3.05176e-06
2565.54	0.543915	-6.86646e-06
2566.44	0.544312	6.57349e-05
2567.28	0.544373	-1.02844e-05
2568.18	0.543762	-3.23486e-06
2569.08	0.543579	4.21143e-05
2569.92	0.542847	-6.10352e-07
2570.82	0.543945	-7.23267e-06
2571.72	0.544342	2.19116e-05
2572.58	-0.697815	-0.0214203
2573.46	0.54425	-8.39233e-06
2574.36	0.54425	1.3092e-05
2575.22	-0.696777	-0.0150269
2576.1	0.542816	9.46045e-07
2577	0.543457	1.19629e-05
2577.88	0.00149536	0.00757446
2578.74	0.543335	-2.62451e-06
2579.64	0.542847	1.20544e-05
2580.52	0.000479126	0.00515228
2581.38	0.542786	1.12915e-06
2582.28	0.544403	-1.49536e-06
2583.18	0.54361	0.0154236
2584.02	0.544159	-6.95801e-06
2584.92	0.542969	7.38525e-06
2585.82	0.542908	0.00703094
2586.66	0.543549	-4.57764e-06
2587.56	0.542847	7.32422e-06
2588.46	0.54303	0.000340576
2589.3	0.542816	-1.0376e-06
2590.2	0.544312	-4.27246e-06
2591.1	0.542908	0.000139404
2591.94	0.543518	-3.87573e-06
2592.84	0.543488	-1.40381e-06
2593.74	0.543915	7.11365e-05
2594.58	0.543854	-6.22559e-06
2595.48	0.543915	-4.30298e-06
2596.38	0.544464	3.72314e-05
2597.22	0.543304	-3.96729e-06
2598.12	0.543915	-4.5166e-06
2599.02	0.543304	2.88696e-05
2599.88	-0.697968	-0.0214752
2600.76	0.542938	1.12915e-06
2601.66	0.544006	1.54419e-05
2602.52	-0.697937	-0.0151154
2603.4	0.542816	2.50244e-06
2604.3	0.543121	1.651e-05
2605.18	0.00169678	0.00754395
2606.04	0.543152	-1.31226e-06
2606.94	0.543152	1.07117e-05
2607.82	0.000546265	0.00513428
2608.68	0.542969	-6.71387e-07
2609.58	0.543396	7.14111e-06
2610.48	0.543732	0.0154694
2611.32	0.543671	-3.8147e-06
2612.22	0.543365	4.79126e-06
2613.12	0.542908	0.00729034
2613.96	0.544403	-1.09863e-05
2614.86	0.544159	-1.2207e-06
2615.76	0.543518	0.000348236
2616.6	0.542877	7.62939e-07
2617.5	0.543091	3.14331e-06
2618.4	0.544403	0.000131531
2619.24	0.542908	-1.5564e-06
2620.14	0.544159	-4.02832e-06
2621.04	0.542786	7.88269e-05
2621.88	0.542938	-2.71606e-06
2622.78	0.542847	3.60107e-06
2623.68	0.542755	4.90723e-05
2624.52	0.542877	-4.27246e-07
2625.42	0.544312	-5.49316e-06
2626.32	0.543976	2.49329e-05
2627.18	-0.697906	-0.0215393
2628.06	0.544067	-6.19507e-06
2628.96	0.544373	1.26343e-05
2629.82	-0.697418	-0.0151978
2630.7	0.544037	-6.22559e-06
2631.6	0.544342	8.02612e-06
2632.48	0.000518799	0.00749817
2633.34	0.542938	3.66211e-07
2634.24	0.543549	8.94165e-06
2635.12	0.000775146	0.00509918
2635.98	0.543152	-1.61743e-06
2636.88	0.544403	-3.05176e-07
2637.78	0.54303	0.015506
2638.62	0.543488	-4.27246e-06
2639.52	0.542908	9.64355e-06
2640.42	0.542938	0.00752563
2641.26	0.543091	1.52588e-07
2642.16	0.544098	-7.62939e-07
2643.06	0.54422	0.000350311
2643.9	0.543915	-6.16455e-06
2644.8	0.544312	-4.57764e-06
2645.7	0.543854	0.000137146
2646.54	0.543457	-4.27246e-06
2647.44	0.544006	-1.67847e-06
2648.34	0.54425	6.93359e-05
2649.18	0.543701	-3.479e-06
2650.08	0.544434	-6.62231e-06
2650.98	0.54303	4.63562e-05
2651.82	0.542786	-5.18799e-07
2652.72	0.543182	-1.95313e-06
2653.62	0.544403	2.09961e-05
2654.48	-0.697906	-0.021579
2655.36	0.543701	-2.74658e-07
2656.26	0.544128	1.32446e-05
2657.12	-0.698273	-0.0152588
2658	0.542816	1.70898e-06
2658.9	0.542877	1.78528e-05
2659.78	0.00132751	0.00744629
2660.64	0.544464	-8.81958e-06
2661.54	0.544464	2.47192e-06
2662.42	0.000543213	0.00507874
2663.28	0.543823	-5.43213e-06
2664.18	0.543945	1.77002e-06
2665.08	0.543213	0.0155304
2665.92	0.542877	6.10352e-08
2666.82	0.544128	-2.41089e-06
2667.72	0.543732	0.00771484
2668.56	0.544159	-8.05664e-06
2669.46	0.542847	6.56128e-06
2670.36	0.544434	0.000360779
2671.2	0.544037	-9.61304e-06
2672.1	0.542908	6.01196e-06
2673	0.542938	0.000147858
2673.84	0.542908	-1.5564e-06
2674.74	0.544281	-7.1106e-06
2675.64	0.543091	8.00171e-05
2676.48	0.543549	-5.0354e-06
2677.38	0.543274	1.58691e-06
2678.28	0.542908	4.88281e-05
2679.12	0.544434	-1.16272e-05
2680.02	0.54425	-5.18799e-06
2680.92	0.542938	3.3844e-05
2681.78	-0.696686	-0.0216553
2682.66	0.543945	-4.15039e-06
2683.56	0.543304	1.94397e-05
2684.42	-0.696838	-0.0153625
2685.3	0.544067	-6.86646e-06
2686.2	0.54303	1.57166e-05
2687.08	0.00188904	0.00740021
2687.94	0.544403	-1.0498e-05
2688.84	0.543427	8.08716e-06
2689.72	0.00179749	0.00505798
2690.58	0.543671	-3.8147e-06
2691.48	0.544434	9.15527e-08
2692.38	0.542999	0.0155731
2693.22	0.543854	-6.04248e-06
2694.12	0.54364	4.18091e-06
2695.02	0.542725	0.00791931
2695.86	0.542969	-6.10352e-07
2696.76	0.542938	5.61523e-06
2697.66	0.542755	0.000380096
2698.5	0.542908	-3.35693e-07
2699.4	0.544189	-3.66211e-06
2700.3	0.543304	0.000146393
2701.14	0.543396	-3.05176e-06
2702.04	0.542725	2.16675e-06
2702.94	0.544189	7.07397e-05
2703.78	0.543335	-4.97437e-06
2704.68	0.543121	1.86157e-06
2705.58	0.542877	5.05981e-05
2706.42	0.54425	-9.0332e-06
2707.32	0.54306	1.09863e-06
2708.22	0.544006	2.67029e-05
2709.08	-0.696564	-0.0217133
2709.96	0.543854	-6.53076e-06
2710.86	0.542999	2.23389e-05
2711.72	-0.697144	-0.0154236
2712.6	0.54425	-5.85937e-06
2713.5	0.543243	1.61438e-05
2714.38	0.000961304	0.00735229
2715.24	0.543335	-4.3335e-06
2716.14	0.544434	4.54712e-06
2717.02	0.00201416	0.0050296
2717.88	0.543121	-1.2207e-06
2718.78	0.544434	1.34277e-06
2719.68	0.542847	0.0156036
2720.52	0.544312	-8.23975e-06
2721.42	0.543213	6.86646e-06
2722.32	0.543335	0.00810547
2723.16	0.544556	-1.08032e-05
2724.06	0.542877	5.46265e-06
2724.96	0.543671	0.000389923
2725.8	0.54364	-6.22559e-06
2726.7	0.543915	-7.62939e-07
2727.6	0.542877	0.000151855
2728.44	0.544373	-1.2085e-05
2729.34	0.542908	5.24902e-06
2730.24	0.544342	7.21741e-05
2731.08	0.543976	-9.765625E-06
2731.98	0.543488	-4.18091e-06
2732.88	0.542847	5.10559e-05
2733.72	0.543213	-2.38037e-06
2734.62	0.543243	9.15527e-07
2735.52	0.544434	2.37427e-05
2736.38	-0.696655	-0.021759
2737.26	0.542938	1.40381e-06
2738.16	0.542908	2.41394e-05
2739.02	-0.697174	-0.0155029
2739.9	0.544495	-9.0332e-06
2740.8	0.544525	6.65283e-06
2741.68	0.000292969	0.0073053
2742.54	0.54425	-8.17871e-06
2743.44	0.542938	1.34277e-05
2744.32	0.00176086	0.00499908
2745.18	0.543213	6.71387e-07
2746.08	0.543823	4.57764e-06
2746.98	0.543579	0.0156219
2747.82	0.542755	-3.05176e-07
2748.72	0.543518	8.17871e-06
2749.62	0.544006	0.00826416
2750.46	0.544403	-1.14746e-05
2751.36	0.544373	-4.08936e-06
2752.26	0.54364	0.000398621
2753.1	0.543152	-1.98364e-06
2754	0.544434	-4.54712e-06
2754.9	0.542908	0.000155609
2755.74	0.543671	-3.66211e-06
2756.64	0.542816	5.76782e-06
2757.54	0.54364	7.4707e-05
2758.38	0.542847	-5.49316e-07
2759.28	0.544403	-5.88989e-06
2760.18	0.542908	5.16663e-05
2761.02	0.543121	-2.99072e-06
2761.92	0.544189	-4.69971e-06
2762.82	0.544312	2.53601e-05
2763.68	-0.69635	-0.0218109
2764.56	0.542847	2.01416e-06
2765.46	0.54425	1.48926e-05
2766.32	-0.69812	-0.015564
2767.2	0.543518	-3.90625e-06
2768.1	0.544373	8.54492e-06
2768.98	0.00131531	0.00725708
2769.84	0.544128	-7.56836e-06
2770.74	0.544189	5.92041e-06
2771.62	0.00117798	0.00497681
2772.48	0.544373	-7.56836e-06
2773.38	0.543823	2.34985e-06
2774.28	0.542694	0.0156586
2775.12	0.544159	-7.35474e-06
2776.02	0.544495	-2.56348e-06
2776.92	0.543152	0.0084137
2777.76	0.54422	-8.57544e-06
2778.66	0.543945	-1.31226e-06
2779.56	0.542908	0.000416382
2780.4	0.543396	-3.54004e-06
2781.3	0.543549	2.13623e-07
2782.2	0.544006	0.000150726
2783.04	0.543121	-1.25122e-06
2783.94	0.544067	-2.92969e-06
2784.84	0.543976	7.6355e-05
2785.68	0.544373	-1.171875E-05
2786.58	0.544098	-4.54712e-06
2787.48	0.543915	4.45557e-05
2788.32	0.544373	-1.18103e-05
2789.22	0.54361	-1.98364e-06
2790.12	0.543152	3.33862e-05
2790.98	-0.696747	-0.0218475
2791.86	0.544434	-6.92749e-06
2792.76	0.543182	2.31934e-05
2793.62	-0.69693	-0.0156372
2794.5	0.544159	-8.66699e-06
2795.4	0.544159	9.79614e-06
2796.28	0.000662231	0.00720215
2797.14	0.544403	-9.58252e-06
2798.04	0.543457	1.10779e-05
2798.92	0.000466919	0.00494781
2799.78	0.542725	1.40381e-06
2800.68	0.54425	-5.18799e-07
2801.58	0.542084	0.015683
2802.42	0.543121	-1.64795e-06
2803.32	0.542786	8.45337e-06
2804.22	0.542603	0.00858459
2805.06	0.542938	-2.71606e-06
2805.96	0.543152	1.61743e-06
2806.86	0.544495	0.000421478
2807.7	0.544403	-1.0376e-05
2807.84	0.544403	-1.23291e-05