File: Edgar/20240508/20240508/electrodeposition_pulsed_potential_20240508_A/pulses_3000_to_4000.txt
Time (s)	WE(1).Potential (V)	WE(1).Current (A)
4156.48	-0.697327	-0.0233124
4157.36	0.543213	-1.25122e-06
4158.26	0.544403	3.38135e-05
4159.12	-0.698029	-0.0184357
4160	0.543274	8.54492e-07
4160.9	0.543701	2.51465e-05
4161.78	0.0019104	0.0048111
4162.64	0.543823	-4.39453e-06
4163.54	0.54303	2.13318e-05
4164.42	0.000521851	0.00330994
4165.28	0.543396	-3.66211e-06
4166.18	0.543915	9.27734e-06
4167.08	0.543457	0.0159271
4167.92	0.542969	3.66211e-07
4168.82	0.542938	1.31531e-05
4169.72	0.542847	0.0115417
4170.56	0.542908	-3.05176e-08
4171.46	0.543121	9.64355e-06
4172.36	0.544312	0.00622894
4173.2	0.544189	-8.23975e-06
4174.1	0.54306	8.39233e-06
4175	0.543732	0.00062439
4175.84	0.542816	1.31226e-06
4176.74	0.543671	3.20435e-06
4177.64	0.54361	0.000225403
4178.48	0.543304	-3.8147e-06
4179.38	0.542969	2.56348e-06
4180.28	0.544434	0.000107117
4181.12	0.543152	-3.14331e-06
4182.02	0.542938	4.88281e-06
4182.92	0.542755	7.08923e-05
4183.78	-0.696472	-0.0234161
4184.66	0.543335	2.44141e-07
4185.56	0.542938	4.61426e-05
4186.42	-0.69693	-0.0184479
4187.3	0.542786	4.27246e-06
4188.2	0.544403	2.28577e-05
4189.08	0.00138245	0.00480438
4189.94	0.544067	-5.34058e-06
4190.84	0.544128	1.42212e-05
4191.72	0.000537109	0.00332428
4192.58	0.54303	1.46484e-06
4193.48	0.542877	1.71814e-05
4194.38	0.542419	0.0159515
4195.22	0.543701	-6.83594e-06
4196.12	0.542999	1.40991e-05
4197.02	0.542328	0.0115997
4197.86	0.543427	-1.7395e-06
4198.76	0.543396	9.67407e-06
4199.66	0.54306	0.00644104
4200.5	0.544006	-7.35474e-06
4201.4	0.543396	5.92041e-06
4202.3	0.543091	0.000656128
4203.14	0.542908	2.04468e-06
4204.04	0.543518	3.14331e-06
4204.94	0.543854	0.000229492
4205.78	0.543793	-6.62231e-06
4206.68	0.543518	3.23486e-06
4207.58	0.543243	0.000115356
4208.42	0.543457	-3.38745e-06
4209.32	0.543884	-1.98364e-06
4210.22	0.543793	6.427e-05
4211.08	-0.696777	-0.0234192
4211.96	0.543915	-2.31934e-06
4212.86	0.542908	4.52271e-05
4213.72	-0.697327	-0.0184814
4214.6	0.544373	-6.34766e-06
4215.5	0.543671	2.74353e-05
4216.38	0.00187988	0.00477142
4217.24	0.54303	1.58691e-06
4218.14	0.544434	1.28479e-05
4219.02	0.00189514	0.00329742
4219.88	0.542847	9.46045e-07
4220.78	0.54306	1.68457e-05
4221.68	0.542053	0.0159729
4222.52	0.543823	-3.05176e-06
4223.42	0.544373	5.21851e-06
4224.32	0.543579	0.0116272
4225.16	0.542847	2.04468e-06
4226.06	0.543915	5.00488e-06
4226.96	0.544312	0.0065802
4227.8	0.543823	-3.84521e-06
4228.7	0.543976	2.10571e-06
4229.6	0.543823	0.000670776
4230.44	0.542847	1.52588e-06
4231.34	0.542786	8.88062e-06
4232.24	0.542847	0.000241302
4233.08	0.543335	-3.9978e-06
4233.98	0.542877	6.83594e-06
4234.88	0.542816	0.000120636
4235.72	0.543671	-2.19727e-06
4236.62	0.542938	6.073e-06
4237.52	0.542969	7.04651e-05
4238.38	-0.696106	-0.0234619
4239.26	0.544098	-5.09644e-06
4240.16	0.544189	3.70178e-05
4241.02	-0.697449	-0.0185333
4241.9	0.543274	2.19727e-06
4242.8	0.543976	2.33765e-05
4243.68	0.0014801	0.00474274
4244.54	0.542908	3.84521e-06
4245.44	0.542938	2.29797e-05
4246.32	0.0010437	0.00328979
4247.18	0.542938	3.26538e-06
4248.08	0.543091	1.67236e-05
4248.98	0.543579	0.0159882
4249.82	0.543365	2.74658e-07
4250.72	0.544067	6.74438e-06
4251.62	0.542389	0.0116669
4252.46	0.544434	-7.8125e-06
4253.36	0.54422	3.63159e-06
4254.26	0.543427	0.00672882
4255.1	0.544403	-8.45337e-06
4256	0.54364	5.00488e-06
4256.9	0.543213	0.000699768
4257.74	0.54306	4.57764e-07
4258.64	0.544403	-2.56348e-06
4259.54	0.543427	0.000246582
4260.38	0.544281	-6.7749e-06
4261.28	0.543518	1.09863e-06
4262.18	0.543304	0.000118439
4263.02	0.54422	-8.20923e-06
4263.92	0.543121	5.09644e-06
4264.82	0.543793	6.54907e-05
4265.68	-0.696136	-0.0234985
4266.56	0.544403	-6.16455e-06
4267.46	0.543549	4.22668e-05
4268.32	-0.696625	-0.0185852
4269.2	0.543579	-2.71606e-06
4270.1	0.543976	2.4231e-05
4270.98	0.000842285	0.00470917
4271.84	0.543549	-1.52588e-06
4272.74	0.544403	1.36108e-05
4273.62	0.000991821	0.00326416
4274.48	0.54364	-8.23975e-07
4275.38	0.544006	9.46045e-06
4276.28	0.543671	0.0159912
4277.12	0.544037	-3.66211e-06
4278.02	0.543976	5.64575e-06
4278.92	0.543793	0.0116852
4279.76	0.54303	8.54492e-07
4280.66	0.542969	8.97217e-06
4281.56	0.544006	0.00683472
4282.4	0.544342	-8.36182e-06
4283.3	0.544434	-1.61743e-06
4284.2	0.544403	0.000716553
4285.04	0.543427	-4.05884e-06
4285.94	0.544403	-3.14331e-06
4286.84	0.544403	0.000245636
4287.68	0.542938	-4.88281e-07
4288.58	0.54303	6.01196e-06
4289.48	0.543762	0.00011853
4290.32	0.542847	-6.10352e-08
4291.22	0.544281	-5.70679e-06
4292.12	0.544312	6.55823e-05
4292.98	-0.697662	-0.0235077
4293.86	0.543823	-4.60815e-06
4294.76	0.542908	4.7821e-05
4295.62	-0.698059	-0.0186127
4296.5	0.54306	3.96729e-07
4297.4	0.544067	2.3468e-05
4298.28	0.000839233	0.00467255
4299.14	0.543518	-1.09863e-06
4300.04	0.542816	2.43225e-05
4300.92	0.00085144	0.00324402
4301.78	0.543091	-1.46484e-06
4302.68	0.543182	1.57776e-05
4303.58	0.542023	0.0160065
4304.42	0.544403	-7.50732e-06
4305.32	0.544495	3.2959e-06
4306.22	0.543396	0.0117126
4307.06	0.543274	-2.38037e-06
4307.96	0.542999	1.06506e-05
4308.86	0.542755	0.00693878
4309.7	0.543823	-5.06592e-06
4310.6	0.542816	8.48389e-06
4311.5	0.544312	0.00073761
4312.34	0.542999	2.74658e-07
4313.24	0.54361	9.15527e-07
4314.14	0.544098	0.000257202
4314.98	0.543854	-9.49097e-06
4315.88	0.543549	9.15527e-07
4316.78	0.544434	0.000117493
4317.62	0.542908	-4.27246e-07
4318.52	0.542999	3.66211e-06
4319.42	0.543793	6.92139e-05
4320.28	-0.696808	-0.0235291
4321.16	0.542908	3.11279e-06
4322.06	0.543121	4.9408e-05
4322.92	-0.697357	-0.0186462
4323.8	0.54306	3.96729e-07
4324.7	0.543182	3.32336e-05
4325.58	0.000534058	0.00463989
4326.44	0.544342	-6.01196e-06
4327.34	0.544495	1.45569e-05
4328.22	0.00178223	0.0032077
4329.08	0.543335	-7.93457e-07
4329.98	0.544067	1.0498e-05
4330.88	0.542389	0.0160095
4331.72	0.544403	-8.63647e-06
4332.62	0.542877	1.43433e-05
4333.52	0.542694	0.0117401
4334.36	0.544342	-9.552e-06
4335.26	0.544403	2.56348e-06
4336.16	0.543488	0.00701019
4337	0.543488	-5.24902e-06
4337.9	0.544342	1.2207e-07
4338.8	0.544312	0.000758362
4339.64	0.543365	-2.47192e-06
4340.54	0.54303	7.69043e-06
4341.44	0.543793	0.000262665
4342.28	0.542969	0
4343.18	0.544006	-3.05176e-08
4344.08	0.542969	0.00012912
4344.92	0.543671	-7.04956e-06
4345.82	0.543945	-1.34277e-06
4346.72	0.542877	7.70264e-05
4347.58	-0.697174	-0.0235321
4348.46	0.543671	-9.15527e-08
4349.36	0.544525	4.00085e-05
4350.22	-0.696503	-0.0186768
4351.1	0.544098	-5.70679e-06
4352	0.54361	2.93884e-05
4352.88	0.00181274	0.00459961
4353.74	0.543823	-7.62939e-07
4354.64	0.543304	2.39563e-05
4355.52	0.000582886	0.00319977
4356.38	0.543427	-1.70898e-06
4357.28	0.543274	1.63269e-05
4358.18	0.542633	0.0160065
4359.02	0.544403	-7.78198e-06
4359.92	0.544098	7.87354e-06
4360.82	0.543823	0.0117493
4361.66	0.54303	-9.15527e-07
4362.56	0.544434	7.62939e-07
4363.46	0.542633	0.00710236
4364.3	0.54303	2.44141e-07
4365.2	0.544403	-3.35693e-07
4366.1	0.543152	0.000785828
4366.94	0.542969	-1.2207e-06
4367.84	0.543884	1.00708e-06
4368.74	0.542969	0.000273926
4369.58	0.54422	-7.75146e-06
4370.48	0.543121	4.24194e-06
4371.38	0.544189	0.000123138
4372.22	0.54306	-2.10571e-06
4373.12	0.544067	-1.77002e-06
4374.02	0.544312	6.7627e-05
4374.88	-0.697571	-0.0235535
4375.76	0.544495	-5.95093e-06
4376.66	0.543915	4.44031e-05
4377.52	-0.697021	-0.0187073
4378.4	0.544403	-6.19507e-06
4379.3	0.543915	2.6947e-05
4380.18	0.00141602	0.00456604
4381.04	0.543091	3.05176e-08
4381.94	0.543427	2.00195e-05
4382.82	0.00141907	0.00317017
4383.68	0.544312	-6.13403e-06
4384.58	0.542999	1.61438e-05
4385.48	0.54248	0.0160004
4386.32	0.54422	-5.85937e-06
4387.22	0.543488	1.11084e-05
4388.12	0.543457	0.0117706
4388.96	0.543884	-3.63159e-06
4389.86	0.543579	5.85937e-06
4390.76	0.543427	0.00717682
4391.6	0.544159	-6.95801e-06
4392.5	0.542847	9.24683e-06
4393.4	0.544434	0.000802002
4394.24	0.543518	-1.37329e-06
4395.14	0.543182	4.27246e-06
4396.04	0.544403	0.000269592
4396.88	0.544312	-8.94165e-06
4397.78	0.542938	7.14111e-06
4398.68	0.544281	0.000125305
4399.52	0.544403	-9.15527e-06
4400.42	0.54303	2.50244e-06
4401.32	0.544159	6.95801e-05
4402.18	-0.697632	-0.0235657
4403.06	0.543823	-9.76562e-07
4403.96	0.544312	4.19922e-05
4404.82	-0.696625	-0.01875
4405.7	0.544373	-6.22559e-06
4406.6	0.544342	2.37732e-05
4407.48	0.00144348	0.00453644
4408.34	0.542908	2.41089e-06
4409.24	0.543091	2.27966e-05
4410.12	0.00155334	0.00314514
4410.98	0.544434	-7.8125e-06
4411.88	0.543945	1.15356e-05
4412.78	0.543121	0.0159943
4413.62	0.542969	1.25122e-06
4414.52	0.543854	6.95801e-06
4415.42	0.542206	0.0118103
4416.26	0.544403	-8.23975e-06
4417.16	0.542908	1.11084e-05
4418.06	0.543121	0.00725494
4418.9	0.543976	-4.08936e-06
4419.8	0.543213	6.16455e-06
4420.7	0.544434	0.000826111
4421.54	0.542877	1.06812e-06
4422.44	0.543182	5.76782e-06
4423.34	0.543884	0.000279633
4424.18	0.543854	-5.00488e-06
4425.08	0.544434	-4.79126e-06
4425.98	0.543396	0.000134155
4426.82	0.544342	-8.05664e-06
4427.72	0.544403	-4.42505e-06
4428.62	0.544189	7.24792e-05
4429.48	-0.697144	-0.0235931
4430.36	0.544373	-6.13403e-06
4431.26	0.543945	4.47998e-05
4432.12	-0.696442	-0.0188141
4433	0.543121	2.38037e-06
4433.9	0.544464	2.48718e-05
4434.78	0.000985718	0.00450958
4435.64	0.543854	-4.08936e-06
4436.54	0.542816	2.50244e-05
4437.42	0.00201416	0.00311859
4438.28	0.543457	-2.47192e-06
4439.18	0.544159	1.01929e-05
4440.08	0.542755	0.0160004
4440.92	0.544312	-6.80542e-06
4441.82	0.54361	1.00708e-05
4442.72	0.543091	0.0118225
4443.56	0.542938	2.44141e-06
4444.46	0.543365	8.08716e-06
4445.36	0.543884	0.00731384
4446.2	0.543518	-2.62451e-06
4447.1	0.543365	5.88989e-06
4448	0.54425	0.000845032
4448.84	0.544342	-8.97217e-06
4449.74	0.544189	-1.2207e-06
4450.64	0.543152	0.00029184
4451.48	0.543091	-7.93457e-07
4452.38	0.544464	-3.32642e-06
4453.28	0.542999	0.000140472
4454.12	0.543243	-1.37329e-06
4455.02	0.54422	-3.78418e-06
4455.92	0.543091	7.95593e-05
4456.78	-0.696625	-0.0236176
4457.66	0.543488	-1.0376e-06
4458.56	0.543518	4.97131e-05
4459.42	-0.697784	-0.0188141
4460.3	0.544037	-3.26538e-06
4461.2	0.543365	3.07922e-05
4462.08	0.00093689	0.00447357
4462.94	0.543274	3.96729e-07
4463.84	0.543091	2.41699e-05
4464.72	0.00132141	0.00309784
4465.58	0.543304	-1.2207e-07
4466.48	0.543152	1.74561e-05
4467.38	0.543518	0.0159943
4468.22	0.54361	-2.65503e-06
4469.12	0.543915	9.0332e-06
4470.02	0.542511	0.0118469
4470.86	0.543091	-2.2583e-06
4471.76	0.542969	1.15662e-05
4472.66	0.544128	0.00737854
4473.5	0.544189	-8.60596e-06
4474.4	0.542877	9.27734e-06
4475.3	0.543701	0.000872192
4476.14	0.542908	2.13623e-07
4477.04	0.542908	7.32422e-06
4477.94	0.544373	0.000291412
4478.78	0.543518	-3.479e-06
4479.68	0.543915	-2.47192e-06
4480.58	0.543304	0.000141022
4481.42	0.544128	-8.3313e-06
4482.32	0.544098	-2.16675e-06
4483.22	0.543488	7.89795e-05
4484.08	-0.697327	-0.0236359
4484.96	0.544037	-3.479e-06
4485.86	0.54361	4.84314e-05
4486.72	-0.697571	-0.0188629
4487.6	0.543579	-1.19019e-06
4488.5	0.543549	3.37524e-05
4489.38	0.00152588	0.00443237
4490.24	0.543549	-3.05176e-06
4491.14	0.54306	2.43835e-05
4492.02	0.000674438	0.00307709
4492.88	0.542938	2.31934e-06
4493.78	0.542999	1.72119e-05
4494.68	0.543396	0.0160034
4495.52	0.544403	-7.23267e-06
4496.42	0.543854	8.3313e-06
4497.32	0.54248	0.0118713
4498.16	0.544312	-7.59888e-06
4499.06	0.543182	1.06812e-05
4499.96	0.542725	0.00743927
4500.8	0.54425	-6.56128e-06
4501.7	0.543213	7.72095e-06
4502.6	0.54306	0.00089447
4503.44	0.54306	-7.93457e-07
4504.34	0.543762	2.80762e-06
4505.24	0.543762	0.000299347
4506.08	0.544037	-6.43921e-06
4506.98	0.54364	8.54492e-07
4507.88	0.543549	0.000140442
4508.72	0.543182	-3.96729e-06
4509.62	0.543518	3.96729e-07
4510.52	0.543152	8.31299e-05
4511.38	-0.697571	-0.0236816
4512.26	0.544373	-4.21143e-06
4513.16	0.543152	5.18799e-05
4514.02	-0.697449	-0.0189484
4514.9	0.543854	-1.7395e-06
4515.8	0.543976	2.96326e-05
4516.68	0.00174561	0.00441559
4517.54	0.543121	9.76562e-07
4518.44	0.543335	2.41089e-05
4519.32	0.00175781	0.00306213
4520.18	0.543427	-5.79834e-07
4521.08	0.543457	1.59607e-05
4521.98	0.54248	0.0160095
4522.82	0.543335	-3.57056e-06
4523.72	0.542969	1.47705e-05
4524.62	0.542603	0.0119049
4525.46	0.54303	5.18799e-07
4526.36	0.544434	1.61743e-06
4527.26	0.542603	0.00751343
4528.1	0.543701	-3.75366e-06
4529	0.54364	3.9978e-06
4529.9	0.543243	0.000918884
4530.74	0.544159	-7.59888e-06
4531.64	0.543274	7.69043e-06
4532.54	0.543091	0.000311371
4533.38	0.544067	-7.41577e-06
4534.28	0.544189	-1.12915e-06
4535.18	0.543518	0.00014505
4536.02	0.543701	-6.073e-06
4536.92	0.544342	-4.82178e-06
4537.82	0.543518	8.04443e-05
4538.68	-0.69751	-0.0236908
4539.56	0.542999	4.82178e-06
4540.46	0.543274	5.30396e-05
4541.32	-0.697327	-0.0189575
4542.2	0.544342	-5.88989e-06
4543.1	0.543152	3.52173e-05
4543.98	0.0015564	0.00438141
4544.84	0.543976	-3.479e-06
4545.74	0.544159	1.65405e-05
4546.62	0.000674438	0.00304169
4547.48	0.542847	3.17383e-06
4548.38	0.543762	1.33057e-05
4549.28	0.542389	0.0160217
4550.12	0.542847	2.71606e-06
4551.02	0.544189	4.45557e-06
4551.92	0.543304	0.011911
4552.76	0.543121	1.2207e-06
4553.66	0.542877	1.2085e-05
4554.56	0.54422	0.007547
4555.4	0.54303	3.05176e-08
4556.3	0.543304	4.88281e-06
4557.2	0.542847	0.000940247
4558.04	0.544312	-7.8125e-06
4558.94	0.544434	-1.89209e-06
4559.84	0.543671	0.000315094
4560.68	0.54361	-6.83594e-06
4561.58	0.543518	2.7771e-06
4562.48	0.544434	0.000139191
4563.32	0.544128	-7.44629e-06
4564.22	0.544403	-4.11987e-06
4565.12	0.543945	7.76672e-05
4565.98	-0.697266	-0.0236877
4566.86	0.543427	7.93457e-07
4567.76	0.54422	4.6814e-05
4568.62	-0.697296	-0.0189636
4569.5	0.543182	2.74658e-06
4570.4	0.543518	3.40576e-05
4571.28	0.000671387	0.00435425
4572.14	0.543396	3.96729e-07
4573.04	0.543976	1.94092e-05
4573.92	0.000930786	0.00301422
4574.78	0.543304	9.46045e-07
4575.68	0.543152	1.89514e-05
4576.58	0.543365	0.0160065
4577.42	0.543488	-1.61743e-06
4578.32	0.543854	8.66699e-06
4579.22	0.542755	0.0119202
4580.06	0.543243	-1.0376e-06
4580.96	0.543884	5.15747e-06
4581.86	0.542847	0.00759583
4582.7	0.544159	-7.17163e-06
4583.6	0.543365	5.92041e-06
4584.5	0.544128	0.000958252
4585.34	0.543701	-3.17383e-06
4586.24	0.543976	-3.05176e-08
4587.14	0.543518	0.000322388
4587.98	0.544128	-7.65991e-06
4588.88	0.543945	-8.8501e-07
4589.78	0.543518	0.000149048
4590.62	0.543793	-3.63159e-06
4591.52	0.544189	-3.2959e-06
4592.42	0.543793	8.05664e-05
4593.28	-0.696503	-0.0237061
4594.16	0.543121	2.83813e-06
4595.06	0.543091	5.48096e-05
4595.92	-0.69751	-0.0190063
4596.8	0.543457	-6.40869e-07
4597.7	0.544067	3.0304e-05
4598.58	0.000775146	0.00432922
4599.44	0.544342	-5.24902e-06
4600.34	0.543732	2.09961e-05
4601.22	0.000933838	0.00298981
4602.08	0.543457	-1.37329e-06
4602.98	0.544098	1.15967e-05
4603.88	0.543304	0.0160004
4604.72	0.543243	1.0376e-06
4605.62	0.54364	1.01013e-05
4606.52	0.542969	0.0119476
4607.36	0.543121	-2.13623e-07
4608.26	0.543091	1.17493e-05
4609.16	0.543243	0.00765381
4610	0.54361	-2.86865e-06
4610.9	0.542999	8.08716e-06
4611.8	0.543976	0.000979614
4612.64	0.543213	-1.80054e-06
4613.54	0.544556	-1.77002e-06
4614.44	0.544159	0.000323883
4615.28	0.544373	-9.58252e-06
4616.18	0.54303	4.18091e-06
4617.08	0.544067	0.000149597
4617.92	0.54303	-6.40869e-07
4618.82	0.543976	-8.8501e-07
4619.72	0.543823	8.28857e-05
4620.58	-0.69754	-0.0237061
4621.46	0.544281	-3.93677e-06
4622.36	0.542999	5.53284e-05
4623.22	-0.697906	-0.0190216
4624.1	0.542877	2.38037e-06
4625	0.543793	3.38135e-05
4625.88	0.00195007	0.00428528
4626.74	0.543091	2.2583e-06
4627.64	0.544403	1.84326e-05
4628.52	0.00127258	0.0029657
4629.38	0.542969	1.37329e-06
4630.28	0.544464	1.14441e-05
4631.18	0.542328	0.0159973
4632.02	0.543152	1.2207e-07
4632.92	0.542877	1.57166e-05
4633.82	0.542328	0.0119629
4634.66	0.54306	-1.06812e-06
4635.56	0.542877	1.2207e-05
4636.46	0.542572	0.00770874
4637.3	0.544128	-7.87354e-06
4638.2	0.543701	7.23267e-06
4639.1	0.54303	0.00101135
4639.94	0.542999	-3.66211e-07
4640.84	0.542908	8.05664e-06
4641.74	0.543732	0.000334656
4642.58	0.54361	-6.31714e-06
4643.48	0.543243	5.85937e-06
4644.38	0.544403	0.00015094
4645.22	0.544373	-1.06506e-05
4646.12	0.543243	3.57056e-06
4647.02	0.542877	9.04236e-05
4647.88	-0.696594	-0.0237427
4648.76	0.544098	-5.18799e-06
4649.66	0.542847	5.79834e-05
4650.52	-0.697723	-0.0190613
4651.4	0.543976	-2.68555e-06
4652.3	0.543121	3.92151e-05
4653.18	0.000738525	0.00426971
4654.04	0.542755	3.72314e-06
4654.94	0.543243	2.6001e-05
4655.82	0.0017395	0.00294922
4656.68	0.543396	-5.79834e-07
4657.58	0.543457	1.66626e-05
4658.48	0.543579	0.0159943
4659.32	0.54425	-6.98853e-06
4660.22	0.544403	5.98145e-06
4661.12	0.542358	0.0119781
4661.96	0.544373	-7.53784e-06
4662.86	0.542908	1.33057e-05
4663.76	0.542999	0.00776367
4664.6	0.544159	-7.8125e-06
4665.5	0.543854	4.54712e-06
4666.4	0.542847	0.00103455
4667.24	0.543152	-1.43433e-06
4668.14	0.543671	4.91333e-06
4669.04	0.542908	0.00034787
4669.88	0.543427	-4.57764e-06
4670.78	0.54303	6.01196e-06
4671.68	0.542877	0.000162964
4672.52	0.543365	-3.02124e-06
4673.42	0.544312	-4.85229e-06
4674.32	0.544495	8.18481e-05
4675.18	-0.69754	-0.0237335
4676.06	0.543457	2.16675e-06
4676.96	0.542908	5.84717e-05
4677.82	-0.696442	-0.0190796
4678.7	0.544067	-1.2207e-06
4679.6	0.542908	3.93372e-05
4680.48	0.00171509	0.00422913
4681.34	0.542938	2.34985e-06
4682.24	0.543884	2.19421e-05
4683.12	0.001297	0.00291992
4683.98	0.543457	-2.96021e-06
4684.88	0.54306	2.03857e-05
4685.78	0.543457	0.0159821
4686.62	0.544373	-6.65283e-06
4687.52	0.544067	7.59888e-06
4688.42	0.542358	0.0119904
4689.26	0.544464	-7.8125e-06
4690.16	0.54303	1.18408e-05
4691.06	0.543976	0.00777588
4691.9	0.543274	-1.09863e-06
4692.8	0.544342	5.18799e-07
4693.7	0.543182	0.00104797
4694.54	0.544189	-5.85937e-06
4695.44	0.544067	7.32422e-07
4696.34	0.544159	0.000345001
4697.18	0.542877	7.62939e-07
4698.08	0.543274	5.00488e-06
4698.98	0.544525	0.000155029
4699.82	0.543121	-7.62939e-07
4700.72	0.543243	2.99072e-06
4701.62	0.542908	9.32922e-05
4702.48	-0.697601	-0.0237152
4703.36	0.544434	-5.18799e-06
4704.26	0.544037	5.49011e-05
4705.12	-0.696869	-0.0190826
4706	0.543488	3.35693e-07
4706.9	0.543762	3.33862e-05
4707.78	0.00129089	0.00419983
4708.64	0.544403	-6.04248e-06
4709.54	0.544525	1.83716e-05
4710.42	0.000912476	0.00289978
4711.28	0.543365	-2.74658e-07
4712.18	0.54303	2.0752e-05
4713.08	0.542908	0.0159729
4713.92	0.542877	3.84521e-06
4714.82	0.542816	1.69983e-05
4715.72	0.543762	0.0119781
4716.56	0.543671	-2.68555e-06
4717.46	0.543549	8.81958e-06
4718.36	0.542542	0.00783691
4719.2	0.54361	-3.96729e-06
4720.1	0.542816	8.66699e-06
4721	0.54303	0.00108246
4721.84	0.543152	-1.46484e-06
4722.74	0.542908	9.21631e-06
4723.64	0.543182	0.000361298
4724.48	0.542969	-9.15527e-07
4725.38	0.544373	-3.32642e-06
4726.28	0.542877	0.000167908
4727.12	0.543671	-5.79834e-06
4728.02	0.543304	2.92969e-06
4728.92	0.543335	9.19495e-05
4729.78	-0.697388	-0.0237305
4730.66	0.544159	-4.11987e-06
4731.56	0.543335	5.6427e-05
4732.42	-0.697968	-0.0190948
4733.3	0.544434	-6.68335e-06
4734.2	0.542908	3.93677e-05
4735.08	0.00157166	0.00416992
4735.94	0.544464	-6.80542e-06
4736.84	0.544434	1.84631e-05
4737.72	0.000479126	0.00287506
4738.58	0.544373	-6.95801e-06
4739.48	0.54422	1.1322e-05
4740.38	0.542114	0.0159637
4741.22	0.542847	2.62451e-06
4742.12	0.544006	8.14819e-06
4743.02	0.542358	0.0119995
4743.86	0.543243	-4.88281e-07
4744.76	0.542847	1.26953e-05
4745.66	0.542542	0.00787354
4746.5	0.543488	-2.28882e-06
4747.4	0.544556	-8.54492e-07
4748.3	0.543976	0.00109985
4749.14	0.543152	-1.40381e-06
4750.04	0.54422	-9.15527e-07
4750.94	0.543457	0.000365479
4751.78	0.544098	-8.08716e-06
4752.68	0.544403	-2.2583e-06
4753.58	0.543701	0.00016571
4754.42	0.544006	-7.62939e-06
4755.32	0.542908	4.30298e-06
4756.22	0.543823	9.14917e-05
4757.08	-0.69754	-0.0237427
4757.96	0.543793	7.01904e-07
4758.86	0.544189	5.27039e-05
4759.72	-0.696808	-0.0191193
4760.6	0.542938	4.60815e-06
4761.5	0.543732	3.44849e-05
4762.38	0.00050354	0.004151
4763.24	0.542999	4.57764e-07
4764.14	0.542908	2.92664e-05
4765.02	0.000646973	0.00284729
4765.88	0.544189	-5.95093e-06
4766.78	0.543091	1.9928e-05
4767.68	0.542999	0.015979
4768.52	0.544128	-4.82178e-06
4769.42	0.543396	1.46179e-05
4770.32	0.543884	0.0120056
4771.16	0.544464	-8.97217e-06
4772.06	0.543549	6.46973e-06
4772.96	0.543762	0.0079071
4773.8	0.542938	1.83105e-07
4774.7	0.543549	4.88281e-06
4775.6	0.54306	0.00113159
4776.44	0.542969	9.46045e-07
4777.34	0.544434	-1.52588e-06
4778.24	0.54303	0.000378235
4779.08	0.544464	-9.79614e-06
4779.98	0.542908	7.69043e-06
4780.88	0.544312	0.000166473
4781.72	0.543427	-4.21143e-06
4782.62	0.544403	-4.79126e-06
4783.52	0.544281	9.05457e-05
4784.38	-0.696198	-0.0237732
4785.26	0.543427	2.22778e-06
4786.16	0.544098	5.46875e-05
4787.02	-0.696869	-0.0191772
4787.9	0.543793	-2.53296e-06
4788.8	0.542816	4.15649e-05
4789.68	0.00180359	0.00411469
4790.54	0.544525	-7.32422e-06
4791.44	0.542938	2.89612e-05
4792.32	0.000515747	0.00283752
4793.18	0.543304	7.32422e-07
4794.08	0.544403	1.17493e-05
4794.98	0.54248	0.015976
4795.82	0.544159	-8.27026e-06
4796.72	0.543732	1.02844e-05
4797.62	0.542328	0.0120331
4798.46	0.542877	1.34277e-06
4799.36	0.54361	7.17163e-06
4800.26	0.544006	0.00797119
4801.1	0.543213	-1.67847e-06
4802	0.544342	-2.13623e-07
4802.9	0.54361	0.00115662
4803.74	0.544342	-8.60596e-06
4804.64	0.543793	2.01416e-06
4805.54	0.542908	0.000387939
4806.38	0.543427	-3.60107e-06
4807.28	0.544434	-4.08936e-06
4808.18	0.543884	0.000171295
4809.02	0.544434	-9.8877e-06
4809.92	0.544128	-3.05176e-06
4810.82	0.542877	0.0001015625
4811.68	-0.696716	-0.023764
4812.56	0.543365	3.87573e-06
4813.46	0.544006	5.49927e-05
4814.32	-0.696472	-0.0191925
4815.2	0.543274	3.66211e-07
4816.1	0.542908	4.35181e-05
4816.98	0.00175171	0.00408142
4817.84	0.542938	2.0752e-06
4818.74	0.54303	3.09448e-05
4819.62	0.0020752	0.00279999
4820.48	0.544373	-7.14111e-06
4821.38	0.543427	1.83105e-05
4822.28	0.542389	0.0159515
4823.12	0.543488	-1.64795e-06
4824.02	0.542755	1.78223e-05
4824.92	0.543671	0.0120361
4825.76	0.544525	-8.23975e-06
4826.66	0.543365	9.82666e-06
4827.56	0.542572	0.00802307
4828.4	0.542969	-6.40869e-07
4829.3	0.543945	4.69971e-06
4830.2	0.542816	0.00119598
4831.04	0.542786	9.15527e-07
4831.94	0.543304	5.64575e-06
4832.84	0.543884	0.000388672
4833.68	0.542908	3.05176e-08
4834.58	0.543182	5.31006e-06
4835.48	0.543915	0.000179047
4836.32	0.542847	1.77002e-06
4837.22	0.543518	2.0752e-06
4838.12	0.544189	9.22546e-05
4838.98	-0.696411	-0.0238251
4839.86	0.544403	-4.54712e-06
4840.76	0.542969	6.36902e-05
4841.62	-0.696503	-0.0192688
4842.5	0.543457	-2.10571e-06
4843.4	0.542908	4.26331e-05
4844.28	0.00107727	0.00406982
4845.14	0.54425	-6.80542e-06
4846.04	0.54306	3.00293e-05
4846.92	0.0019989	0.00279724
4847.78	0.543701	-4.76074e-06
4848.68	0.544128	1.39771e-05
4849.58	0.542267	0.0159698
4850.42	0.543396	-1.98364e-06
4851.32	0.542999	1.651e-05
4852.22	0.542572	0.0120728
4853.06	0.543915	-5.0354e-06
4853.96	0.543091	1.02844e-05
4854.86	0.543854	0.00806885
4855.7	0.543182	-2.10571e-06
4856.6	0.543823	5.67627e-06
4857.5	0.544312	0.00121185
4858.34	0.54422	-7.08008e-06
4859.24	0.544525	-3.05176e-08
4860.14	0.543732	0.000400116
4860.98	0.54361	-3.14331e-06
4861.88	0.544006	-3.96729e-07
4862.78	0.542908	0.000186462
4863.62	0.542847	1.52588e-07
4864.52	0.544434	-3.78418e-06
4865.42	0.542999	0.000101044
4866.28	-0.696838	-0.0238251
4867.16	0.544434	-4.76074e-06
4868.06	0.542908	6.39343e-05
4868.92	-0.697449	-0.0192657
4869.8	0.542877	4.57764e-06
4870.7	0.54361	3.97949e-05
4871.58	0.000820923	0.00404083
4872.44	0.54425	-4.18091e-06
4873.34	0.544434	2.00806e-05
4874.22	0.00118103	0.00277924
4875.08	0.54306	7.93457e-07
4875.98	0.543274	2.05994e-05
4876.88	0.54361	0.0159637
4877.72	0.543396	-2.16675e-06
4878.62	0.544373	8.5144e-06
4879.52	0.542908	0.012085
4880.36	0.542999	1.0376e-06
4881.26	0.544373	3.75366e-06
4882.16	0.543396	0.00810547
4883	0.543152	-2.28882e-06
4883.9	0.544128	1.95313e-06
4884.8	0.543121	0.00123993
4885.64	0.544403	-9.21631e-06
4886.54	0.542969	8.08716e-06
4887.44	0.543762	0.000406738
4888.28	0.543549	-3.17383e-06
4889.18	0.542969	5.58472e-06
4890.08	0.543091	0.000186462
4890.92	0.543274	-7.32422e-07
4891.82	0.542908	4.42505e-06
4892.72	0.543457	0.000101196
4893.58	-0.696899	-0.0238129
4894.46	0.544403	-5.27954e-06
4895.36	0.543793	5.94482e-05
4896.22	-0.697815	-0.0192749
4897.1	0.544281	-4.88281e-06
4898	0.543518	3.90015e-05
4898.88	0.000704956	0.00401093
4899.74	0.542816	3.17383e-06
4900.64	0.544525	2.00806e-05
4901.52	0.00135803	0.00275452
4902.38	0.542969	2.44141e-06
4903.28	0.54422	1.37024e-05
4904.18	0.542633	0.0159515
4905.02	0.544373	-7.99561e-06
4905.92	0.544434	6.92749e-06
4906.82	0.54364	0.012085
4907.66	0.542816	1.67847e-06
4908.56	0.543457	1.05896e-05
4909.46	0.544037	0.00812073
4910.3	0.543762	-3.78418e-06
4911.2	0.543854	3.84521e-06
4912.1	0.543701	0.00125977
4912.94	0.543182	-1.09863e-06
4913.84	0.542786	8.5144e-06
4914.74	0.542908	0.000420624
4915.58	0.54303	4.88281e-07
4916.48	0.544128	-1.58691e-06
4917.38	0.54306	0.000191559
4918.22	0.543091	-9.76562e-07
4919.12	0.543182	5.27954e-06
4920.02	0.544067	9.90295e-05
4920.88	-0.696198	-0.0238159
4921.76	0.542908	4.94385e-06
4922.66	0.544403	5.60913e-05
4923.52	-0.69693	-0.019281
4924.4	0.54306	4.02832e-06
4925.3	0.543091	4.52881e-05
4926.18	0.000924683	0.00398773
4927.04	0.544403	-6.65283e-06
4927.94	0.543121	3.03345e-05
4928.82	0.001953125	0.0027298
4929.68	0.54361	-3.11279e-06
4930.58	0.543121	2.11792e-05
4931.48	0.542542	0.0159546
4932.32	0.543121	-2.38037e-06
4933.22	0.543304	1.54724e-05
4934.12	0.543793	0.0120941
4934.96	0.544464	-8.91113e-06
4935.86	0.542938	1.37939e-05
4936.76	0.543915	0.00815125
4937.6	0.543762	-3.479e-06
4938.5	0.542847	1.17493e-05
4939.4	0.542908	0.00129181
4940.24	0.543335	-2.71606e-06
4941.14	0.54422	-1.52588e-07
4942.04	0.542847	0.000429657
4942.88	0.544312	-9.00269e-06
4943.78	0.54422	-1.09863e-06
4944.68	0.544495	0.000186249
4945.52	0.544525	-1.06506e-05
4946.42	0.543976	-2.34985e-06
4947.32	0.543488	0.000105286
4948.18	-0.696289	-0.0238403
4949.06	0.542908	3.96729e-06
4949.96	0.54306	6.61316e-05
4950.82	-0.696503	-0.0193085
4951.7	0.544403	-7.01904e-06
4952.6	0.543304	4.25415e-05
4953.48	0.000958252	0.00396027
4954.34	0.543396	-3.05176e-07
4955.24	0.544373	2.24915e-05
4956.12	0.000695801	0.00271606
4956.98	0.543549	-3.44849e-06
4957.88	0.542786	2.28882e-05
4958.78	0.542389	0.0159363
4959.62	0.542999	2.38037e-06
4960.52	0.54422	9.30786e-06
4961.42	0.543518	0.0121002
4962.26	0.544342	-7.84302e-06
4963.16	0.544128	5.64575e-06
4964.06	0.543274	0.00816956
4964.9	0.544434	-9.46045e-06
4965.8	0.543243	8.88062e-06
4966.7	0.544342	0.00130341
4967.54	0.544373	-8.78906e-06
4968.44	0.543274	4.97437e-06
4969.34	0.542969	0.000436066
4970.18	0.543427	-4.42505e-06
4971.08	0.544189	5.79834e-07
4971.98	0.542969	0.000199829
4972.82	0.544525	-1.01013e-05
4973.72	0.54422	-1.98364e-06
4974.62	0.543488	0.000106903
4975.48	-0.697662	-0.0238007
4976.36	0.543396	2.80762e-06
4977.26	0.544464	5.68237e-05
4978.12	-0.697937	-0.0192963
4979	0.54422	-4.76074e-06
4979.9	0.543213	4.43726e-05
4980.78	0.000485229	0.00393646
4981.64	0.54422	-4.85229e-06
4982.54	0.543701	2.63672e-05
4983.42	0.000601196	0.00269318
4984.28	0.544159	-5.40161e-06
4985.18	0.542999	2.31934e-05
4986.08	0.542114	0.0159332
4986.92	0.543823	-5.40161e-06
4987.82	0.543152	1.62354e-05
4988.72	0.543854	0.0121033
4989.56	0.542877	2.01416e-06
4990.46	0.54306	1.21155e-05
4991.36	0.54303	0.00820618
4992.2	0.54364	-5.58472e-06
4993.1	0.544403	1.58691e-06
4994	0.542816	0.00133942
4994.84	0.543488	-2.59399e-06
4995.74	0.542969	9.97925e-06
4996.64	0.544434	0.000435791
4997.48	0.542969	6.71387e-07
4998.38	0.542877	8.20923e-06
4999.28	0.543793	0.000198059
5000.12	0.543488	-3.08228e-06
5001.02	0.542999	5.5542e-06
5001.92	0.543304	0.000107941
5002.78	-0.697693	-0.0238129
5003.66	0.544403	-4.66919e-06
5004.56	0.544037	6.30798e-05
5005.42	-0.697327	-0.0193115
5006.3	0.543488	-3.05176e-08
5007.2	0.543243	4.34265e-05
5008.08	0.00183716	0.00389954
5008.94	0.543884	-2.2583e-06
5009.84	0.544281	2.35901e-05
5010.72	0.00173645	0.00266235
5011.58	0.543121	2.01416e-06
5012.48	0.544464	1.3916e-05
5013.38	0.542328	0.0159119
5014.22	0.543915	-4.05884e-06
5015.12	0.543884	1.22986e-05
5016.02	0.543549	0.0121094
5016.86	0.543304	-6.71387e-07
5017.76	0.543579	9.52148e-06
5018.66	0.544037	0.00823059
5019.5	0.543945	-3.90625e-06
5020.4	0.543945	4.76074e-06
5021.3	0.544067	0.00135651
5022.14	0.543518	-1.80054e-06
5023.04	0.544434	-1.7395e-06
5023.94	0.542786	0.000453766
5024.78	0.543823	-6.10352e-06
5025.68	0.544495	-3.87573e-06
5026.58	0.54422	0.000198425
5027.42	0.544281	-8.57544e-06
5028.32	0.543335	4.79126e-06
5029.22	0.543243	0.000109894
5030.08	-0.697052	-0.0238037
5030.96	0.54422	-4.36401e-06
5031.86	0.544525	5.93262e-05
5032.72	-0.696472	-0.0193176
5033.6	0.543793	-2.74658e-07
5034.5	0.543671	4.14734e-05
5035.38	0.000823975	0.00388062
5036.24	0.542908	4.21143e-06
5037.14	0.544281	2.43835e-05
5038.02	0.00204163	0.00264282
5038.88	0.54303	2.19727e-06
5039.78	0.544373	1.26343e-05
5040.68	0.542236	0.0159058
5041.52	0.543579	-1.15967e-06
5042.42	0.54422	8.81958e-06
5043.32	0.542389	0.0121124
5044.16	0.543427	-2.38037e-06
5045.06	0.542877	1.39771e-05
5045.96	0.542419	0.00826111
5046.8	0.543762	-3.2959e-06
5047.7	0.544037	1.95313e-06
5048.6	0.543945	0.00137939
5049.44	0.543457	-2.34985e-06
5050.34	0.543701	3.20435e-06
5051.24	0.544373	0.000452545
5052.08	0.542969	1.12915e-06
5052.98	0.542908	6.62231e-06
5053.88	0.544373	0.000202637
5054.72	0.543488	-2.47192e-06
5055.62	0.544067	-3.8147e-06
5056.52	0.544403	0.000105286
5057.38	-0.696808	-0.0238068
5058.26	0.54361	7.93457e-07
5059.16	0.544403	6.05469e-05
5060.02	-0.697754	-0.0193176
5060.9	0.543915	-2.16675e-06
5061.8	0.543793	3.9032e-05
5062.68	0.00144958	0.0038559
5063.54	0.544006	-4.45557e-06
5064.44	0.542877	3.28369e-05
5065.32	0.000585937	0.00263123
5066.18	0.543854	-2.7771e-06
5067.08	0.543976	1.59607e-05
5067.98	0.543365	0.0158997
5068.82	0.544342	-7.1106e-06
5069.72	0.542816	1.70898e-05
5070.62	0.542908	0.0121094
5071.46	0.544281	-7.78198e-06
5072.36	0.544373	3.69263e-06
5073.26	0.542572	0.00829773
5074.1	0.544006	-7.08008e-06
5075	0.543854	4.24194e-06
5075.9	0.542969	0.00141632
5076.74	0.543732	-4.79126e-06
5077.64	0.543427	3.75366e-06
5078.54	0.544373	0.000461945
5079.38	0.544373	-8.54492e-06
5080.28	0.542908	7.1106e-06
5081.18	0.544312	0.000205444
5082.02	0.543304	-1.98364e-06
5082.92	0.544159	-1.31226e-06
5083.82	0.543579	0.000111023
5084.68	-0.696594	-0.023822
5085.56	0.544373	-4.88281e-06
5086.46	0.544037	6.45752e-05
5087.32	-0.697266	-0.0193573
5088.2	0.544434	-5.52368e-06
5089.1	0.543854	4.21143e-05
5089.98	0.000552368	0.00383881
5090.84	0.54425	-5.40161e-06
5091.74	0.544189	2.86865e-05
5092.62	0.00112915	0.00261932
5093.48	0.544525	-8.14819e-06
5094.38	0.542938	2.46887e-05
5095.28	0.542664	0.0158905
5096.12	0.542938	1.46484e-06
5097.02	0.543335	1.62659e-05
5097.92	0.542664	0.0121338
5098.76	0.543488	-2.86865e-06
5099.66	0.543488	8.20923e-06
5100.56	0.544128	0.00831604
5101.4	0.542816	1.19019e-06
5102.3	0.54422	8.23975e-07
5103.2	0.544037	0.00143524
5104.04	0.544281	-7.69043e-06
5104.94	0.544281	-9.15527e-07
5105.84	0.542938	0.000480042
5106.68	0.544403	-9.94873e-06
5107.58	0.544342	-3.26538e-06
5108.48	0.543121	0.000219757
5109.32	0.544281	-1.01013e-05
5110.22	0.544281	-3.66211e-06
5111.12	0.542969	0.00011853
5111.98	-0.69632	-0.0238281
5112.86	0.542938	4.94385e-06
5113.76	0.544281	6.55212e-05
5114.62	-0.697632	-0.0193939
5115.5	0.543213	1.98364e-06
5116.4	0.543488	4.58069e-05
5117.28	0.000799561	0.00381378
5118.14	0.542908	2.04468e-06
5119.04	0.543365	2.948e-05
5119.92	0.00204468	0.00259186
5120.78	0.544159	-5.49316e-06
5121.68	0.543518	2.0752e-05
5122.58	0.542267	0.0158936
5123.42	0.544342	-8.11768e-06
5124.32	0.544525	8.66699e-06
5125.22	0.542542	0.012146
5126.06	0.543457	-2.34985e-06
5126.96	0.544403	4.60815e-06
5127.86	0.543488	0.00834045
5128.7	0.544312	-8.57544e-06
5129.6	0.544312	1.43433e-06
5130.5	0.542786	0.00146851
5131.34	0.543732	-5.70679e-06
5132.24	0.543243	4.30298e-06
5133.14	0.54422	0.000479858
5133.98	0.544495	-1.11694e-05
5134.88	0.543793	7.01904e-07
5135.78	0.543701	0.000217346
5136.62	0.543823	-5.5542e-06
5137.52	0.543549	1.34277e-06
5138.42	0.542938	0.000121552
5139.28	-0.696259	-0.0238403
5140.16	0.543854	-1.64795e-06
5141.06	0.543427	7.31201e-05
5141.92	-0.696564	-0.019397
5142.8	0.544464	-6.01196e-06
5143.7	0.542908	5.00183e-05
5144.58	0.000793457	0.0037912
5145.44	0.543976	-2.96021e-06
5146.34	0.544067	2.64587e-05
5147.22	0.000689697	0.00258392
5148.08	0.543701	-3.57056e-06
5148.98	0.543549	2.33154e-05
5149.88	0.541992	0.0158875
5150.72	0.544525	-7.62939e-06
5151.62	0.544342	9.18579e-06
5152.52	0.543884	0.0121429
5153.36	0.542877	2.0752e-06
5154.26	0.542908	1.48926e-05
5155.16	0.544098	0.00837402
5156	0.543518	-3.05176e-06
5156.9	0.543488	8.48389e-06
5157.8	0.542908	0.00150024
5158.64	0.543854	-6.50024e-06
5159.54	0.543915	3.8147e-06
5160.44	0.544373	0.000491333
5161.28	0.543854	-6.46973e-06
5162.18	0.544342	-1.95313e-06
5163.08	0.542908	0.000228302
5163.92	0.544403	-8.75854e-06
5164.82	0.544312	-3.05176e-06
5165.72	0.544434	0.000113861
5166.58	-0.697632	-0.0238373
5167.46	0.542755	5.40161e-06
5168.36	0.544067	6.71997e-05
5169.22	-0.696838	-0.0194183
5170.1	0.544159	-4.30298e-06
5171	0.54303	4.94995e-05
5171.88	0.001651	0.00376495
5172.74	0.543396	-5.79834e-07
5173.64	0.544373	2.53296e-05
5174.52	0.000991821	0.00256073
5175.38	0.544312	-7.17163e-06
5176.28	0.544006	2.06604e-05
5177.18	0.542633	0.0158936
5178.02	0.542938	1.77002e-06
5178.92	0.544037	1.36719e-05
5179.82	0.543854	0.012149
5180.66	0.544373	-8.14819e-06
5181.56	0.544403	5.49316e-06
5182.46	0.543274	0.00840759
5183.3	0.543732	-4.05884e-06
5184.2	0.543427	1.00403e-05
5185.1	0.543518	0.00151825
5185.94	0.54425	-9.27734e-06
5186.84	0.543945	1.89209e-06
5187.74	0.544312	0.000499268
5188.58	0.543152	-2.10571e-06
5189.48	0.543121	5.98145e-06
5190.38	0.544159	0.000222443
5191.22	0.544006	-5.70679e-06
5192.12	0.543427	2.86865e-06
5193.02	0.543579	0.000118225
5193.88	-0.697144	-0.0238556
5194.76	0.542847	4.94385e-06
5195.66	0.544189	6.91528e-05
5196.52	-0.696625	-0.0194489
5197.4	0.543365	1.70898e-06
5198.3	0.543823	4.35486e-05
5199.18	0.00130615	0.00375122
5200.04	0.543182	1.49536e-06
5200.94	0.544373	2.6123e-05
5201.82	0.001953125	0.00254456
5202.68	0.544403	-6.86646e-06
5203.58	0.542847	2.66418e-05
5204.48	0.543457	0.0158752
5205.32	0.542786	3.44849e-06
5206.22	0.54303	1.85242e-05
5207.12	0.543884	0.0121674
5207.96	0.543823	-4.08936e-06
5208.86	0.543152	1.36719e-05
5209.76	0.543549	0.00843201
5210.6	0.542938	9.46045e-07
5211.5	0.544006	4.27246e-06
5212.4	0.544067	0.00153931
5213.24	0.544373	-7.78198e-06
5214.14	0.543793	4.45557e-06
5215.04	0.543976	0.000511475
5215.88	0.544464	-7.96509e-06
5216.78	0.542969	7.23267e-06
5217.68	0.543457	0.000231995
5218.52	0.542908	5.79834e-07
5219.42	0.544434	-3.63159e-06
5220.32	0.544373	0.000117859
5221.18	-0.696991	-0.02388
5222.06	0.542999	4.57764e-06
5222.96	0.543579	7.15332e-05
5223.82	-0.697693	-0.0194672
5224.7	0.544464	-5.43213e-06
5225.6	0.542877	5.05066e-05
5226.48	0.000430298	0.00373016
5227.34	0.544403	-6.86646e-06
5228.24	0.542908	3.4668e-05
5229.12	0.000796509	0.00254028
5229.98	0.542908	2.65503e-06
5230.88	0.544342	1.61743e-05
5231.78	0.542114	0.0158783
5232.62	0.544159	-6.34766e-06
5233.52	0.542786	1.87683e-05
5234.42	0.542236	0.0121887
5235.26	0.543762	-5.00488e-06
5236.16	0.544342	5.06592e-06
5237.06	0.544067	0.00845947
5237.9	0.543823	-2.80762e-06
5238.8	0.544098	3.44849e-06
5239.7	0.542847	0.00157837
5240.54	0.543213	-1.09863e-06
5241.44	0.544067	1.37329e-06
5242.34	0.54303	0.000528259
5243.18	0.543762	-4.91333e-06
5244.08	0.542786	8.91113e-06
5244.98	0.543884	0.000231873
5245.82	0.542969	3.66211e-07
5246.72	0.543091	3.93677e-06
5247.62	0.544342	0.000118744
5248.48	-0.69754	-0.0238586
5249.36	0.544128	-3.17383e-06
5250.26	0.543243	7.724e-05
5251.12	-0.697235	-0.019458
5252	0.543304	2.44141e-06
5252.9	0.543091	5.21851e-05
5253.78	0.000534058	0.00370667
5254.64	0.544128	-6.89697e-06
5255.54	0.543396	3.16772e-05
5256.42	0.000491333	0.00252411
5257.28	0.54303	2.0752e-06
5258.18	0.542969	2.55432e-05
5259.08	0.543488	0.0158722
5259.92	0.542908	2.04468e-06
5260.82	0.544189	1.19324e-05
5261.72	0.543518	0.0121796
5262.56	0.543091	6.10352e-08
5263.46	0.544037	7.14111e-06
5264.36	0.542511	0.00847473
5265.2	0.543365	2.44141e-07
5266.1	0.543121	8.48389e-06
5267	0.543488	0.00159698
5267.84	0.543152	-5.49316e-07
5268.74	0.54422	1.43433e-06
5269.64	0.543884	0.000529175
5270.48	0.543365	-2.62451e-06
5271.38	0.543365	3.17383e-06
5272.28	0.542938	0.000242462
5273.12	0.544373	-9.3689e-06
5274.02	0.54306	5.18799e-06
5274.92	0.542786	0.000133026
5275.78	-0.697571	-0.0238617
5276.66	0.543701	-2.50244e-06
5277.56	0.544159	7.27234e-05
5278.42	-0.696747	-0.0194794
5279.3	0.544373	-5.88989e-06
5280.2	0.544373	4.24194e-05
5281.08	0.00171509	0.00367828
5281.94	0.542938	4.3335e-06
5282.84	0.542938	3.64075e-05
5283.72	0.0020752	0.00249359
5284.58	0.54303	2.13623e-06
5285.48	0.543304	2.24304e-05
5286.38	0.543365	0.0158691
5287.22	0.543457	-3.72314e-06
5288.12	0.542877	2.09961e-05
5289.02	0.543884	0.0121826
5289.86	0.544373	-7.90405e-06
5290.76	0.544159	6.83594e-06
5291.66	0.543304	0.00851135
5292.5	0.543579	-3.54004e-06
5293.4	0.543121	1.00098e-05
5294.3	0.54364	0.00162201
5295.14	0.543823	-5.61523e-06
5296.04	0.543121	9.8877e-06
5296.94	0.544312	0.000534668
5297.78	0.542816	1.5564e-06
5298.68	0.544403	-1.98364e-06
5299.58	0.54303	0.00024765
5300.42	0.544189	-8.75854e-06
5301.32	0.543091	4.45557e-06
5302.22	0.542908	0.000134644
5303.08	-0.696625	-0.0238739
5303.96	0.544434	-4.66919e-06
5304.86	0.543213	7.89185e-05
5305.72	-0.69754	-0.0195038
5306.6	0.542938	5.43213e-06
5307.5	0.542908	5.34058e-05
5308.38	0.000842285	0.00365509
5309.24	0.544312	-6.80542e-06
5310.14	0.54425	2.72522e-05
5311.02	0.00185547	0.00248016
5311.88	0.54422	-6.10352e-06
5312.78	0.543304	2.36511e-05
5313.68	0.542175	0.0158691
5314.52	0.544434	-7.04956e-06
5315.42	0.543945	1.3855e-05
5316.32	0.542664	0.0121948
5317.16	0.544159	-7.14111e-06
5318.06	0.544464	5.98145e-06
5318.96	0.542969	0.00853271
5319.8	0.543182	-4.57764e-07
5320.7	0.544556	3.479e-06
5321.6	0.542877	0.00164703
5322.44	0.544464	-8.78906e-06
5323.34	0.543793	3.90625e-06
5324.24	0.54425	0.000542908
5325.08	0.542938	1.83105e-07
5325.98	0.544434	-1.31226e-06
5326.88	0.54306	0.00024939
5327.72	0.543365	-4.66919e-06
5328.62	0.542938	7.01904e-06
5329.52	0.543213	0.000132904
5330.38	-0.696014	-0.0238708
5331.26	0.542999	5.06592e-06
5332.16	0.544312	7.26318e-05
5333.02	-0.697754	-0.0194977
5333.9	0.544556	-6.28662e-06
5334.8	0.543762	4.7699e-05
5335.68	0.00171509	0.00362823
5336.54	0.543213	4.88281e-07
5337.44	0.544342	2.73743e-05
5338.32	0.00114746	0.00246399
5339.18	0.543243	3.35693e-07
5340.08	0.542908	2.73132e-05
5340.98	0.542053	0.0158569
5341.82	0.542938	2.71606e-06
5342.72	0.54422	1.15356e-05
5343.62	0.542267	0.0121948
5344.46	0.543549	-2.13623e-06
5345.36	0.543884	1.17493e-05
5346.26	0.54306	0.00854797
5347.1	0.543701	-5.95093e-06
5348	0.544037	5.21851e-06
5348.9	0.544373	0.00166779
5349.74	0.544098	-6.04248e-06
5350.64	0.543121	9.85718e-06
5351.54	0.544128	0.000552979
5352.38	0.544312	-8.63647e-06
5353.28	0.543884	2.22778e-06
5354.18	0.542847	0.000255402
5355.02	0.544403	-8.91113e-06
5355.92	0.543732	2.22778e-06
5356.82	0.544434	0.000126709
5357.68	-0.696198	-0.0238708
5358.56	0.544434	-4.45557e-06
5359.46	0.544373	7.26318e-05
5360.32	-0.696442	-0.0195129
5361.2	0.543854	-3.05176e-08
5362.1	0.542938	5.37109e-05
5362.98	0.000900269	0.0036203
5363.84	0.543549	8.8501e-07
5364.74	0.544342	2.8656e-05
5365.62	0.000860596	0.00245239
5366.48	0.544434	-6.80542e-06
5367.38	0.544373	1.84326e-05
5368.28	0.543274	0.0158508
5369.12	0.543213	-4.57764e-07
5370.02	0.544128	1.40991e-05
5370.92	0.543915	0.0121887
5371.76	0.543579	-5.12695e-06
5372.66	0.543701	9.765625E-06
5373.56	0.542542	0.00856323
5374.4	0.542877	1.25122e-06
5375.3	0.544128	4.18091e-06
5376.2	0.543854	0.0016925
5377.04	0.544128	-7.59888e-06
5377.94	0.542908	9.79614e-06
5378.84	0.543854	0.000561829
5379.68	0.542816	9.15527e-07
5380.58	0.543335	3.57056e-06
5381.48	0.542908	0.000258728
5382.32	0.544403	-9.552e-06
5383.22	0.54306	5.27954e-06
5384.12	0.543549	0.000134674
5384.98	-0.696167	-0.0238678
5385.86	0.544189	-3.8147e-06
5386.76	0.544128	7.65686e-05
5387.62	-0.696533	-0.0195282
5388.5	0.543793	-1.49536e-06
5389.4	0.543335	5.09949e-05
5390.28	0.0009552	0.00359406
5391.14	0.543304	7.01904e-07
5392.04	0.544128	2.99683e-05
5392.92	0.00151672	0.00243225
5393.78	0.542999	2.99072e-06
5394.68	0.544373	1.7395e-05
5395.58	0.542297	0.0158569
5396.42	0.544373	-6.86646e-06
5397.32	0.543365	1.74866e-05
5398.22	0.54248	0.0121948
5399.06	0.544403	-7.47681e-06
5399.96	0.544464	5.21851e-06
5400.86	0.543091	0.00858154
5401.7	0.544037	-5.98145e-06
5402.6	0.544312	3.32642e-06
5403.5	0.543915	0.00171844
5404.34	0.544312	-7.59888e-06
5405.24	0.54303	7.90405e-06
5406.14	0.544373	0.000568237
5406.98	0.544037	-7.84302e-06
5407.88	0.544434	-1.83105e-06
5408.78	0.542908	0.000264099
5409.62	0.542877	1.15967e-06
5410.52	0.543823	-7.62939e-07
5411.42	0.543488	0.000139313
5412.28	-0.697052	-0.02388
5413.16	0.543762	1.58691e-06
5414.06	0.542908	8.38013e-05
5414.92	-0.697815	-0.0195343
5415.8	0.542816	5.31006e-06
5416.7	0.543121	5.34668e-05
5417.58	0.000366211	0.00357941
5418.44	0.542999	3.57056e-06
5419.34	0.544403	2.89612e-05
5420.22	0.0006073	0.00242462
5421.08	0.544128	-4.27246e-06
5421.98	0.542877	2.67944e-05
5422.88	0.542572	0.0158478
5423.72	0.544464	-7.23267e-06
5424.62	0.544403	1.10168e-05
5425.52	0.542755	0.0122162
5426.36	0.543274	-1.25122e-06
5427.26	0.543915	6.71387e-06
5428.16	0.543671	0.0085907
5429	0.544312	-5.31006e-06
5429.9	0.544373	2.38037e-06
5430.8	0.543488	0.00174683
5431.64	0.544373	-8.05664e-06
5432.54	0.543365	5.27954e-06
5433.44	0.542786	0.000588379
5434.28	0.54364	-4.36401e-06
5435.18	0.543579	2.2583e-06
5436.08	0.543915	0.000260834
5436.92	0.542938	1.2207e-06
5437.82	0.543671	-1.83105e-07
5438.72	0.544006	0.0001362
5439.58	-0.697205	-0.0238708
5440.46	0.54425	-3.23486e-06
5441.36	0.543121	8.59985e-05
5442.22	-0.696625	-0.0195435
5443.1	0.542969	4.5166e-06
5444	0.543365	5.32837e-05
5444.88	0.000769043	0.00356445
5445.74	0.543762	-3.41797e-06
5446.64	0.543701	3.50037e-05
5447.52	0.000512695	0.00240326
5448.38	0.542908	3.35693e-06
5449.28	0.543121	2.70386e-05
5450.18	0.542725	0.0158234
5451.02	0.543945	-4.18091e-06
5451.92	0.544189	1.15356e-05
5452.82	0.543854	0.012207
5453.66	0.542938	1.46484e-06
5454.56	0.544495	5.95093e-06
5455.46	0.542572	0.00862122
5456.3	0.542877	8.23975e-07
5456.44	0.54425	-9.00269e-06