File: Edgar/20230626/20230626/electrodeposition_prussian_blue/electrodeposition_sample_B/CP_data_2
Time (s)	WE(1).Potential (V)	WE(1).Current (A)
13.6987	1.27014	7.99866e-05
13.7987	1.43677	8.02612e-05
13.8987	1.50452	7.99866e-05
13.9987	1.51764	7.95593e-05
14.0987	1.52191	8.03528e-05
14.1987	1.52405	8.00781e-05
14.2987	1.52527	8.02917e-05
14.3987	1.52588	7.95288e-05
14.4987	1.52649	8.00171e-05
14.5987	1.52679	8.03223e-05
14.6987	1.5271	7.95593e-05
14.7987	1.5274	7.9834e-05
14.8987	1.52771	8.00781e-05
14.9987	1.52802	8.02002e-05
15.0987	1.52802	7.94678e-05
15.1987	1.52832	8.00171e-05
15.2987	1.52832	7.98645e-05
15.3987	1.52863	7.94067e-05
15.4987	1.52863	7.94678e-05
15.5987	1.52893	8.03528e-05
15.6987	1.52893	8.03223e-05
15.7987	1.52893	7.95288e-05
15.8987	1.52924	8.05054e-05
15.9987	1.52924	8.03833e-05
16.0987	1.52924	8.04138e-05
16.1987	1.52924	7.94983e-05
16.2987	1.52954	8.02612e-05
16.3987	1.52954	8.04138e-05
16.4987	1.52954	7.94983e-05
16.5987	1.52985	7.95593e-05
16.6987	1.52985	7.96814e-05
16.7987	1.52985	8.03528e-05
16.8987	1.52985	7.95288e-05
16.9987	1.52985	7.96509e-05
17.0987	1.53015	8.02917e-05
17.1987	1.53015	8.02612e-05
17.2987	1.53015	7.96509e-05
17.3987	1.53015	7.99255e-05
17.4987	1.53015	8.04749e-05
17.5987	1.53015	7.96204e-05
17.6987	1.53046	8.00171e-05
17.7987	1.53046	8.03833e-05
17.8987	1.53046	8.03833e-05
17.9987	1.53046	7.94983e-05
18.0987	1.53046	7.99561e-05
18.1987	1.53076	8.04749e-05
18.2987	1.53076	7.94983e-05
18.3987	1.53076	7.94678e-05
18.4987	1.53076	7.97119e-05
18.5987	1.53076	8.03223e-05
18.6987	1.53076	7.95593e-05
18.7987	1.53076	7.96814e-05
18.8987	1.53107	8.04443e-05
18.9987	1.53107	8.03528e-05
19.0987	1.53107	7.95288e-05
19.1987	1.53107	7.98035e-05
19.2987	1.53107	8.04443e-05
19.3987	1.53107	7.97119e-05
19.4987	1.53107	8.03528e-05
19.5987	1.53137	7.94983e-05
19.6987	1.53137	8.04443e-05
19.7987	1.53137	7.97729e-05
19.8987	1.53137	7.95898e-05
19.9987	1.53137	7.99866e-05
20.0987	1.53137	8.03833e-05
20.1987	1.53137	7.97424e-05
20.2987	1.53137	7.94678e-05
20.3987	1.53137	8.01697e-05
20.4987	1.53168	8.03223e-05
20.5987	1.53168	7.94983e-05
20.6987	1.53168	7.96204e-05
20.7987	1.53168	8.04138e-05
20.8987	1.53168	8.03528e-05
20.9987	1.53168	7.94983e-05
21.0987	1.53168	7.97119e-05
21.1987	1.53168	8.04138e-05
21.2987	1.53168	8.00781e-05
21.3987	1.53168	7.94678e-05
21.4987	1.53198	7.95593e-05
21.5987	1.53198	8.05054e-05
21.6987	1.53198	8.03223e-05
21.7987	1.53198	7.95593e-05
21.8987	1.53198	8.00781e-05
21.9987	1.53198	8.04138e-05
22.0987	1.53198	8.02917e-05
22.1987	1.53198	7.94678e-05
22.2987	1.53198	8.00781e-05
22.3987	1.53198	8.04138e-05
22.4987	1.53229	7.95898e-05
22.5987	1.53229	7.97119e-05
22.6987	1.53229	8.00476e-05
22.7987	1.53229	8.02917e-05
22.8987	1.53229	7.95288e-05
22.9987	1.53229	7.96814e-05
23.0987	1.53229	8.04443e-05
23.1987	1.53229	7.96814e-05
23.2987	1.53229	7.95593e-05
23.3987	1.53229	8.02002e-05
23.4987	1.53229	8.03833e-05
23.5987	1.53229	7.96814e-05
23.6987	1.53229	7.97424e-05
23.7987	1.53259	8.03833e-05
23.8987	1.53259	8.03223e-05
23.9987	1.53259	7.94983e-05
24.0987	1.53259	8.02612e-05
24.1987	1.53259	8.04443e-05
24.2987	1.53259	7.95898e-05
24.3987	1.53259	7.94067e-05
24.4987	1.53259	7.97424e-05
24.5987	1.53259	8.02917e-05
24.6987	1.53259	7.95288e-05
24.7987	1.53259	7.97119e-05
24.8987	1.53259	8.04443e-05
24.9987	1.53259	8.05054e-05
25.0987	1.53259	8.01697e-05
25.1987	1.5329	8.01392e-05
25.2987	1.5329	8.03528e-05
25.3987	1.5329	7.95593e-05
25.4987	1.5329	7.9895e-05
25.5987	1.5329	7.94678e-05
25.6987	1.5329	8.02917e-05
25.7987	1.5329	7.95593e-05
25.8987	1.5329	8.01086e-05
25.9987	1.5329	8.04138e-05
26.0987	1.5329	7.95288e-05
26.1987	1.5329	8.03528e-05
26.2987	1.5329	7.95898e-05
26.3987	1.5329	8.03223e-05
26.4987	1.5329	7.97119e-05
26.5987	1.5332	7.96814e-05
26.6987	1.5329	8.03528e-05
26.7987	1.5329	7.97729e-05
26.8987	1.5332	8.03833e-05
26.9987	1.5332	8.01392e-05
27.0987	1.5332	8.02917e-05
27.1987	1.5332	7.97424e-05
27.2987	1.5332	7.97119e-05
27.3987	1.5332	7.96509e-05
27.4987	1.5332	7.96814e-05
27.5987	1.5332	7.96509e-05
27.6987	1.5332	8.02307e-05
27.7987	1.5332	8.02612e-05
27.8987	1.5332	7.95898e-05
27.9987	1.5332	8.03223e-05
28.0987	1.5332	7.98645e-05
28.1987	1.5332	8.01697e-05
28.2987	1.5332	7.95898e-05
28.3987	1.5332	7.97729e-05
28.4987	1.5332	8.03528e-05
28.5987	1.53351	7.96509e-05
28.6987	1.53351	8.01086e-05
28.7987	1.53351	8.02917e-05
28.8987	1.53351	8.03528e-05
28.9987	1.53351	7.96509e-05
29.0987	1.53351	7.96814e-05
29.1987	1.53351	8.00476e-05
29.2987	1.53351	7.96509e-05
29.3987	1.53351	7.95898e-05
29.4987	1.53351	8.00171e-05
29.5987	1.53351	8.03223e-05
29.6987	1.53351	7.98035e-05
29.7987	1.53351	8.02612e-05
29.8987	1.53351	8.03833e-05
29.9987	1.53351	8.00171e-05
30.0987	1.53351	7.96814e-05
30.1987	1.53351	7.95898e-05
30.2987	1.53351	8.02307e-05
30.3987	1.53381	7.95593e-05
30.4987	1.53351	7.95288e-05
30.5987	1.53351	7.96204e-05
30.6987	1.53381	8.03528e-05
30.7987	1.53381	8.02917e-05
30.8987	1.53381	7.95898e-05
30.9987	1.53381	8.02917e-05
31.0987	1.53381	8.04138e-05
31.1987	1.53381	8.00781e-05
31.2987	1.53381	7.95288e-05
31.3987	1.53381	7.9895e-05
31.4987	1.53381	8.03833e-05
31.5987	1.53381	7.96204e-05
31.6987	1.53381	7.96204e-05
31.7987	1.53381	8.03528e-05
31.8987	1.53381	8.02307e-05
31.9987	1.53381	7.95593e-05
32.0987	1.53381	8.00171e-05
32.1987	1.53381	7.97119e-05
32.2987	1.53381	7.96204e-05
32.3987	1.53381	7.97424e-05
32.4987	1.53381	8.04138e-05
32.5987	1.53381	8.00171e-05
32.6987	1.53381	7.95898e-05
32.7987	1.53381	8.02612e-05
32.8987	1.53381	8.02917e-05
32.9987	1.53381	7.95288e-05
33.0987	1.53412	7.99561e-05
33.1987	1.53412	8.03223e-05
33.2987	1.53412	7.96814e-05
33.3987	1.53412	8.03833e-05
33.4987	1.53412	8.00781e-05
33.5987	1.53412	8.02307e-05
33.6987	1.53412	7.95593e-05
33.7987	1.53412	7.9834e-05
33.8987	1.53412	8.03528e-05
33.9987	1.53412	7.95898e-05
34.0987	1.53412	7.94678e-05
34.1987	1.53412	8.03223e-05
34.2987	1.53412	8.02307e-05
34.3987	1.53412	7.95898e-05
34.4987	1.53412	7.97424e-05
34.5987	1.53412	8.02002e-05
34.6987	1.53412	8.04443e-05
34.7987	1.53412	7.95593e-05
34.8987	1.53412	8.02612e-05
34.9987	1.53412	8.03223e-05
35.0987	1.53412	7.95288e-05
35.1987	1.53412	8.02917e-05
35.2987	1.53412	7.95898e-05
35.3987	1.53412	8.00171e-05
35.4987	1.53412	7.94983e-05
35.5987	1.53412	8.00476e-05
35.6987	1.53412	8.03833e-05
35.7987	1.53442	7.95288e-05
35.8987	1.53442	7.98645e-05
35.9987	1.53442	8.03833e-05
36.0987	1.53442	8.01392e-05
36.1987	1.53442	7.95593e-05
36.2987	1.53442	7.99561e-05
36.3987	1.53442	7.99866e-05
36.4987	1.53442	8.04749e-05
36.5987	1.53442	7.96509e-05
36.6987	1.53442	8.03833e-05
36.7987	1.53442	8.02612e-05
36.8987	1.53442	7.94983e-05
36.9987	1.53442	8.02002e-05
37.0987	1.53442	7.95288e-05
37.1987	1.53442	7.99561e-05
37.2987	1.53442	7.95288e-05
37.3987	1.53442	8.00476e-05
37.4987	1.53442	8.03528e-05
37.5987	1.53442	7.95288e-05
37.6987	1.53442	8.04138e-05
37.7987	1.53442	8.03223e-05
37.8987	1.53442	7.98035e-05
37.9987	1.53442	7.96204e-05
38.0987	1.53442	8.02917e-05
38.1987	1.53442	8.01086e-05
38.2987	1.53442	7.96509e-05
38.3987	1.53442	7.97424e-05
38.4987	1.53442	8.02917e-05
38.5987	1.53442	7.97729e-05
38.6987	1.53473	7.95898e-05
38.7987	1.53473	8.03528e-05
38.8987	1.53473	7.94373e-05
38.9987	1.53473	7.96204e-05
39.0987	1.53473	8.03833e-05
39.1987	1.53473	8.02307e-05
39.2987	1.53473	7.95288e-05
39.3987	1.53473	8.03833e-05
39.4987	1.53473	8.02612e-05
39.5987	1.53473	7.96509e-05
39.6987	1.53473	7.99866e-05
39.7987	1.53473	8.03528e-05
39.8987	1.53473	7.95593e-05
39.9987	1.53473	7.9834e-05
40.0987	1.53473	8.05054e-05
40.1987	1.53473	8.02917e-05
40.2987	1.53473	7.95288e-05
40.3987	1.53473	8.01086e-05
40.4987	1.53473	8.02917e-05
40.5987	1.53473	7.94983e-05
40.6987	1.53473	7.97119e-05
40.7987	1.53473	8.03528e-05
40.8987	1.53473	7.97729e-05
40.9987	1.53473	7.95898e-05
41.0987	1.53473	7.99255e-05
41.1987	1.53473	8.02917e-05
41.2987	1.53473	7.97424e-05
41.3987	1.53473	7.94983e-05
41.4987	1.53473	8.02307e-05
41.5987	1.53473	8.03528e-05
41.6987	1.53473	7.9834e-05
41.7987	1.53473	7.96509e-05
41.8987	1.53473	8.01392e-05
41.9987	1.53473	8.04138e-05
42.0987	1.53503	7.95593e-05
42.1987	1.53503	7.96814e-05
42.2987	1.53503	8.03833e-05
42.3987	1.53503	7.97119e-05
42.4987	1.53503	7.96509e-05
42.5987	1.53503	7.9895e-05
42.6987	1.53503	8.03223e-05
42.7987	1.53503	7.96509e-05
42.8987	1.53503	7.98035e-05
42.9987	1.53503	8.02917e-05
43.0987	1.53503	7.95898e-05
43.1987	1.53503	7.94983e-05
43.2987	1.53503	8.03223e-05
43.3987	1.53503	8.02612e-05
43.4987	1.53503	7.94678e-05
43.5987	1.53503	8.03223e-05
43.6987	1.53503	8.04749e-05
43.7987	1.53503	8.02307e-05
43.8987	1.53503	7.97119e-05
43.9987	1.53503	8.03528e-05
44.0987	1.53503	8.01697e-05
44.1987	1.53503	7.95898e-05
44.2987	1.53503	7.97424e-05
44.3987	1.53503	8.03223e-05
44.4987	1.53503	7.95898e-05
44.5987	1.53503	7.96204e-05
44.6987	1.53534	8.03833e-05
44.7987	1.53534	7.96204e-05
44.8987	1.53534	7.95898e-05
44.9987	1.53534	7.95288e-05
45.0987	1.53534	8.02002e-05
45.1987	1.53534	7.95593e-05
45.2987	1.53534	7.99866e-05
45.3987	1.53534	8.02612e-05
45.4987	1.53534	8.04138e-05
45.5987	1.53534	7.95898e-05
45.6987	1.53534	8.04138e-05
45.7987	1.53534	7.9834e-05
45.8987	1.53534	7.96509e-05
45.9987	1.53534	8.04138e-05
46.0987	1.53534	8.00171e-05
46.1987	1.53534	8.04138e-05
46.2987	1.53534	7.98645e-05
46.3987	1.53534	8.03528e-05
46.4987	1.53534	7.96204e-05
46.5987	1.53534	7.97424e-05
46.6987	1.53534	7.95288e-05
46.7987	1.53534	7.99866e-05
46.8987	1.53534	7.96814e-05
46.9987	1.53534	8.02002e-05
47.0987	1.53534	8.03223e-05
47.1987	1.53534	7.95898e-05
47.2987	1.53534	8.00171e-05
47.3987	1.53534	7.94678e-05
47.4987	1.53534	7.98035e-05
47.5987	1.53534	7.95593e-05
47.6987	1.53534	8.02917e-05
47.7987	1.53564	8.01086e-05
47.8987	1.53564	8.04443e-05
47.9987	1.53564	8.02002e-05
48.0987	1.53564	8.03833e-05
48.1987	1.53564	7.98035e-05
48.2987	1.53564	7.95898e-05
48.3987	1.53564	8.03833e-05
48.4987	1.53564	7.97119e-05
48.5987	1.53564	8.04443e-05
48.6987	1.53564	7.97424e-05
48.7987	1.53564	8.03223e-05
48.8987	1.53564	7.9834e-05
48.9987	1.53564	7.96814e-05
49.0987	1.53564	7.95288e-05
49.1987	1.53564	7.97729e-05
49.2987	1.53564	7.95593e-05
49.3987	1.53564	8.01086e-05
49.4987	1.53564	8.02612e-05
49.5987	1.53564	7.95288e-05
49.6987	1.53564	8.01697e-05
49.7987	1.53564	7.94067e-05
49.8987	1.53564	7.97119e-05
49.9987	1.53564	7.96204e-05
50.0987	1.53564	8.03223e-05
50.1987	1.53564	7.97729e-05
50.2987	1.53564	8.03833e-05
50.3987	1.53564	8.02002e-05
50.4987	1.53564	8.00171e-05
50.5987	1.53564	7.95898e-05
50.6987	1.53564	7.98645e-05
50.7987	1.53564	8.03223e-05
50.8987	1.53564	8.00781e-05
50.9987	1.53564	8.05054e-05
51.0987	1.53564	8.04138e-05
51.1987	1.53564	7.96509e-05
51.2987	1.53564	7.96204e-05
51.3987	1.53564	8.03833e-05
51.4987	1.53595	7.95593e-05
51.5987	1.53564	8.01392e-05
51.6987	1.53564	8.01697e-05
51.7987	1.53595	8.02612e-05
51.8987	1.53595	7.95898e-05
51.9987	1.53595	7.99255e-05
52.0987	1.53595	7.96204e-05
52.1987	1.53595	7.98035e-05
52.2987	1.53595	7.97729e-05
52.3987	1.53595	8.03833e-05
52.4987	1.53595	8.02307e-05
52.5987	1.53595	7.95288e-05
52.6987	1.53595	8.02307e-05
52.7987	1.53595	7.95288e-05
52.8987	1.53595	7.96204e-05
52.9987	1.53595	7.97424e-05
53.0987	1.53595	8.04443e-05
53.1987	1.53595	7.97729e-05
53.2987	1.53595	8.04138e-05
53.3987	1.53595	8.04749e-05
53.4987	1.53595	8.01392e-05
53.5987	1.53595	7.95288e-05
53.6987	1.53595	8.00476e-05
53.7987	1.53595	8.03223e-05
53.8987	1.53595	7.95898e-05
53.9987	1.53595	7.97729e-05
54.0987	1.53595	8.04443e-05
54.1987	1.53595	7.99255e-05
54.2987	1.53595	7.95593e-05
54.3987	1.53595	8.02917e-05
54.4987	1.53595	7.97119e-05
54.5987	1.53595	7.95593e-05
54.6987	1.53595	8.00171e-05
54.7987	1.53595	8.03528e-05
54.8987	1.53625	7.95898e-05
54.9987	1.53595	7.97119e-05
55.0987	1.53595	8.03223e-05
55.1987	1.53595	8.04138e-05
55.2987	1.53595	7.95593e-05
55.3987	1.53595	8.02307e-05
55.4987	1.53625	8.03833e-05
55.5987	1.53625	7.95593e-05
55.6987	1.53625	7.9895e-05
55.7987	1.53625	7.94678e-05
55.8987	1.53625	8.00171e-05
55.9987	1.53625	7.95288e-05
56.0987	1.53625	8.03223e-05
56.1987	1.53625	8.02002e-05
56.2987	1.53625	7.95593e-05
56.3987	1.53625	8.03833e-05
56.4987	1.53625	8.04138e-05
56.5987	1.53625	7.96509e-05
56.6987	1.53625	7.96814e-05
56.7987	1.53625	8.03833e-05
56.8987	1.53625	7.9834e-05
56.9987	1.53625	7.96814e-05
57.0987	1.53625	7.97424e-05
57.1987	1.53625	8.03223e-05
57.2987	1.53625	7.96204e-05
57.3987	1.53625	7.96204e-05
57.4987	1.53625	8.04138e-05
57.5987	1.53625	7.95593e-05
57.6987	1.53625	7.95593e-05
57.7987	1.53625	8.04443e-05
57.8987	1.53625	8.01086e-05
57.9987	1.53625	7.95898e-05
58.0987	1.53625	8.00171e-05
58.1987	1.53625	8.02612e-05
58.2987	1.53625	7.9834e-05
58.3987	1.53656	7.98645e-05
58.4987	1.53625	8.03833e-05
58.5987	1.53656	7.98035e-05
58.6987	1.53656	7.95898e-05
58.7987	1.53656	8.02612e-05
58.8987	1.53656	8.04443e-05
58.9987	1.53656	7.95288e-05
59.0987	1.53656	8.00781e-05
59.1987	1.53656	8.03223e-05
59.2987	1.53656	7.95593e-05
59.3987	1.53656	7.94983e-05
59.4987	1.53656	7.96814e-05
59.5987	1.53656	8.02612e-05
59.6987	1.53656	7.95898e-05
59.7987	1.53656	8.02612e-05
59.8987	1.53656	8.02612e-05
59.9987	1.53656	8.02002e-05
60.0987	1.53656	7.94983e-05
60.1987	1.53656	8.02612e-05
60.2987	1.53656	8.01086e-05
60.3987	1.53656	7.95593e-05
60.4987	1.53656	8.02002e-05
60.5987	1.53656	8.04443e-05
60.6987	1.53656	8.03223e-05
60.7987	1.53656	7.97729e-05
60.8987	1.53656	8.02307e-05
60.9987	1.53656	7.95288e-05
61.0987	1.53656	7.97729e-05
61.1987	1.53656	7.9895e-05
61.2987	1.53656	8.04749e-05
61.3987	1.53656	7.95898e-05
61.4987	1.53656	8.03833e-05
61.5987	1.53656	7.96204e-05
61.6987	1.53656	7.96204e-05
61.7987	1.53687	7.95898e-05
61.8987	1.53656	8.01697e-05
61.9987	1.53656	7.95593e-05
62.0987	1.53656	8.02612e-05
62.1987	1.53656	8.00476e-05
62.2987	1.53656	7.95288e-05
62.3987	1.53687	7.94983e-05
62.4987	1.53656	7.95288e-05
62.5987	1.53656	8.01086e-05
62.6987	1.53687	7.96509e-05
62.7987	1.53656	8.03833e-05
62.8987	1.53687	7.96509e-05
62.9987	1.53687	8.02612e-05
63.0987	1.53687	7.96814e-05
63.1987	1.53687	8.03528e-05
63.2987	1.53687	7.95288e-05
63.3987	1.53687	8.04443e-05
63.4987	1.53687	8.00171e-05
63.5987	1.53687	8.05054e-05
63.6987	1.53687	8.04443e-05
63.7987	1.53687	8.03833e-05
63.8987	1.53687	7.97424e-05
63.9987	1.53687	7.98645e-05
64.0987	1.53687	8.03528e-05
64.1987	1.53687	7.99561e-05
64.2987	1.53687	8.04749e-05
64.3987	1.53687	7.9834e-05
64.4987	1.53687	7.9895e-05
64.5987	1.53687	7.96814e-05
64.6987	1.53687	8.04138e-05
64.7987	1.53687	8.02002e-05
64.8987	1.53687	8.03528e-05
64.9987	1.53687	7.95898e-05
65.0987	1.53687	8.03223e-05
65.1987	1.53687	7.95593e-05
65.2987	1.53687	8.04138e-05
65.3987	1.53687	7.94983e-05
65.4987	1.53687	7.98645e-05
65.5987	1.53687	7.95898e-05
65.6987	1.53687	8.03833e-05
65.7987	1.53687	7.95288e-05
65.8987	1.53687	8.02002e-05
65.9987	1.53717	7.94983e-05
66.0987	1.53687	7.97729e-05
66.1987	1.53717	7.95288e-05
66.2987	1.53717	8.03223e-05
66.3987	1.53717	7.96204e-05
66.4987	1.53717	8.00476e-05
66.5987	1.53717	7.95898e-05
66.6987	1.53717	7.94678e-05
66.7987	1.53717	7.95593e-05
66.8987	1.53717	7.99255e-05
66.9987	1.53717	8.00476e-05
67.0987	1.53717	7.96814e-05
67.1987	1.53717	7.99561e-05
67.2987	1.53717	7.97729e-05
67.3987	1.53717	7.99866e-05
67.4987	1.53717	7.96814e-05
67.5987	1.53717	8.03833e-05
67.6987	1.53717	7.94678e-05
67.7987	1.53717	8.03223e-05
67.8987	1.53717	8.01086e-05
67.9987	1.53717	8.03833e-05
68.0987	1.53717	7.95288e-05
68.1987	1.53717	8.03833e-05
68.2987	1.53717	7.95288e-05
68.3987	1.53717	8.03833e-05
68.4987	1.53717	8.01392e-05
68.5987	1.53717	8.03833e-05
68.6987	1.53717	7.96204e-05
68.7987	1.53717	8.02307e-05
68.8987	1.53717	7.97424e-05
68.9987	1.53717	8.04138e-05
69.0987	1.53717	8.04138e-05
69.1987	1.53717	8.02917e-05
69.2987	1.53717	7.98645e-05
69.3987	1.53717	7.9895e-05
69.4987	1.53717	8.00476e-05
69.5987	1.53717	8.03528e-05
69.6987	1.53717	8.05054e-05
69.7987	1.53717	8.02002e-05
69.8987	1.53717	8.01086e-05
69.9987	1.53717	7.96814e-05
70.0987	1.53717	8.02307e-05
70.1987	1.53748	8.02917e-05
70.2987	1.53717	8.04138e-05
70.3987	1.53748	8.00476e-05
70.4987	1.53748	8.02612e-05
70.5987	1.53748	7.96509e-05
70.6987	1.53748	8.03223e-05
70.7987	1.53748	7.99561e-05
70.8987	1.53748	8.03833e-05
70.9987	1.53748	7.97119e-05
71.0987	1.53748	8.03528e-05
71.1987	1.53748	7.94983e-05
71.2987	1.53748	8.03528e-05
71.3987	1.53748	7.97119e-05
71.4987	1.53748	8.02612e-05
71.5987	1.53748	7.95898e-05
71.6987	1.53748	8.03833e-05
71.7987	1.53748	7.95288e-05
71.8987	1.53748	8.03223e-05
71.9987	1.53748	7.96204e-05
72.0987	1.53748	8.00171e-05
72.1987	1.53748	7.95593e-05
72.2987	1.53748	8.03223e-05
72.3987	1.53748	7.9834e-05
72.4987	1.53748	7.99561e-05
72.5987	1.53748	7.95288e-05
72.6987	1.53748	7.96509e-05
72.7987	1.53748	7.95288e-05
72.8987	1.53748	7.99866e-05
72.9987	1.53748	8.02612e-05
73.0987	1.53748	7.9834e-05
73.1987	1.53748	7.95288e-05
73.2987	1.53748	7.95898e-05
73.3987	1.53748	7.96509e-05
73.4987	1.53778	7.97424e-05
73.5987	1.53748	8.03833e-05
73.6987	1.53748	7.95593e-05
73.7987	1.53778	7.98645e-05
73.8987	1.53778	7.94678e-05
73.9987	1.53778	8.03223e-05
74.0987	1.53778	7.95593e-05
74.1987	1.53778	8.00171e-05
74.2987	1.53778	8.02002e-05
74.3987	1.53778	8.04749e-05
74.4987	1.53778	8.02002e-05
74.5987	1.53778	8.02307e-05
74.6987	1.53778	8.03223e-05
74.7987	1.53778	7.95288e-05
74.8987	1.53778	8.04749e-05
74.9987	1.53778	8.00476e-05
75.0987	1.53778	8.04749e-05
75.1987	1.53778	7.97729e-05
75.2987	1.53778	8.03833e-05
75.3987	1.53778	7.95288e-05
75.4987	1.53778	8.01392e-05
75.5987	1.53778	7.95898e-05
75.6987	1.53778	8.02307e-05
75.7987	1.53778	7.96509e-05
75.8987	1.53778	8.02612e-05
75.9987	1.53778	8.01392e-05
76.0987	1.53778	7.97424e-05
76.1987	1.53778	7.96509e-05
76.2987	1.53778	7.95288e-05
76.3987	1.53778	7.95288e-05
76.4987	1.53778	7.97729e-05
76.5987	1.53778	8.03833e-05
76.6987	1.53778	7.95593e-05
76.7987	1.53778	8.02612e-05
76.8987	1.53809	7.94983e-05
76.9987	1.53809	7.9895e-05
77.0987	1.53809	7.95898e-05
77.1987	1.53809	8.01697e-05
77.2987	1.53809	7.9895e-05
77.3987	1.53809	8.04138e-05
77.4987	1.53809	8.03833e-05
77.5987	1.53809	8.02917e-05
77.6987	1.53809	7.94983e-05
77.7987	1.53809	7.97729e-05
77.8987	1.53809	8.02917e-05
77.9987	1.53809	7.98035e-05
78.0987	1.53809	8.05054e-05
78.1987	1.53809	8.04138e-05
78.2987	1.53809	7.99561e-05
78.3987	1.53809	7.95288e-05
78.4987	1.53809	8.03528e-05
78.5987	1.53809	7.97119e-05
78.6987	1.53809	8.03223e-05
78.7987	1.53809	8.01086e-05
78.8987	1.53809	8.03528e-05
78.9987	1.53809	7.96509e-05
79.0987	1.53809	8.00476e-05
79.1987	1.53809	7.95288e-05
79.2987	1.53809	7.9834e-05
79.3987	1.53809	7.96814e-05
79.4987	1.53809	8.04443e-05
79.5987	1.53809	8.02307e-05
79.6987	1.53809	7.94983e-05
79.7987	1.53809	7.98645e-05
79.8987	1.53809	7.94678e-05
79.9987	1.53809	7.95898e-05
80.0987	1.53809	7.97729e-05
80.1987	1.53809	8.04443e-05
80.2987	1.53809	7.97119e-05
80.3987	1.53809	8.04138e-05
80.4987	1.53809	7.9895e-05
80.5987	1.53809	8.02917e-05
80.6987	1.53809	7.95288e-05
80.7987	1.53809	8.00476e-05
80.8987	1.53809	8.03528e-05
80.9987	1.53839	7.96814e-05
81.0987	1.53839	8.04138e-05
81.1987	1.53839	8.04138e-05
81.2987	1.53839	8.01086e-05
81.3987	1.53839	7.95593e-05
81.4987	1.53839	8.00171e-05
81.5987	1.53839	7.94678e-05
81.6987	1.53839	7.98035e-05
81.7987	1.53839	7.9834e-05
81.8987	1.53839	8.03833e-05
81.9987	1.53839	7.96204e-05
82.0987	1.53839	7.96509e-05
82.1987	1.53839	7.9895e-05
82.2987	1.53839	7.94678e-05
82.3987	1.53839	7.95898e-05
82.4987	1.53839	8.03528e-05
82.5987	1.53839	8.00476e-05
82.6987	1.53839	7.95593e-05
82.7987	1.53839	8.03528e-05
82.8987	1.53839	8.01086e-05
82.9987	1.53839	7.95288e-05
83.0987	1.53839	8.02307e-05
83.1987	1.53839	8.03833e-05
83.2987	1.53839	7.95593e-05
83.3987	1.53839	8.04443e-05
83.4987	1.53839	7.99866e-05
83.5987	1.53839	7.96509e-05
83.6987	1.53839	7.99866e-05
83.7987	1.53839	8.03223e-05
83.8987	1.53839	7.96204e-05
83.9987	1.53839	8.03833e-05
84.0987	1.53839	8.04443e-05
84.1987	1.53839	8.02002e-05
84.2987	1.53839	7.96204e-05
84.3987	1.53839	8.03223e-05
84.4987	1.53839	8.01392e-05
84.5987	1.53839	7.96204e-05
84.6987	1.53839	7.97729e-05
84.7987	1.53839	8.04138e-05
84.8987	1.53839	7.95288e-05
84.9987	1.53839	7.99255e-05
85.0987	1.53839	8.02917e-05
85.1987	1.53839	7.95898e-05
85.2987	1.53839	7.94678e-05
85.3987	1.53839	8.00171e-05
85.4987	1.53839	8.00781e-05
85.5987	1.53839	7.96204e-05
85.6987	1.53839	8.04443e-05
85.7987	1.53839	7.96814e-05
85.8987	1.5387	7.97729e-05
85.9987	1.5387	7.96204e-05
86.0987	1.5387	8.02307e-05
86.1987	1.5387	7.95593e-05
86.2987	1.5387	7.99255e-05
86.3987	1.5387	8.01697e-05
86.4987	1.5387	8.02612e-05
86.5987	1.5387	7.95593e-05
86.6987	1.5387	8.03223e-05
86.7987	1.5387	7.95288e-05
86.8987	1.5387	8.02612e-05
86.9987	1.5387	8.01086e-05
87.0987	1.5387	8.02612e-05
87.1987	1.5387	7.95593e-05
87.2987	1.5387	8.03833e-05
87.3987	1.5387	7.95288e-05
87.4987	1.5387	8.01086e-05
87.5987	1.5387	8.02307e-05
87.6987	1.5387	8.04443e-05
87.7987	1.5387	7.94983e-05
87.8987	1.5387	8.03528e-05
87.9987	1.5387	7.95593e-05
88.0987	1.5387	8.00171e-05
88.1987	1.5387	8.02612e-05
88.2987	1.5387	8.04443e-05
88.3987	1.539	7.95898e-05
88.4987	1.5387	8.03528e-05
88.5987	1.539	7.96204e-05
88.6987	1.5387	7.9834e-05
88.7987	1.539	8.03223e-05
88.8987	1.539	8.03223e-05
88.9987	1.539	7.95593e-05
89.0987	1.539	8.02917e-05
89.1987	1.539	7.96509e-05
89.2987	1.539	7.99866e-05
89.3987	1.539	8.02917e-05
89.4987	1.539	8.03223e-05
89.5987	1.539	7.96814e-05
89.6987	1.539	8.03833e-05
89.7987	1.539	7.97119e-05
89.8987	1.539	7.97729e-05
89.9987	1.539	8.02917e-05
90.0987	1.539	8.04138e-05
90.1987	1.539	7.95288e-05
90.2987	1.539	8.03528e-05
90.3987	1.539	7.95898e-05
90.4987	1.539	7.99255e-05
90.5987	1.539	8.00781e-05
90.6987	1.539	8.03528e-05
90.7987	1.539	7.95898e-05
90.8987	1.539	8.01697e-05
90.9987	1.539	7.96509e-05
91.0987	1.539	7.9895e-05
91.1987	1.53931	8.03223e-05
91.2987	1.53931	7.99255e-05
91.3987	1.53931	7.97119e-05
91.4987	1.53931	8.00171e-05
91.5987	1.53931	7.98645e-05
91.6987	1.53931	7.98645e-05
91.7987	1.53931	8.03833e-05
91.8987	1.53931	7.96204e-05
91.9987	1.53931	7.9834e-05
92.0987	1.53931	7.98035e-05
92.1987	1.53931	8.00476e-05
92.2987	1.53931	7.96204e-05
92.3987	1.53931	8.03833e-05
92.4987	1.53931	7.94678e-05
92.5987	1.53931	7.99255e-05
92.6987	1.53931	7.96204e-05
92.7987	1.53931	8.02307e-05
92.8987	1.53931	7.96814e-05
92.9987	1.53931	8.04138e-05
93.0987	1.53931	7.94983e-05
93.1987	1.53931	7.9834e-05
93.2987	1.53931	7.9834e-05
93.3987	1.53931	8.01697e-05
93.4987	1.53931	7.96814e-05
93.5987	1.53931	8.03528e-05
93.6987	1.53931	7.96204e-05
93.7987	1.53931	7.99866e-05
93.8987	1.53931	7.96204e-05
93.9987	1.53931	8.04138e-05
94.0987	1.53931	7.95898e-05
94.1987	1.53931	8.03833e-05
94.2987	1.53931	7.95593e-05
94.3987	1.53931	7.99561e-05
94.4987	1.53931	7.96509e-05
94.5987	1.53931	8.03528e-05
94.6987	1.53961	7.95593e-05
94.7987	1.53931	8.04443e-05
94.8987	1.53961	8.01697e-05
94.9987	1.53931	8.03223e-05
95.0987	1.53961	7.95288e-05
95.1987	1.53931	8.03223e-05
95.2987	1.53961	7.95898e-05
95.3987	1.53961	8.04138e-05
95.4987	1.53961	7.99866e-05
95.5987	1.53961	8.02917e-05
95.6987	1.53961	7.95288e-05
95.7987	1.53961	8.02917e-05
95.8987	1.53961	7.97119e-05
95.9987	1.53961	8.00781e-05
96.0987	1.53961	8.02612e-05
96.1987	1.53961	8.04138e-05
96.2987	1.53961	7.97119e-05
96.3987	1.53961	7.98645e-05
96.4987	1.53961	8.02002e-05
96.5987	1.53961	7.97119e-05
96.6987	1.53961	8.04443e-05
96.7987	1.53961	8.04138e-05
96.8987	1.53961	8.01697e-05
96.9987	1.53961	7.95898e-05
97.0987	1.53961	8.03833e-05
97.1987	1.53961	7.95593e-05
97.2987	1.53961	8.00476e-05
97.3987	1.53961	8.01697e-05
97.4987	1.53961	8.02917e-05
97.5987	1.53961	7.95898e-05
97.6987	1.53961	8.04443e-05
97.7987	1.53961	7.95288e-05
97.8987	1.53961	7.98645e-05
97.9987	1.53961	7.9895e-05
98.0987	1.53961	8.04138e-05
98.1987	1.53961	7.96204e-05
98.2987	1.53961	8.01392e-05
98.3987	1.53961	7.9834e-05
98.4987	1.53961	7.95898e-05
98.5987	1.53961	7.96204e-05
98.6987	1.53961	8.00781e-05
98.7987	1.53961	8.02612e-05
98.8987	1.53961	7.96204e-05
98.9987	1.53961	8.03528e-05
99.0987	1.53961	8.01086e-05
99.1987	1.53961	7.97119e-05
99.2987	1.53961	7.96509e-05
99.3987	1.53961	8.03833e-05
99.4987	1.53961	7.96204e-05
99.5987	1.53961	8.04138e-05
99.6987	1.53961	8.04138e-05
99.7987	1.53961	7.99561e-05
99.8987	1.53961	8.02307e-05
99.9987	1.53961	7.97119e-05
100.099	1.53961	7.96509e-05
100.199	1.53961	8.00476e-05
100.299	1.53992	8.03528e-05
100.399	1.53992	8.04443e-05
100.499	1.53992	7.96509e-05
100.599	1.53992	7.96509e-05
100.699	1.53961	8.03833e-05
100.799	1.53992	7.96509e-05
100.899	1.53992	7.95898e-05
100.999	1.53992	8.01392e-05
101.099	1.53992	8.00781e-05
101.199	1.53992	7.95593e-05
101.299	1.53992	8.02612e-05
101.399	1.53992	7.95898e-05
101.499	1.53992	7.98035e-05
101.599	1.53992	8.01392e-05
101.699	1.53992	8.02917e-05
101.799	1.53992	7.95593e-05
101.899	1.53992	8.03833e-05
101.999	1.53992	7.97119e-05
102.099	1.53992	7.94373e-05
102.199	1.53992	7.95898e-05
102.299	1.53992	8.03833e-05
102.399	1.53992	7.97729e-05
102.499	1.53992	7.97729e-05
102.599	1.53992	8.02307e-05
102.699	1.53992	7.98645e-05
102.799	1.53992	7.94373e-05
102.899	1.53992	8.02917e-05
102.999	1.53992	8.02307e-05
103.099	1.53992	7.95898e-05
103.199	1.54022	8.03528e-05
103.299	1.54022	8.03528e-05
103.399	1.54022	8.01697e-05
103.499	1.54022	7.96814e-05
103.599	1.54022	8.03833e-05
103.699	1.54022	7.95898e-05
103.799	1.54022	8.01392e-05
103.899	1.54022	7.97424e-05
103.999	1.54022	8.04749e-05
104.099	1.54022	7.95288e-05
104.199	1.54022	8.00476e-05
104.299	1.54022	8.02917e-05
104.399	1.54022	7.95898e-05
104.499	1.54022	7.94373e-05
104.599	1.54022	8.00476e-05
104.699	1.54022	7.94983e-05
104.799	1.54022	7.97729e-05
104.899	1.54022	8.03833e-05
104.999	1.54022	7.95288e-05
105.099	1.54022	7.95593e-05
105.199	1.54022	7.99866e-05
105.299	1.54022	7.99866e-05
105.399	1.54022	7.95288e-05
105.499	1.54022	8.02917e-05
105.599	1.54022	7.96204e-05
105.699	1.54022	8.01086e-05
105.799	1.54022	7.94678e-05
105.899	1.54022	8.02612e-05
105.999	1.54022	7.95288e-05
106.099	1.54022	8.01392e-05
106.199	1.54022	8.02917e-05
106.299	1.54022	8.04749e-05
106.399	1.54022	7.9834e-05
106.499	1.54022	8.04443e-05
106.599	1.54022	7.96814e-05
106.699	1.54022	7.96204e-05
106.799	1.54022	8.04443e-05
106.899	1.54022	8.00781e-05
106.999	1.54022	8.04749e-05
107.099	1.54022	8.02612e-05
107.199	1.54022	8.03528e-05
107.299	1.54022	7.95288e-05
107.399	1.54053	8.01392e-05
107.499	1.54022	7.95898e-05
107.599	1.54053	7.9834e-05
107.699	1.54053	7.96814e-05
107.799	1.54022	8.05054e-05
107.899	1.54053	8.01697e-05
107.999	1.54053	7.95593e-05
108.099	1.54053	7.96814e-05
108.199	1.54053	7.94067e-05
108.299	1.54053	7.94983e-05
108.399	1.54053	7.96814e-05
108.499	1.54053	8.04443e-05
108.599	1.54053	7.95288e-05
108.699	1.54053	8.03528e-05
108.799	1.54053	7.97424e-05
108.899	1.54053	8.00476e-05
108.999	1.54053	7.94678e-05
109.099	1.54053	8.00476e-05
109.199	1.54053	8.02307e-05
109.299	1.54053	8.02002e-05
109.399	1.54053	8.04749e-05
109.499	1.54053	8.04443e-05
109.599	1.54053	7.97424e-05
109.699	1.54053	7.95288e-05
109.799	1.54053	8.04749e-05
109.899	1.54053	7.95288e-05
109.999	1.54053	7.96509e-05
110.099	1.54053	8.03528e-05
110.199	1.54053	8.03223e-05
110.299	1.54053	7.95288e-05
110.399	1.54053	7.99866e-05
110.499	1.54053	7.97119e-05
110.599	1.54053	7.94373e-05
110.699	1.54053	7.95898e-05
110.799	1.54053	8.04749e-05
110.899	1.54053	8.00171e-05
110.999	1.54053	7.95288e-05
111.099	1.54053	8.03223e-05
111.199	1.54053	8.01086e-05
111.299	1.54053	7.95288e-05
111.399	1.54053	7.98035e-05
111.499	1.54053	8.04138e-05
111.599	1.54053	7.96814e-05
111.699	1.54053	8.03833e-05
111.799	1.54053	8.05969e-05
111.899	1.54053	8.00171e-05
111.999	1.54053	7.95288e-05
112.099	1.54053	8.00476e-05
112.199	1.54053	8.03223e-05
112.299	1.54053	7.96509e-05
112.399	1.54053	7.97119e-05
112.499	1.54053	8.04443e-05
112.599	1.54053	7.96204e-05
112.699	1.54053	7.95288e-05
112.799	1.54053	8.03833e-05
112.899	1.54053	7.94983e-05
112.999	1.54053	7.94983e-05
113.099	1.54053	8.00476e-05
113.199	1.54053	8.04138e-05
113.299	1.54053	7.95898e-05
113.399	1.54053	7.98035e-05
113.499	1.54053	8.02612e-05
113.599	1.54053	8.03528e-05
113.699	1.54053	7.94678e-05
113.799	1.54053	8.02612e-05
113.899	1.54053	8.03833e-05
113.999	1.54053	7.95898e-05
114.099	1.54053	8.03833e-05
114.199	1.54053	8.04138e-05
114.299	1.54053	7.95898e-05
114.399	1.54053	7.96509e-05
114.499	1.54053	8.04138e-05
114.599	1.54053	8.02917e-05
114.699	1.54053	7.96204e-05
114.799	1.54053	7.96814e-05
114.899	1.54053	8.04443e-05
114.999	1.54053	7.98035e-05
115.099	1.54053	7.94983e-05
115.199	1.54053	8.01086e-05
115.299	1.54053	7.99866e-05
115.399	1.54053	7.95593e-05
115.499	1.54053	7.96509e-05
115.599	1.54053	8.03833e-05
115.699	1.54053	7.97424e-05
115.799	1.54053	7.94983e-05
115.899	1.54053	8.04138e-05
115.999	1.54053	8.04138e-05
116.099	1.54053	7.95898e-05
116.199	1.54053	7.9834e-05
116.299	1.54053	8.03528e-05
116.399	1.54053	7.96509e-05
116.499	1.54053	7.99561e-05
116.599	1.54053	7.97119e-05
116.699	1.54053	8.01697e-05
116.799	1.54053	7.95593e-05
116.899	1.54053	8.03833e-05
116.999	1.54053	8.00781e-05
117.099	1.54053	7.95898e-05
117.199	1.54053	7.96204e-05
117.299	1.54053	8.03833e-05
117.399	1.54053	7.94983e-05
117.499	1.54053	8.00781e-05
117.599	1.54053	8.03223e-05
117.699	1.54053	7.94678e-05
117.799	1.54053	7.94983e-05
117.899	1.54053	8.03833e-05
117.999	1.54053	7.97119e-05
118.099	1.54053	7.95593e-05
118.199	1.54053	8.04749e-05
118.299	1.54053	7.95898e-05
118.399	1.54053	7.99561e-05
118.499	1.54053	8.00171e-05
118.599	1.54053	8.01086e-05
118.699	1.54083	7.94983e-05
118.799	1.54053	8.02612e-05
118.899	1.54053	7.99561e-05
118.999	1.54053	8.02307e-05
119.099	1.54053	7.96204e-05
119.199	1.54053	8.03223e-05
119.299	1.54053	7.95288e-05
119.399	1.54053	7.99255e-05
119.499	1.54083	8.02612e-05
119.599	1.54053	8.04443e-05
119.699	1.54053	7.94983e-05
119.799	1.54053	8.04138e-05
119.899	1.54053	7.9834e-05
119.999	1.54083	7.95593e-05
120.099	1.54083	8.04138e-05
120.199	1.54053	8.02612e-05
120.299	1.54083	7.97729e-05
120.399	1.54053	7.99255e-05
120.499	1.54083	8.02917e-05
120.599	1.54083	7.94983e-05
120.699	1.54083	8.01697e-05
120.799	1.54083	7.96509e-05
120.899	1.54083	8.02917e-05
120.999	1.54083	7.96204e-05
121.099	1.54083	8.03528e-05
121.199	1.54083	7.98645e-05
121.299	1.54083	7.97119e-05
121.399	1.54083	7.94678e-05
121.499	1.54083	8.03833e-05
121.599	1.54083	7.95898e-05
121.699	1.54083	8.01086e-05
121.799	1.54083	8.02612e-05
121.899	1.54083	7.95593e-05
121.999	1.54083	7.96814e-05
122.099	1.54083	7.98035e-05
122.199	1.54083	7.98035e-05
122.299	1.54083	7.96204e-05
122.399	1.54083	8.04443e-05
122.499	1.54083	7.96509e-05
122.599	1.54083	8.02612e-05
122.699	1.54083	7.95288e-05
122.799	1.54083	8.03833e-05
122.899	1.54083	7.95593e-05
122.999	1.54083	8.01392e-05
123.099	1.54053	8.00476e-05
123.199	1.54083	8.04749e-05
123.299	1.54083	7.96204e-05
123.399	1.54083	8.02917e-05
123.499	1.54083	7.95898e-05
123.599	1.54083	7.97729e-05
123.699	1.54083	8.03528e-05
123.799	1.54083	7.99255e-05
123.899	1.54083	7.98645e-05
123.999	1.54083	8.01086e-05
124.099	1.54083	8.01086e-05
124.199	1.54083	7.96509e-05
124.299	1.54083	8.03833e-05
124.399	1.54083	7.95898e-05
124.499	1.54083	8.02307e-05
124.599	1.54083	7.96204e-05
124.699	1.54083	8.03833e-05
124.799	1.54083	7.96509e-05
124.899	1.54083	7.97729e-05
124.999	1.54083	7.95593e-05
125.099	1.54083	8.02612e-05
125.199	1.54083	7.96814e-05
125.299	1.54083	7.9895e-05
125.399	1.54083	8.02002e-05
125.499	1.54083	7.95288e-05
125.599	1.54083	8.04749e-05
125.699	1.54083	7.97119e-05
125.799	1.54083	8.03528e-05
125.899	1.54083	7.95593e-05
125.999	1.54083	8.03833e-05
126.099	1.54083	7.9834e-05
126.199	1.54083	8.00476e-05
126.299	1.54083	7.95288e-05
126.399	1.54083	8.02917e-05
126.499	1.54083	7.97119e-05
126.599	1.54114	7.98035e-05
126.699	1.54083	8.03528e-05
126.799	1.54083	7.94983e-05
126.899	1.54114	7.99255e-05
126.999	1.54083	7.97424e-05
127.099	1.54114	8.02917e-05
127.199	1.54114	7.95898e-05
127.299	1.54114	8.02307e-05
127.399	1.54114	7.95898e-05
127.499	1.54114	8.03528e-05
127.599	1.54114	7.95898e-05
127.699	1.54114	8.03833e-05
127.799	1.54114	7.96509e-05
127.899	1.54114	7.97729e-05
127.999	1.54114	7.96814e-05
128.099	1.54114	8.03223e-05
128.199	1.54114	7.97119e-05
128.299	1.54114	7.98645e-05
128.399	1.54114	8.02307e-05
128.499	1.54114	7.95593e-05
128.599	1.54114	8.03528e-05
128.699	1.54114	7.96814e-05
128.799	1.54114	8.03223e-05
128.899	1.54114	7.95898e-05
128.999	1.54114	8.03223e-05
129.099	1.54114	8.00781e-05
129.199	1.54114	8.04443e-05
129.299	1.54114	7.95593e-05
129.399	1.54114	8.03528e-05
129.499	1.54114	7.96204e-05
129.599	1.54114	7.9834e-05
129.699	1.54114	8.02917e-05
129.799	1.54114	8.01697e-05
129.899	1.54114	7.98035e-05
129.999	1.54114	7.99255e-05
130.099	1.54114	8.00476e-05
130.199	1.54114	7.96509e-05
130.299	1.54114	8.03833e-05
130.399	1.54114	7.9834e-05
130.499	1.54114	8.01086e-05
130.599	1.54114	7.96814e-05
130.699	1.54114	8.02917e-05
130.799	1.54114	7.95593e-05
130.899	1.54114	8.00781e-05
130.999	1.54114	7.95288e-05
131.099	1.54114	8.03833e-05
131.199	1.54114	7.94678e-05
131.299	1.54114	8.03223e-05
131.399	1.54114	8.00476e-05
131.499	1.54114	7.96509e-05
131.599	1.54114	7.97424e-05
131.699	1.54114	8.03833e-05
131.799	1.54114	7.96509e-05
131.899	1.54114	8.00781e-05
131.999	1.54114	8.02917e-05
132.099	1.54114	7.95593e-05
132.199	1.54114	8.01697e-05
132.299	1.54114	7.98645e-05
132.399	1.54114	8.00476e-05
132.499	1.54114	7.96509e-05
132.599	1.54114	8.03833e-05
132.699	1.54114	7.97729e-05
132.799	1.54114	8.03528e-05
132.899	1.54114	7.96204e-05
132.999	1.54114	8.02917e-05
133.099	1.54114	7.95593e-05
133.199	1.54114	8.00476e-05
133.299	1.54114	8.01697e-05
133.399	1.54114	8.04749e-05
133.499	1.54114	7.95898e-05
133.599	1.54114	8.03833e-05
133.699	1.54114	7.95898e-05
133.799	1.54114	7.97119e-05
133.899	1.54114	8.03223e-05
133.999	1.54114	8.02917e-05
134.099	1.54114	7.97119e-05
134.199	1.54114	8.02612e-05
134.299	1.54114	7.99255e-05
134.399	1.54114	7.95593e-05
134.499	1.54114	8.04138e-05
134.599	1.54114	8.03833e-05
134.699	1.54114	7.99866e-05
134.799	1.54114	7.97729e-05
134.899	1.54114	8.02917e-05
134.999	1.54114	7.96204e-05
135.099	1.54114	8.03528e-05
135.199	1.54144	8.02002e-05
135.299	1.54144	8.00476e-05
135.399	1.54114	7.96509e-05
135.499	1.54144	8.03833e-05
135.599	1.54144	7.97119e-05
135.699	1.54114	7.97424e-05
135.799	1.54144	7.96509e-05
135.899	1.54144	8.03833e-05
135.999	1.54144	7.95593e-05
136.099	1.54144	8.02307e-05
136.199	1.54144	8.02917e-05
136.299	1.54144	7.95593e-05
136.399	1.54144	7.94983e-05
136.499	1.54144	8.01392e-05
136.599	1.54144	7.97729e-05
136.699	1.54144	7.97424e-05
136.799	1.54144	8.03833e-05
136.899	1.54144	7.97729e-05
136.999	1.54144	7.96509e-05
137.099	1.54144	7.95898e-05
137.199	1.54144	8.03223e-05
137.299	1.54144	7.95593e-05
137.399	1.54144	7.98645e-05
137.499	1.54144	8.02612e-05
137.599	1.54144	8.03223e-05
137.699	1.54144	7.95593e-05
137.799	1.54144	8.04138e-05
137.899	1.54144	7.95898e-05
137.999	1.54144	8.01392e-05
138.099	1.54144	8.03528e-05
138.199	1.54144	8.04443e-05
138.299	1.54144	7.95593e-05
138.399	1.54144	8.03528e-05
138.499	1.54144	7.98645e-05
138.599	1.54144	7.97119e-05
138.699	1.54144	8.03833e-05
138.799	1.54144	8.04138e-05
138.899	1.54144	7.96814e-05
138.999	1.54144	8.00171e-05
139.099	1.54144	8.00171e-05
139.199	1.54144	7.96204e-05
139.299	1.54144	8.03223e-05
139.399	1.54175	8.04443e-05
139.499	1.54144	8.02307e-05
139.599	1.54175	7.96204e-05
139.699	1.54144	8.02917e-05
139.799	1.54175	7.95898e-05
139.899	1.54144	8.03223e-05
139.999	1.54144	7.96814e-05
140.099	1.54175	8.04138e-05
140.199	1.54175	7.95898e-05
140.299	1.54144	8.03528e-05
140.399	1.54175	7.95898e-05
140.499	1.54175	8.02612e-05
140.599	1.54175	7.97424e-05
140.699	1.54175	8.02002e-05
140.799	1.54175	7.95898e-05
140.899	1.54175	8.03223e-05
140.999	1.54175	7.96204e-05
141.099	1.54175	8.02002e-05
141.199	1.54175	8.00781e-05
141.299	1.54175	8.03833e-05
141.399	1.54175	7.95593e-05
141.499	1.54175	8.03528e-05
141.599	1.54175	7.95898e-05
141.699	1.54175	8.01086e-05
141.799	1.54175	7.99561e-05
141.899	1.54175	8.03833e-05
141.999	1.54175	7.96204e-05
142.099	1.54175	8.01392e-05
142.199	1.54175	8.02307e-05
142.299	1.54175	7.95898e-05
142.399	1.54175	7.96204e-05
142.499	1.54175	7.9895e-05
142.599	1.54175	8.02612e-05
142.699	1.54175	7.96814e-05
142.799	1.54175	8.03833e-05
142.899	1.54175	7.95898e-05
142.999	1.54175	7.94983e-05
143.099	1.54175	7.95593e-05
143.199	1.54175	8.03833e-05
143.299	1.54175	7.95898e-05
143.399	1.54175	8.01392e-05
143.499	1.54175	7.96814e-05
143.599	1.54175	7.94983e-05
143.699	1.54175	7.95288e-05
143.799	1.54175	8.02002e-05
143.899	1.54175	7.9834e-05
143.999	1.54175	7.99866e-05
144.099	1.54205	7.97729e-05
144.199	1.54205	7.96509e-05
144.299	1.54175	7.96204e-05
144.399	1.54205	8.00476e-05
144.499	1.54205	7.99561e-05
144.599	1.54175	7.9834e-05
144.699	1.54205	7.96509e-05
144.799	1.54205	7.96814e-05
144.899	1.54205	7.96814e-05
144.999	1.54205	7.97119e-05
145.099	1.54205	8.04138e-05
145.199	1.54205	7.96204e-05
145.299	1.54205	8.03223e-05
145.399	1.54205	8.02002e-05
145.499	1.54205	8.01392e-05
145.599	1.54205	7.95593e-05
145.699	1.54205	8.03833e-05
145.799	1.54205	7.96204e-05
145.899	1.54205	8.04138e-05
145.999	1.54205	7.99255e-05
146.099	1.54205	7.99561e-05
146.199	1.54205	7.95288e-05
146.299	1.54205	8.02307e-05
146.399	1.54205	7.98035e-05
146.499	1.54205	8.04138e-05
146.599	1.54205	8.00171e-05
146.699	1.54205	8.02612e-05
146.799	1.54205	7.95288e-05
146.899	1.54205	7.99866e-05
146.999	1.54205	8.00781e-05
147.099	1.54205	8.04443e-05
147.199	1.54205	8.00171e-05
147.299	1.54205	8.03223e-05
147.399	1.54205	7.95898e-05
147.499	1.54236	7.97729e-05
147.599	1.54205	8.02917e-05
147.699	1.54236	8.03223e-05
147.799	1.54236	8.02917e-05
147.899	1.54236	8.03833e-05
147.999	1.54236	7.99561e-05
148.099	1.54236	7.95593e-05
148.199	1.54236	8.04138e-05
148.299	1.54236	7.96814e-05
148.399	1.54236	8.04443e-05
148.499	1.54236	8.01392e-05
148.599	1.54236	8.03223e-05
148.699	1.54236	7.96204e-05
148.799	1.54236	7.9834e-05
148.899	1.54236	7.95288e-05
148.999	1.54236	7.98035e-05
149.099	1.54236	7.96204e-05
149.199	1.54236	8.03833e-05
149.299	1.54236	8.02307e-05
149.399	1.54236	7.95898e-05
149.499	1.54236	8.01697e-05
149.599	1.54236	7.94678e-05
149.699	1.54236	7.95288e-05
149.799	1.54236	7.9834e-05
149.899	1.54236	8.03528e-05
149.999	1.54236	7.95898e-05
150.099	1.54236	8.03833e-05
150.199	1.54236	8.00171e-05
150.299	1.54236	7.9895e-05
150.399	1.54236	7.96509e-05
150.499	1.54236	8.03833e-05
150.599	1.54236	7.98035e-05
150.699	1.54236	8.03528e-05
150.799	1.54236	8.01392e-05
150.899	1.54236	8.02307e-05
150.999	1.54236	7.95288e-05
151.099	1.54236	8.01086e-05
151.199	1.54236	8.03528e-05
151.299	1.54236	7.96814e-05
151.399	1.54266	8.04443e-05
151.499	1.54236	8.03833e-05
151.599	1.54236	7.97119e-05
151.699	1.54236	7.97424e-05
151.799	1.54236	8.03833e-05
151.899	1.54236	7.95898e-05
151.999	1.54236	8.01086e-05
152.099	1.54266	8.02307e-05
152.199	1.54266	7.97424e-05
152.299	1.54266	7.96509e-05
152.399	1.54266	8.03528e-05
152.499	1.54266	7.94983e-05
152.599	1.54266	7.96814e-05
152.699	1.54266	7.99255e-05
152.799	1.54266	8.02002e-05
152.899	1.54266	7.95898e-05
152.999	1.54266	8.03833e-05
153.099	1.54266	7.95288e-05
153.199	1.54266	7.95288e-05
153.299	1.54266	7.95593e-05
153.399	1.54266	8.02917e-05
153.499	1.54266	7.95288e-05
153.599	1.54266	7.98645e-05
153.699	1.54266	7.9895e-05
153.799	1.54266	7.95288e-05
153.899	1.54266	7.95593e-05
153.999	1.54266	8.02917e-05
154.099	1.54266	7.99561e-05
154.199	1.54266	7.96204e-05
154.299	1.54266	8.03528e-05
154.399	1.54266	7.99255e-05
154.499	1.54266	7.99866e-05
154.599	1.54266	7.97424e-05
154.699	1.54266	8.03223e-05
154.799	1.54297	7.95898e-05
154.899	1.54266	8.04443e-05
154.999	1.54266	8.03833e-05
155.099	1.54297	8.03528e-05
155.199	1.54266	7.95593e-05
155.299	1.54266	8.03528e-05
155.399	1.54297	7.94678e-05
155.499	1.54266	8.04443e-05
155.599	1.54297	8.04138e-05
155.699	1.54297	8.03833e-05
155.799	1.54266	7.94983e-05
155.899	1.54297	8.03833e-05
155.999	1.54297	7.95288e-05
156.099	1.54297	8.05359e-05
156.199	1.54297	8.04443e-05
156.299	1.54297	8.04749e-05
156.399	1.54297	7.95288e-05
156.499	1.54297	8.04138e-05
156.599	1.54297	7.95898e-05
156.699	1.54297	8.03528e-05
156.799	1.54297	8.03833e-05
156.899	1.54297	8.04443e-05
156.999	1.54297	7.96204e-05
157.099	1.54297	8.01086e-05
157.199	1.54297	7.99561e-05
157.299	1.54297	7.99255e-05
157.399	1.54297	7.98035e-05
157.499	1.54297	8.01392e-05
157.599	1.54297	8.02002e-05
157.699	1.54297	7.97729e-05
157.799	1.54327	8.02612e-05
157.899	1.54327	7.97424e-05
157.999	1.54327	7.9895e-05
158.099	1.54327	8.00171e-05
158.199	1.54327	8.03223e-05
158.299	1.54327	7.95593e-05
158.399	1.54327	8.04443e-05
158.499	1.54327	7.94983e-05
158.599	1.54327	7.97424e-05
158.699	1.54327	7.96814e-05
158.799	1.54327	8.03833e-05
158.899	1.54327	7.94983e-05
158.999	1.54327	8.03528e-05
159.099	1.54327	7.94983e-05
159.199	1.54327	7.94678e-05
159.299	1.54327	7.95898e-05
159.399	1.54327	8.03223e-05
159.499	1.54327	8.00476e-05
159.599	1.54327	7.96814e-05
159.699	1.54327	7.96509e-05
159.799	1.54327	7.94373e-05
159.899	1.54327	7.95288e-05
159.999	1.54327	7.96814e-05
160.099	1.54327	8.03833e-05
160.199	1.54327	7.95288e-05
160.299	1.54327	8.03223e-05
160.399	1.54327	7.96509e-05
160.499	1.54327	7.97424e-05
160.599	1.54327	7.95898e-05
160.699	1.54327	8.03528e-05
160.799	1.54327	7.95898e-05
160.899	1.54327	8.04138e-05
160.999	1.54327	7.96509e-05
161.099	1.54327	7.98035e-05
161.199	1.54327	7.95593e-05
161.299	1.54327	8.01697e-05
161.399	1.54327	8.00781e-05
161.499	1.54327	8.04138e-05
161.599	1.54327	8.00781e-05
161.699	1.54327	8.03833e-05
161.799	1.54327	7.97119e-05
161.899	1.54327	7.96509e-05
161.999	1.54327	8.03223e-05
162.099	1.54327	8.02002e-05
162.199	1.54327	8.04138e-05
162.299	1.54327	8.02612e-05
162.399	1.54327	8.02612e-05
162.499	1.54327	7.96204e-05
162.599	1.54327	8.01697e-05
162.699	1.54327	7.96204e-05
162.799	1.54327	8.03528e-05
162.899	1.54327	7.9834e-05
162.999	1.54327	8.02917e-05
163.099	1.54327	7.97119e-05
163.199	1.54327	7.97119e-05
163.299	1.54327	7.94983e-05
163.399	1.54327	7.98035e-05
163.499	1.54327	7.95898e-05
163.599	1.54327	8.02917e-05