File: Edgar/20240424/20240424/CV/sample-20240417_A/CV_2
Time (s)	Scan	WE(1).Potential (V)	WE(1).Current (A)	External(1).External 2 (V)	Q+	Q-
429.076	1	0.113922	9.49249e-07	3.0896
431.151	1	0.0864563	-1.2146e-05	3.10944
433.226	1	0.0486145	-2.44171e-05	3.09021
435.301	1	0.00591431	-3.75305e-05	3.0899
437.376	1	-0.0344482	-5.00793e-05	3.03162
439.452	1	-0.0792542	-6.21033e-05	3.03192
441.527	1	-0.119476	-7.26013e-05	2.97272
443.602	1	-0.162018	-8.1543e-05	2.91412
445.677	1	-0.202911	-9.0332e-05	2.87628
447.752	1	-0.243866	-0.000100769	2.79663
449.828	1	-0.284485	-0.000114777	2.73926
451.903	1	-0.325623	-0.000133759	2.6413
453.978	1	-0.367554	-0.000157715	2.56317
456.053	1	-0.409271	-0.000184509	2.44232
458.128	1	-0.450592	-0.000212067	2.32544
460.203	1	-0.491638	-0.00023819	2.20673
462.279	1	-0.469543	-0.000130737	2.09198
464.354	1	-0.427521	-3.08441e-05	2.01294
466.429	1	-0.386353	4.1806e-05	1.99158
468.504	1	-0.345032	9.71985e-05	2.03125
470.579	1	-0.303864	0.000139923	2.07092
472.655	1	-0.261566	0.000170746	2.16827
474.73	1	-0.221527	0.000189331	2.265625
476.805	1	-0.18042	0.000194458	2.42218
478.88	1	-0.138214	0.000185608	2.60223
480.955	1	-0.0983887	0.000161407	2.73926
483.031	1	-0.0567932	0.000128601	2.83569
485.106	1	-0.0123291	9.84192e-05	2.93335
487.181	1	0.0279419	7.42798e-05	2.99255
489.256	1	0.0678101	5.44128e-05	3.03131
491.331	1	0.108978	3.62183e-05	3.05054
493.407	2	0.149963	1.99188e-05	3.07098
495.482	2	0.192169	9.20715e-06	3.07068
497.557	2	0.233154	5.28564e-06	3.0899
499.632	2	0.274628	3.68866e-06	3.0896
501.707	2	0.31604	2.95319e-06	3.0896
503.782	2	0.356323	2.44568e-06	3.09021
505.858	2	0.397278	2.15271e-06	3.06976
507.933	2	0.43924	1.90643e-06	3.08929
510.008	2	0.480103	1.74408e-06	3.06976
512.083	2	0.521881	1.60583e-06	3.0896
514.158	2	0.563812	1.48682e-06	3.07037
516.234	2	0.605164	1.4209e-06	3.06976
518.309	2	0.64563	1.3031e-06	3.0896
520.384	2	0.687653	1.31287e-06	3.06976
522.459	2	0.728088	1.19751e-06	3.08838
524.534	2	0.769043	1.23077e-06	3.07037
526.61	2	0.810547	1.1673e-06	3.06976
528.685	2	0.852966	1.18011e-06	3.06915
530.76	2	0.89447	1.15021e-06	3.05054
532.835	2	0.935364	1.15601e-06	3.04993
534.91	2	0.977478	1.14594e-06	3.04962
536.986	2	0.974731	9.15222e-07	3.06915
539.061	2	0.932617	7.96509e-07	3.06946
541.136	2	0.891113	6.67114e-07	3.06915
543.211	2	0.850525	6.76575e-07	3.07068
545.286	2	0.808411	5.65796e-07	3.06976
547.361	2	0.765991	5.55115e-07	3.04962
549.437	2	0.725891	5.05371e-07	3.06946
551.512	2	0.685211	4.73022e-07	3.06915
553.587	2	0.64386	4.59595e-07	3.05023
555.662	2	0.601837	3.85742e-07	3.06976
557.737	2	0.561157	4.32434e-07	3.08929
559.813	2	0.518951	3.31421e-07	3.06946
561.888	2	0.47757	3.78418e-07	3.08929
563.963	2	0.436859	2.83508e-07	3.07007
566.038	2	0.396057	3.14026e-07	3.07037
568.113	2	0.354187	2.3468e-07	3.06976
570.189	2	0.313599	2.4292e-07	3.08929
572.264	2	0.272156	1.297e-07	3.07007
574.339	2	0.229889	3.05481e-08	3.07007
576.414	2	0.188263	-7.79419e-07	3.0896
578.489	2	0.147034	-3.96973e-06	3.06976
580.564	2	0.106445	-1.14502e-05	3.07007
582.64	2	0.0655823	-2.21252e-05	3.07068
584.715	2	0.0264343	-3.41736e-05	3.07037
586.79	2	-0.0155823	-4.58374e-05	3.03192
588.865	2	-0.0598145	-5.70068e-05	2.99225
590.94	2	-0.101257	-6.70166e-05	2.97211
593.016	2	-0.142365	-7.52258e-05	2.89459
595.091	2	-0.18338	-8.30994e-05	2.8363
597.166	2	-0.223999	-9.21326e-05	2.79694
599.241	2	-0.265656	-0.000104095	2.72034
601.316	2	-0.307404	-0.000120361	2.6416
603.392	2	-0.348816	-0.000142029	2.56317
605.467	2	-0.388641	-0.000167572	2.42218
607.542	2	-0.430573	-0.00019519	2.3053
609.617	2	-0.471436	-0.000222382	2.16797
611.692	2	-0.488037	-0.000190918	2.0517
613.768	2	-0.446899	-7.13196e-05	1.93329
615.843	2	-0.406219	1.171875E-05	1.89484
617.918	2	-0.364258	7.41272e-05	1.91376
619.993	2	-0.323151	0.000122192	1.93359
622.068	2	-0.281097	0.000158478	2.03094
624.143	2	-0.240753	0.000182983	2.14935
626.219	2	-0.199646	0.000194458	2.24609
628.294	2	-0.158447	0.000192505	2.42249
630.369	2	-0.116486	0.000175201	2.62115
632.444	2	-0.0757751	0.000144745	2.75818
634.519	2	-0.0318756	0.00011203	2.85553
636.595	2	0.00958862	8.49915e-05	2.91443
638.67	2	0.0476074	6.35681e-05	2.97333
640.745	2	0.0890503	4.52423e-05	3.01208
642.82	3	0.131042	2.79846e-05	3.03192
644.895	3	0.171906	1.34796e-05	3.05023
646.971	3	0.212708	6.57349e-06	3.05023
649.046	3	0.254517	4.13849e-06	3.07007
651.121	3	0.296204	3.16925e-06	3.03131
653.196	3	0.337616	2.55676e-06	3.05084
655.271	3	0.379089	2.19055e-06	3.06976
657.347	3	0.420471	1.93726e-06	3.07007
659.422	3	0.46106	1.7276e-06	3.07068
661.497	3	0.501923	1.6217e-06	3.05054
663.572	3	0.543274	1.43524e-06	3.06946
665.647	3	0.584473	1.40625E-06	3.05054
667.722	3	0.626007	1.25793e-06	3.05023
669.798	3	0.668274	1.21582e-06	3.07007
671.873	3	0.709625	1.13068e-06	3.08899
673.948	3	0.750122	1.10229e-06	3.04993
676.023	3	0.79071	1.03149e-06	3.06946
678.098	3	0.833435	1.01898e-06	3.03101
680.174	3	0.873413	9.70459e-07	3.06946
682.249	3	0.916138	9.95178e-07	3.04993
684.324	3	0.956726	9.8114e-07	3.07007
686.399	3	0.993042	9.76868e-07	3.07007
688.474	3	0.951233	7.65686e-07	3.07007
690.55	3	0.910339	6.56738e-07	3.06946
692.625	3	0.869141	6.43005e-07	3.04993
694.7	3	0.826721	5.29785e-07	3.06915
696.775	3	0.786743	5.51758e-07	3.05054
698.85	3	0.743713	4.74854e-07	3.07007
700.926	3	0.703979	4.67224e-07	3.03131
703.001	3	0.662537	4.22363e-07	2.97272
705.076	3	0.621124	4.13208e-07	2.95319
707.151	3	0.579956	3.74451e-07	2.99255
709.226	3	0.538727	3.64075e-07	3.03162
711.301	3	0.497192	3.35693e-07	3.08929
713.377	3	0.455811	2.96021e-07	3.07068
715.452	3	0.415009	2.84424e-07	3.05084
717.527	3	0.373169	2.22168e-07	3.05206
719.602	3	0.332062	2.29797e-07	3.09021
721.677	3	0.290436	1.35803e-07	3.07007
723.753	3	0.249146	9.85718e-08	3.07068
725.828	3	0.207886	-3.33282e-07	3.05084
727.903	3	0.167542	-2.07642e-06	3.03162
729.978	3	0.125671	-7.83386e-06	3.05054
732.053	3	0.0848389	-1.74438e-05	3.07068
734.129	3	0.0461273	-2.91687e-05	3.05145
736.204	3	0.00463562	-4.08844e-05	3.03162
738.279	3	-0.036676	-5.21851e-05	2.99316
740.354	3	-0.0816956	-6.26831e-05	2.97363
742.429	3	-0.122498	-7.14722e-05	2.91412
744.505	3	-0.164093	-7.92542e-05	2.87628
746.58	3	-0.205139	-8.75854e-05	2.81586
748.655	3	-0.246582	-9.80225e-05	2.72034
750.73	3	-0.286896	-0.000112122	2.66022
752.805	3	-0.328491	-0.000131409	2.54395
754.88	3	-0.369171	-0.000155304	2.44202
756.956	3	-0.411285	-0.000182251	2.32452
759.031	3	-0.452209	-0.000209625	2.16797
761.106	3	-0.493134	-0.000236023	2.05078
763.181	3	-0.466248	-0.000121185	1.91376
765.256	3	-0.425354	-2.43073e-05	1.85577
767.332	3	-0.383209	4.66705e-05	1.83594
769.407	3	-0.342834	0.000100769	1.87561
771.482	3	-0.30069	0.000142609	1.93359
773.557	3	-0.259796	0.000172638	2.01294
775.632	3	-0.218506	0.000190399	2.12952
777.708	3	-0.176971	0.000194794	2.30469
779.783	3	-0.1362	0.000184784	2.47986
781.858	3	-0.0950623	0.000159546	2.66052
783.933	3	-0.0542297	0.000126251	2.7771
786.008	3	-0.0102386	9.6405e-05	2.87506
788.083	3	0.0304077	7.29065e-05	2.93427
790.159	3	0.0699768	5.39246e-05	2.97363
792.234	3	0.11142	3.65814e-05	3.01208
794.309	4	0.151947	2.00867e-05	3.05023
796.384	4	0.194305	9.05457e-06	3.05084
798.459	4	0.234589	5.03845e-06	3.03131
800.535	4	0.276855	3.62183e-06	3.04993
802.61	4	0.317352	2.86652e-06	3.05054
804.685	4	0.359344	2.39899e-06	3.05023
806.76	4	0.40094	2.11884e-06	3.05054
808.835	4	0.441925	1.85089e-06	3.05084
810.911	4	0.483215	1.75568e-06	3.05054
812.986	4	0.523895	1.55792e-06	3.04993
815.061	4	0.566254	1.47095e-06	3.0307
817.136	4	0.607117	1.37665e-06	3.04962
819.211	4	0.647797	1.28296e-06	3.04993
821.287	4	0.689148	1.21826e-06	3.03192
823.362	4	0.730652	1.13739e-06	3.06915
825.437	4	0.770874	1.1084e-06	3.04962
827.512	4	0.812988	1.03394e-06	3.06976
829.587	4	0.853882	1.026e-06	3.04962
831.662	4	0.895996	9.83582e-07	3.04962
833.738	4	0.938721	1.00525e-06	3.05084
835.813	4	0.979309	9.88464e-07	3.05023
837.888	4	0.971375	8.45642e-07	3.05054
839.963	4	0.931396	7.06787e-07	3.05054
842.038	4	0.887756	6.64978e-07	3.05054
844.114	4	0.846558	5.61218e-07	3.05084
846.189	4	0.805664	5.85022e-07	3.05084
848.264	4	0.765381	4.7699e-07	3.04962
850.339	4	0.724243	5.19104e-07	3.04993
852.414	4	0.682465	4.10461e-07	3.07007
854.49	4	0.640839	4.35486e-07	3.07037
856.565	4	0.600159	3.89404e-07	3.04993
858.64	4	0.557922	3.69568e-07	3.07037
860.715	4	0.516815	3.50952e-07	3.05054
862.79	4	0.475311	3.15857e-07	3.04993
864.866	4	0.434784	3.05481e-07	3.05054
866.941	4	0.393707	2.45361e-07	3.06915
869.016	4	0.352112	2.6825e-07	3.06946
871.091	4	0.310425	1.57776e-07	3.05023
873.166	4	0.268707	1.39771e-07	3.07007
875.241	4	0.228241	-6.80237e-08	3.07007
877.317	4	0.186707	-9.58557e-07	3.05054
879.392	4	0.144867	-4.70276e-06	3.07007
881.467	4	0.103485	-1.28693e-05	3.05054
883.542	4	0.0619202	-2.39288e-05	3.03162
885.617	4	0.0242218	-3.58307e-05	3.03223
887.693	4	-0.018158	-4.69452e-05	3.03101
889.768	4	-0.0621338	-5.78918e-05	2.97241
891.843	4	-0.103271	-6.73218e-05	2.95319
893.918	4	-0.144135	-7.53479e-05	2.87506
895.993	4	-0.185242	-8.31299e-05	2.836
898.069	4	-0.2276	-9.24377e-05	2.75787
900.144	4	-0.268005	-0.000104553	2.68036
902.219	4	-0.309113	-0.000121307	2.5827
904.294	4	-0.350189	-0.000143158	2.48016
906.369	4	-0.392181	-0.000168823	2.36328
908.445	4	-0.433441	-0.000196198	2.22778
910.52	4	-0.474152	-0.000223083	2.09045
912.595	4	-0.515869	-0.000248627	1.93359
914.67	4	-0.556427	-0.000272827	1.77795
916.745	4	-0.598724	-0.000296509	1.65985
918.82	4	-0.562103	-0.000159149	1.54175
920.896	4	-0.520447	-5.72815e-05	1.48285
922.971	4	-0.479034	1.98792e-05	1.46332
925.046	4	-0.437592	7.97729e-05	1.48285
927.121	4	-0.395905	0.000126831	1.50299
929.196	4	-0.353699	0.000164398	1.56158
931.272	4	-0.312622	0.000194489	1.64093
933.347	4	-0.271515	0.000217987	1.73859
935.422	4	-0.229523	0.000233276	1.85547
937.497	4	-0.189026	0.000238525	2.03186
939.572	4	-0.147308	0.000231873	2.24579
941.648	4	-0.1073	0.000209747	2.46155
943.723	4	-0.0653992	0.000169128	2.68066
945.798	4	-0.023288	0.000124329	2.83539
947.873	4	0.018396	8.95081e-05	2.89459
949.948	4	0.0580139	6.47888e-05	2.93335
952.023	4	0.0984802	4.54163e-05	2.99225
954.099	5	0.140472	2.77405e-05	2.99255
956.174	5	0.182068	1.33942e-05	3.013
958.249	5	0.222717	7.07703e-06	3.05084
960.324	5	0.264618	5.03845e-06	3.03131
962.399	5	0.305573	3.95966e-06	3.03131
964.475	5	0.346313	3.44666e-06	3.05023
966.55	5	0.388763	2.98584e-06	3.0307
968.625	5	0.42926	2.70905e-06	3.03101
970.7	5	0.470398	2.46918e-06	3.03131
972.775	5	0.511749	2.29004e-06	3.05115
974.851	5	0.553101	2.1463e-06	3.0307
976.926	5	0.594482	2.00104e-06	3.05084
979.001	5	0.63681	1.89911e-06	3.04962
981.076	5	0.677063	1.74805e-06	3.0307
983.151	5	0.719421	1.72272e-06	3.04962
985.227	5	0.759277	1.56769e-06	3.06885
987.302	5	0.800476	1.52863e-06	3.05023
989.377	5	0.842896	1.46759e-06	3.0304
991.452	5	0.882874	1.40808e-06	3.06915
993.527	5	0.924988	1.38306e-06	3.05023
995.602	5	0.967407	1.34338e-06	3.04993
997.678	5	0.983582	1.25854e-06	3.06946
999.753	5	0.941162	1.04095e-06	3.06915
1001.83	5	0.901489	1.01685e-06	3.0307
1003.9	5	0.85968	8.8562e-07	3.04932
1005.98	5	0.817566	8.96606e-07	3.04962
1008.05	5	0.776978	7.89795e-07	3.04993
1010.13	5	0.735443	7.84912e-07	3.05084
1012.2	5	0.694	7.23267e-07	3.05023
1014.28	5	0.65274	7.02515e-07	3.06976
1016.35	5	0.611572	6.51855e-07	3.05054
1018.43	5	0.570587	6.38428e-07	3.04993
1020.5	5	0.529572	5.8197e-07	3.04962
1022.58	5	0.487366	5.82886e-07	3.05115
1024.66	5	0.447357	4.98047e-07	3.05176
1026.73	5	0.405731	5.41992e-07	3.05023
1028.81	5	0.363403	4.245e-07	3.05084
1030.88	5	0.32309	4.45251e-07	3.05023
1032.96	5	0.28125	3.45154e-07	3.05054
1035.03	5	0.239563	2.11487e-07	3.05176
1037.11	5	0.198303	-3.76282e-07	3.05084
1039.18	5	0.157593	-3.11462e-06	3.05054
1041.26	5	0.115997	-1.0257e-05	3.05023
1043.33	5	0.0743103	-2.08618e-05	3.05054
1045.41	5	0.0357788	-3.25195e-05	3.03162
1047.48	5	-0.00572815	-4.3631e-05	2.99316
1049.56	5	-0.0475189	-5.42908e-05	2.97241
1051.63	5	-0.0910645	-6.39954e-05	2.93335
1053.71	5	-0.132843	-7.17773e-05	2.8949
1055.78	5	-0.173767	-7.94373e-05	2.83539
1057.86	5	-0.214386	-8.79211e-05	2.7771
1059.93	5	-0.25531	-9.90906e-05	2.70111
1062.01	5	-0.297577	-0.000114258	2.60223
1064.08	5	-0.338837	-0.000134705	2.47986
1066.16	5	-0.37973	-0.000159302	2.36359
1068.23	5	-0.419952	-0.00018634	2.22809
1070.31	5	-0.461456	-0.000213287	2.09015
1072.38	5	-0.503754	-0.000238831	1.95374
1074.46	5	-0.544312	-0.000262939	1.77765
1076.53	5	-0.586456	-0.000286407	1.65985
1078.61	5	-0.574219	-0.000193512	1.54175
1080.69	5	-0.532227	-8.22144e-05	1.46393
1082.76	5	-0.490234	3.31421e-07	1.42426
1084.84	5	-0.449585	6.43005e-05	1.42395
1086.91	5	-0.408051	0.000114319	1.46332
1088.99	5	-0.365814	0.000154175	1.50238
1091.06	5	-0.324982	0.000186066	1.58081
1093.14	5	-0.283142	0.000211517	1.67938
1095.21	5	-0.242554	0.000229431	1.796875
1097.29	5	-0.200256	0.000237946	1.91345
1099.36	5	-0.159851	0.00023526	2.14813
1101.44	5	-0.119232	0.000218567	2.38312
1103.51	5	-0.0772705	0.000183167	2.62085
1105.59	5	-0.0355377	0.00013736	2.7774
1107.66	5	0.00725403	9.89685e-05	2.85614
1109.74	5	0.0475403	7.15637e-05	2.91504
1111.81	5	0.0873413	5.12695e-05	2.97241
1113.89	6	0.128082	3.32825e-05	2.99133
1115.96	6	0.16925	1.71783e-05	3.0127
1118.04	6	0.210663	8.27026e-06	3.01178
1120.11	6	0.251862	5.44128e-06	3.0307
1122.19	6	0.292816	4.17542e-06	3.0307
1124.26	6	0.334198	3.55103e-06	3.0304
1126.34	6	0.376678	3.09052e-06	3.04993
1128.41	6	0.417267	2.76611e-06	3.05023
1130.49	6	0.458282	2.52563e-06	3.0304
1132.57	6	0.499908	2.32819e-06	3.0304
1134.64	6	0.541992	2.18201e-06	3.05084
1136.72	6	0.583313	2.0285e-06	3.0307
1138.79	6	0.623566	1.91711e-06	3.0304
1140.87	6	0.664856	1.80389e-06	3.03009
1142.94	6	0.706238	1.70319e-06	3.04932
1145.02	6	0.746765	1.62781e-06	3.03009
1147.09	6	0.7901	1.53137e-06	3.02948
1149.17	6	0.830688	1.49963e-06	3.04962
1151.24	6	0.871277	1.3916e-06	3.03101
1153.32	6	0.912781	1.41205e-06	3.03009
1155.39	6	0.953369	1.3092e-06	3.04993
1157.47	6	0.996704	1.36078e-06	3.03192
1159.54	6	0.953369	1.09772e-06	3.0307
1161.62	6	0.912781	9.97925e-07	3.0307
1163.69	6	0.871582	9.45129e-07	3.02979
1165.77	6	0.831299	8.68225e-07	3.04901
1167.84	6	0.788269	8.47778e-07	3.0304
1169.92	6	0.748291	7.53479e-07	3.04932
1171.99	6	0.706329	7.75757e-07	3.03009
1174.07	6	0.666016	6.64978e-07	3.04962
1176.14	6	0.624023	7.01904e-07	3.0304
1178.22	6	0.582245	5.96313e-07	3.04993
1180.29	6	0.541138	6.35681e-07	3.04962
1182.37	6	0.500671	5.27649e-07	3.03101
1184.44	6	0.459442	5.74646e-07	3.05084
1186.52	6	0.417999	4.6814e-07	3.04932
1188.6	6	0.37619	5.00488e-07	3.03131
1190.67	6	0.335052	4.15344e-07	3.03101
1192.75	6	0.293976	3.75366e-07	3.03009
1194.82	6	0.252228	2.68555e-07	3.05054
1196.9	6	0.211182	-1.17645e-07	3.03131
1198.97	6	0.169159	-1.96381e-06	3.04993
1201.05	6	0.127441	-7.99255e-06	3.03009
1203.12	6	0.0862732	-1.78406e-05	3.05115
1205.2	6	0.0457153	-2.94525e-05	2.99133
1207.27	6	0.00609436	-4.06281e-05	3.0127
1209.35	6	-0.0354736	-5.13916e-05	2.97211
1211.42	6	-0.07901	-6.13708e-05	2.93304
1213.5	6	-0.120544	-6.95496e-05	2.89307
1215.57	6	-0.161255	-7.71179e-05	2.83508
1217.65	6	-0.202667	-8.51746e-05	2.7771
1219.72	6	-0.243103	-9.5459e-05	2.71973
1221.8	6	-0.284363	-0.000109314	2.60162
1223.87	6	-0.326477	-0.000128235	2.49878
1225.95	6	-0.367523	-0.000151825	2.38373
1228.02	6	-0.409027	-0.000178284	2.26501
1230.1	6	-0.449615	-0.000205475	2.10907
1232.17	6	-0.491516	-0.000231354	1.97205
1234.25	6	-0.531677	-0.000255707	1.83472
1236.32	6	-0.574097	-0.000279083	1.65955
1238.4	6	-0.585358	-0.000234436	1.54236
1240.47	6	-0.545013	-0.000110992	1.46362
1242.55	6	-0.503479	-2.14783e-05	1.42365
1244.63	6	-0.462067	4.70306e-05	1.40442
1246.7	6	-0.419678	0.000100708	1.40381
1248.78	6	-0.378143	0.000143158	1.42334
1250.85	6	-0.336609	0.000177185	1.50208
1252.93	6	-0.295166	0.000204559	1.61987
1255	6	-0.253723	0.000224823	1.71753
1257.08	6	-0.213593	0.000236481	1.87439
1259.15	6	-0.171387	0.000237335	2.05048
1261.23	6	-0.13147	0.000225372	2.28485
1263.3	6	-0.0899048	0.000195831	2.54364
1265.38	6	-0.0475739	0.000151062	2.7002
1267.45	6	-0.00487976	0.000109314	2.81586
1269.53	6	0.0357666	7.89795e-05	2.89429
1271.6	6	0.0742798	5.70984e-05	2.95288
1273.68	7	0.115295	3.89191e-05	2.99164
1275.75	7	0.157318	2.17712e-05	3.01117
1277.83	7	0.19812	1.00464e-05	3.01178
1279.9	7	0.239349	6.02722e-06	3.03131
1281.98	7	0.281311	4.47693e-06	3.05054
1284.05	7	0.322937	3.77136e-06	3.03101
1286.13	7	0.364563	3.23303e-06	3.01117
1288.2	7	0.40509	2.90436e-06	3.0307
1290.28	7	0.447113	2.63702e-06	3.01117
1292.35	7	0.488312	2.41486e-06	3.0304
1294.43	7	0.529114	2.25586e-06	3.04932
1296.51	7	0.57074	2.07916e-06	3.04962
1298.58	7	0.611298	2.00592e-06	3.05023
1300.66	7	0.653992	1.8161e-06	3.04993
1302.73	7	0.695221	1.78497e-06	3.0307
1304.81	7	0.735382	1.62567e-06	3.04962
1306.88	7	0.776062	1.61224e-06	3.06946
1308.96	7	0.817566	1.47461e-06	3.04871
1311.03	7	0.85907	1.48163e-06	3.04962
1313.11	7	0.901489	1.36841e-06	3.05023
1315.18	7	0.941467	1.37878e-06	3.04993
1317.26	7	0.983582	1.32629e-06	3.06763
1319.33	7	0.967407	1.16211e-06	3.05054
1321.41	7	0.925293	1.02539e-06	3.08838
1323.48	7	0.884094	9.77478e-07	3.06885
1325.56	7	0.84198	8.99353e-07	3.05023
1327.63	7	0.800781	8.57544e-07	3.04993
1329.71	7	0.759583	8.01086e-07	3.06915
1331.78	7	0.719055	7.66602e-07	3.06885
1333.86	7	0.677948	7.15637e-07	3.04962
1335.93	7	0.636353	6.88477e-07	3.06915
1338.01	7	0.595001	6.45447e-07	3.05054
1340.08	7	0.55304	6.28662e-07	3.04993
1342.16	7	0.512054	5.70679e-07	3.05023
1344.23	7	0.471466	5.85022e-07	3.06946
1346.31	7	0.429657	4.81567e-07	3.06915
1348.38	7	0.388824	5.22156e-07	3.04993
1350.46	7	0.346375	4.24805e-07	3.06885
1352.54	7	0.306213	4.04053e-07	3.04993
1354.61	7	0.263672	3.05481e-07	3.07037
1356.69	7	0.22226	3.66211e-08	3.06946
1358.76	7	0.181335	-1.16821e-06	3.06915
1360.84	7	0.139771	-5.9082e-06	3.06976
1362.91	7	0.0992432	-1.49475e-05	3.05023
1364.99	7	0.0579224	-2.63641e-05	3.05054
1367.06	7	0.0193817	-3.76678e-05	3.03131
1369.14	7	-0.0233154	-4.8407e-05	3.01239
1371.21	7	-0.06604	-5.86853e-05	2.97272
1373.29	7	-0.107697	-6.73828e-05	2.93274
1375.36	7	-0.149109	-7.49207e-05	2.87506
1377.44	7	-0.190948	-8.27332e-05	2.79633
1379.51	7	-0.230957	-9.23157e-05	2.71942
1381.59	7	-0.27301	-0.000104889	2.6413
1383.66	7	-0.314514	-0.000122498	2.54333
1385.74	7	-0.354889	-0.000144775	2.42126
1387.81	7	-0.396149	-0.000170715	2.28546
1389.89	7	-0.438171	-0.000197876	2.1286
1391.96	7	-0.479401	-0.000224152	1.97235
1394.04	7	-0.520111	-0.000248932	1.83594
1396.11	7	-0.562134	-0.000272308	1.67816
1398.19	7	-0.602356	-0.000295685	1.52222
1400.26	7	-0.644257	-0.000320953	1.38458
1402.34	7	-0.685394	-0.000348419	1.28693
1404.41	7	-0.673401	-0.000257751	1.18469
1406.49	7	-0.631561	-0.000141235	1.12518
1408.57	7	-0.590332	-4.99268e-05	1.10504
1410.64	7	-0.549652	2.35809e-05	1.08612
1412.72	7	-0.507996	8.35571e-05	1.10504
1414.79	7	-0.466522	0.000132629	1.12518
1416.87	7	-0.425415	0.000172577	1.14502
1418.94	7	-0.383331	0.000204498	1.20331
1421.02	7	-0.341583	0.000229858	1.28693
1423.09	7	-0.299835	0.000249939	1.36444
1425.17	7	-0.259552	0.000265167	1.48285
1427.24	7	-0.217926	0.000274048	1.6394
1429.32	7	-0.175873	0.000274719	1.81488
1431.39	7	-0.135956	0.000265381	2.05078
1433.47	7	-0.0942078	0.000240631	2.36298
1435.54	7	-0.0537109	0.000194122	2.62054
1437.62	7	-0.0102844	0.00013916	2.7771
1439.69	7	0.0304108	9.62524e-05	2.89398
1441.77	7	0.069397	6.71082e-05	2.93243
1443.84	7	0.110535	4.55841e-05	2.97211
1445.92	8	0.152283	2.69196e-05	2.99133
1447.99	8	0.194214	1.29456e-05	3.03101
1450.07	8	0.235443	7.67212e-06	3.03101
1452.14	8	0.276825	5.78003e-06	3.03101
1454.22	8	0.318329	4.73938e-06	3.03162
1456.29	8	0.359711	4.22028e-06	3.04993
1458.37	8	0.399841	3.74268e-06	3.03009
1460.45	8	0.44162	3.42499e-06	3.03009
1462.52	8	0.482727	3.16193e-06	3.05023
1464.6	8	0.523804	2.9422e-06	3.04932
1466.67	8	0.566315	2.78046e-06	3.0307
1468.75	8	0.606506	2.56927e-06	3.03009
1470.82	8	0.648712	2.48657e-06	3.06946
1472.9	8	0.689392	2.28271e-06	3.04993
1474.97	8	0.731079	2.21649e-06	3.05054
1477.05	8	0.77179	2.08527e-06	3.04932
1479.12	8	0.812378	1.98395e-06	3.04993
1481.2	8	0.854492	1.91467e-06	3.04901
1483.27	8	0.895996	1.82556e-06	3.04871
1485.35	8	0.937805	1.78192e-06	3.06793
1487.42	8	0.979309	1.71021e-06	3.04962
1489.5	8	0.970764	1.5567e-06	3.04932
1491.57	8	0.929871	1.35223e-06	3.04932
1493.65	8	0.888062	1.32111e-06	3.04901
1495.72	8	0.847168	1.16791e-06	3.04901
1497.8	8	0.805054	1.14532e-06	3.03009
1499.87	8	0.765381	1.0733e-06	3.04901
1501.95	8	0.72348	1.01166e-06	3.04993
1504.02	8	0.6828	9.89685e-07	3.04962
1506.1	8	0.641663	8.96301e-07	3.04962
1508.17	8	0.600281	9.20105e-07	3.08929
1510.25	8	0.558777	8.26111e-07	3.04962
1512.32	8	0.516937	8.13599e-07	3.05023
1514.4	8	0.476288	7.69348e-07	3.07007
1516.48	8	0.435028	7.26013e-07	3.06976
1518.55	8	0.392944	6.95801e-07	3.07068
1520.63	8	0.351593	6.23779e-07	3.04993
1522.7	8	0.310028	6.22253e-07	3.05054
1524.78	8	0.269226	4.5929e-07	3.07037
1526.85	8	0.227448	2.91748e-07	3.04993
1528.93	8	0.186401	-8.5968e-07	3.05054
1531	8	0.145691	-5.15137e-06	3.05115
1533.08	8	0.104004	-1.40686e-05	3.05054
1535.15	8	0.062439	-2.53387e-05	3.03223
1537.23	8	0.023999	-3.67218e-05	3.05023
1539.3	8	-0.0173492	-4.73816e-05	3.03192
1541.38	8	-0.0622253	-5.77393e-05	2.97363
1543.45	8	-0.103668	-6.65283e-05	2.91443
1545.53	8	-0.144958	-7.40662e-05	2.83539
1547.6	8	-0.185425	-8.18787e-05	2.77802
1549.68	8	-0.22702	-9.10645e-05	2.69989
1551.75	8	-0.267242	-0.000103485	2.62146
1553.83	8	-0.308746	-0.000120361	2.47986
1555.9	8	-0.350769	-0.000142456	2.38342
1557.98	8	-0.391296	-0.000168091	2.22717
1560.05	8	-0.433167	-0.0001953125	2.07123
1562.13	8	-0.473419	-0.000221771	1.91437
1564.2	8	-0.515289	-0.000246613	1.75812
1566.28	8	-0.556091	-0.000270081	1.60156
1568.35	8	-0.598358	-0.000293243	1.44501
1570.43	8	-0.638855	-0.000318146	1.32599
1572.51	8	-0.68042	-0.000344971	1.18469
1574.58	8	-0.677826	-0.000273315	1.08673
1576.66	8	-0.636627	-0.000152405	1.02814
1578.73	8	-0.595917	-5.84106e-05	0.98938
1580.81	8	-0.554657	1.66809e-05	0.969238
1582.88	8	-0.513092	7.8064e-05	0.98999
1584.96	8	-0.47171	0.000128113	1.00891
1587.03	8	-0.430237	0.000169067	1.04675
1589.11	8	-0.388275	0.000201752	1.10596
1591.18	8	-0.347229	0.000227722	1.16547
1593.26	8	-0.305267	0.000248352	1.24359
1595.33	8	-0.263275	0.000264191	1.36597
1597.41	8	-0.221893	0.000274017	1.50269
1599.48	8	-0.181488	0.000275909	1.69891
1601.56	8	-0.139984	0.000267914	1.93359
1603.63	8	-0.0990906	0.000245605	2.26501
1605.71	8	-0.0585327	0.00020163	2.56317
1607.78	8	-0.0147705	0.00014624	2.73926
1609.86	8	0.0266998	0.000101288	2.85553
1611.93	8	0.0651855	7.06482e-05	2.91443
1614.01	8	0.105804	4.85962e-05	2.9718
1616.08	9	0.147827	2.96875E-05	2.99072
1618.16	9	0.189117	1.43951e-05	2.99194
1620.23	9	0.230743	8.203125E-06	2.99164
1622.31	9	0.27179	5.98755e-06	3.03131
1624.39	9	0.313507	4.95911e-06	3.03162
1626.46	9	0.354828	4.32281e-06	3.03162
1628.54	9	0.394989	3.89618e-06	3.01178
1630.61	9	0.437378	3.54095e-06	3.03101
1632.69	9	0.478241	3.26141e-06	3.01208
1634.76	9	0.519684	3.04443e-06	3.03101
1636.84	9	0.561218	2.84698e-06	3.04932
1638.91	9	0.602783	2.71362e-06	3.03101
1640.99	9	0.643707	2.50244e-06	3.03131
1643.06	9	0.68457	2.44507e-06	3.03162
1645.14	9	0.726105	2.24854e-06	3.03101
1647.21	9	0.765991	2.20001e-06	3.0307
1649.29	9	0.808716	2.03491e-06	3.04962
1651.36	9	0.848694	2.00989e-06	3.0307
1653.44	9	0.891724	1.86188e-06	3.0307
1655.51	9	0.933838	1.87134e-06	3.0307
1657.59	9	0.974426	1.74377e-06	3.0307
1659.66	9	0.977478	1.61713e-06	3.04962
1661.74	9	0.935059	1.43494e-06	3.04993
1663.81	9	0.892639	1.33545e-06	3.0307
1665.89	9	0.852966	1.2677e-06	3.0304
1667.96	9	0.809937	1.17981e-06	3.0307
1670.04	9	0.768433	1.13556e-06	3.06946
1672.11	9	0.72821	1.05743e-06	3.03101
1674.19	9	0.687042	1.02295e-06	3.03101
1676.26	9	0.645447	9.56726e-07	3.04993
1678.34	9	0.605225	9.31702e-07	3.05054
1680.42	9	0.562744	8.9325e-07	3.06915
1682.49	9	0.522675	8.1543e-07	3.05054
1684.57	9	0.480164	8.45642e-07	3.05054
1686.64	9	0.439453	7.35474e-07	3.05084
1688.72	9	0.397583	7.34863e-07	3.07037
1690.79	9	0.357178	6.75659e-07	3.06915
1692.87	9	0.315857	6.18896e-07	3.03223
1694.94	9	0.274384	5.58167e-07	3.05115
1697.02	9	0.232758	2.771e-07	3.07037
1699.09	9	0.190735	-5.74951e-07	3.07098
1701.17	9	0.14978	-4.54712e-06	3.06885
1703.24	9	0.108124	-1.31195e-05	3.05115
1705.32	9	0.0672302	-2.43103e-05	3.03162
1707.39	9	0.028537	-3.57025e-05	3.013
1709.47	9	-0.0127441	-4.62891e-05	2.97363
1711.54	9	-0.0565491	-5.67322e-05	2.93335
1713.62	9	-0.0983582	-6.56738e-05	2.91351
1715.69	9	-0.138977	-7.33337e-05	2.83508
1717.77	9	-0.181335	-8.10547e-05	2.75757
1719.84	9	-0.221039	-9.00269e-05	2.66113
1721.92	9	-0.262726	-0.00010202	2.5824
1723.99	9	-0.304108	-0.000118317	2.44171
1726.07	9	-0.345734	-0.000139832	2.30469
1728.14	9	-0.385956	-0.000165039	2.16827
1730.22	9	-0.42804	-0.000192169	1.99127
1732.29	9	-0.469482	-0.000218719	1.81671
1734.37	9	-0.510803	-0.000243622	1.64001
1736.45	9	-0.552307	-0.000267151	1.48254
1738.52	9	-0.592743	-0.0002901	1.34583
1740.6	9	-0.633911	-0.000314758	1.18469
1742.67	9	-0.676331	-0.000340759	1.04706
1744.75	9	-0.683807	-0.000289551	0.949707
1746.82	9	-0.642426	-0.000164398	0.891418
1748.9	9	-0.60083	-6.82068e-05	0.852356
1750.97	9	-0.559113	8.41675e-06	0.852356
1753.05	9	-0.516754	7.10754e-05	0.851135
1755.12	9	-0.475525	0.000122192	0.870667
1757.2	9	-0.434052	0.000164032	0.890198
1759.27	9	-0.393066	0.00019751	0.950012
1761.35	9	-0.352173	0.000224243	1.00891
1763.42	9	-0.310028	0.000245422	1.08673
1765.5	9	-0.268158	0.000261932	1.18408
1767.57	9	-0.226837	0.000272766	1.34552
1769.65	9	-0.186096	0.000275879	1.54053
1771.72	9	-0.144623	0.000269531	1.77704
1773.8	9	-0.104279	0.000249756	2.10876
1775.87	9	-0.063446	0.000209015	2.44202
1777.95	9	-0.0205505	0.000153809	2.68036
1780.02	9	0.0206726	0.000106842	2.79633
1782.1	9	0.0600586	7.44019e-05	2.89307
1784.17	9	0.101349	5.16052e-05	2.91351
1786.25	10	0.142059	3.23669e-05	2.95319
1788.33	10	0.184082	1.604e-05	2.97272
1790.4	10	0.225647	8.66089e-06	2.99225
1792.48	10	0.266724	6.18896e-06	2.99194
1794.55	10	0.308411	5.07202e-06	2.99164
1796.63	10	0.348999	4.39148e-06	2.99194
1798.7	10	0.390167	3.95599e-06	2.98981
1800.78	10	0.431793	3.60718e-06	3.01117
1802.85	10	0.473846	3.31635e-06	3.03101
1804.93	10	0.515198	3.09937e-06	3.0304
1807	10	0.556458	2.89581e-06	3.01147
1809.08	10	0.597107	2.73193e-06	3.03009
1811.15	10	0.638184	2.57843e-06	3.03101
1813.23	10	0.679901	2.44293e-06	3.03101
1815.3	10	0.721375	2.32544e-06	3.01147
1817.38	10	0.761719	2.20673e-06	3.01117
1819.45	10	0.802612	2.11212e-06	3.03009
1821.53	10	0.846252	2.00012e-06	3.0484
1823.6	10	0.886841	1.93604e-06	3.01117
1825.68	10	0.926819	1.84387e-06	3.03009
1827.75	10	0.969849	1.80847e-06	3.01086
1829.83	10	0.982056	1.62628e-06	3.04962
1831.9	10	0.940552	1.49719e-06	3.0304
1833.98	10	0.899658	1.34827e-06	3.04962
1836.05	10	0.857239	1.29852e-06	3.05023
1838.13	10	0.815735	1.19751e-06	3.03009
1840.2	10	0.775146	1.1554e-06	3.03009
1842.28	10	0.734131	1.06964e-06	3.03192
1844.36	10	0.691559	1.03394e-06	3.05054
1846.43	10	0.65094	9.68018e-07	3.03101
1848.51	10	0.609131	9.46655e-07	3.04993
1850.58	10	0.568237	8.92639e-07	3.05054
1852.66	10	0.527466	8.61816e-07	3.0304
1854.73	10	0.486176	8.14514e-07	3.05023
1856.81	10	0.444214	7.78198e-07	3.0304
1858.88	10	0.403564	7.34558e-07	3.03131
1860.96	10	0.361237	6.8512e-07	3.03009
1863.03	10	0.319733	6.44226e-07	3.03131
1865.11	10	0.279419	5.45654e-07	3.01147
1867.18	10	0.237213	3.66211e-07	3.07037
1869.26	10	0.195526	-4.40674e-07	3.04962
1871.33	10	0.155151	-3.94348e-06	3.03131
1873.41	10	0.113159	-1.21887e-05	3.01239
1875.48	10	0.0722961	-2.32239e-05	3.03101
1877.56	10	0.0328827	-3.46375e-05	3.03131
1879.63	10	-0.00752258	-4.52087e-05	2.97272
1881.71	10	-0.0501465	-5.56946e-05	2.9538
1883.78	10	-0.0937195	-6.47888e-05	2.87506
1885.86	10	-0.134918	-7.26013e-05	2.83569
1887.93	10	-0.176422	-8.02002e-05	2.75757
1890.01	10	-0.217133	-8.91113e-05	2.66083
1892.08	10	-0.257507	-0.000100586	2.56348
1894.16	10	-0.299561	-0.000116425	2.42157
1896.23	10	-0.339722	-0.000137268	2.28424
1898.31	10	-0.381073	-0.000162231	2.14874
1900.39	10	-0.423065	-0.000189178	1.97296
1902.46	10	-0.464417	-0.000215881	1.79657
1904.54	10	-0.505676	-0.000240967	1.62109
1906.61	10	-0.546204	-0.000264557	1.4447
1908.69	10	-0.588867	-0.000287415	1.26282
1910.76	10	-0.63031	-0.000311798	1.1264
1912.84	10	-0.670593	-0.000337433	1.02814
1914.91	10	-0.713104	-0.000366211	0.910339
1916.99	10	-0.753174	-0.000397949	0.812988
1919.06	10	-0.794678	-0.000433075	0.754395
1921.14	10	-0.76355	-0.000307404	0.695587
1923.21	10	-0.722046	-0.000194519	0.656281
1925.29	10	-0.68042	-0.00010141	0.655548
1927.36	10	-0.638733	-2.24152e-05	0.636139
1929.44	10	-0.597931	4.47174e-05	0.63623
1931.51	10	-0.555786	0.00010202	0.655518
1933.59	10	-0.515381	0.000151245	0.67569
1935.66	10	-0.47406	0.000192688	0.676025
1937.74	10	-0.431396	0.000227325	0.714691
1939.81	10	-0.391052	0.000255005	0.754089
1941.89	10	-0.348785	0.000276794	0.831909
1943.96	10	-0.308228	0.000293213	0.910339
1946.04	10	-0.265686	0.000304932	1.02722
1948.11	10	-0.224091	0.000312592	1.14594
1950.19	10	-0.183411	0.000314941	1.3269
1952.27	10	-0.142059	0.000310181	1.60187
1954.34	10	-0.101685	0.000294617	1.89331
1956.42	10	-0.0605164	0.000259186	2.28485
1958.49	10	-0.0177948	0.000200104	2.60193
1960.57	10	0.024353	0.000138702	2.75726
1962.64	10	0.0629883	9.15833e-05	2.85492
1964.72	10	0.104065	6.03638e-05	2.89459
1966.79	11	0.145599	3.69659e-05	2.93304
1968.87	11	0.185944	1.86707e-05	2.95227
1970.94	11	0.227478	1.03607e-05	2.97119
1973.02	11	0.269043	7.69958e-06	2.97211
1975.09	11	0.311157	6.39038e-06	2.95258
1977.17	11	0.35144	5.56641e-06	2.97241
1979.24	11	0.392578	5.0354e-06	2.97119
1981.32	11	0.434387	4.55322e-06	2.9718
1983.39	11	0.475677	4.25537e-06	2.97241
1985.47	11	0.516541	3.8974e-06	2.97119
1987.54	11	0.558807	3.71765e-06	2.97211
1989.62	11	0.60022	3.44727e-06	2.97089
1991.69	11	0.640686	3.28369e-06	2.97058
1993.77	11	0.681732	3.10913e-06	2.99103
1995.84	11	0.724487	2.94922e-06	2.99133
1997.92	11	0.765076	2.82013e-06	2.99011
1999.99	11	0.805054	2.6651e-06	2.9715
2002.07	11	0.846558	2.55768e-06	2.99133
2004.14	11	0.888062	2.42493e-06	2.99072
2006.22	11	0.930786	2.34344e-06	2.9715
2008.3	11	0.9729	2.25677e-06	2.99133
2010.37	11	0.978394	2.0694e-06	2.99042
2012.45	11	0.936584	1.86554e-06	2.9715
2014.52	11	0.897217	1.74225e-06	3.0304
2016.6	11	0.854492	1.62415e-06	2.99133
2018.67	11	0.813599	1.54602e-06	2.99103
2020.75	11	0.771484	1.42792e-06	2.9715
2022.82	11	0.731171	1.4093e-06	2.99042
2024.9	11	0.68985	1.27289e-06	2.99133
2026.97	11	0.648193	1.25458e-06	2.99164
2029.05	11	0.607819	1.17859e-06	2.99103
2031.12	11	0.565826	1.12183e-06	2.99133
2033.2	11	0.525299	1.08093e-06	3.01178
2035.27	11	0.482849	1.00769e-06	2.99194
2037.35	11	0.441681	9.96399e-07	3.01178
2039.42	11	0.399872	8.94775e-07	3.0307
2041.5	11	0.358704	9.15833e-07	2.99194
2043.57	11	0.318359	8.02612e-07	2.99194
2045.65	11	0.276978	7.30286e-07	3.01086
2047.72	11	0.235504	5.04456e-07	2.99194
2049.8	11	0.193115	-4.245e-07	3.03192
2051.87	11	0.153198	-4.34052e-06	2.99133
2053.95	11	0.111816	-1.30371e-05	2.99255
2056.02	11	0.0704956	-2.42493e-05	2.97241
2058.1	11	0.0309845	-3.55835e-05	2.97211
2060.17	11	-0.0109436	-4.61243e-05	2.93396
2062.25	11	-0.0536804	-5.65491e-05	2.89429
2064.33	11	-0.0961609	-6.55212e-05	2.85583
2066.4	11	-0.137024	-7.33032e-05	2.79663
2068.48	11	-0.177185	-8.10242e-05	2.7002
2070.55	11	-0.219604	-9.00269e-05	2.62177
2072.63	11	-0.26059	-0.000101837	2.51892
2074.7	11	-0.301422	-0.000118011	2.38373
2076.78	11	-0.342926	-0.000139282	2.24579
2078.85	11	-0.383698	-0.000164337	2.10968
2080.93	11	-0.424438	-0.000191437	1.91315
2083	11	-0.466278	-0.000217926	1.73767
2085.08	11	-0.508362	-0.00024295	1.56128
2087.15	11	-0.548645	-0.000266418	1.38519
2089.23	11	-0.590271	-0.000289368	1.22406
2091.3	11	-0.632721	-0.000313843	1.08673
2093.38	11	-0.67276	-0.000339783	0.968933
2095.45	11	-0.715546	-0.00036853	0.890808
2097.53	11	-0.756226	-0.00039978	0.812988
2099.6	11	-0.79834	-0.000434113	0.71405
2101.68	11	-0.761719	-0.000298706	0.656433
2103.75	11	-0.719482	-0.000187317	0.636078
2105.83	11	-0.677673	-9.5459e-05	0.616455
2107.9	11	-0.636841	-1.74683e-05	0.616608
2109.98	11	-0.596008	4.87213e-05	0.616699
2112.05	11	-0.55426	0.000105286	0.636169
2114.13	11	-0.513031	0.000153717	0.656189
2116.21	11	-0.47168	0.000194733	0.67569
2118.28	11	-0.429871	0.000228729	0.713745
2120.36	11	-0.388153	0.000256287	0.753479
2122.43	11	-0.347046	0.000277649	0.813293
2124.51	11	-0.305573	0.000294067	0.891113
2126.58	11	-0.263275	0.000305542	0.98877
2128.66	11	-0.222046	0.000313232	1.14532
2130.73	11	-0.181274	0.000315277	1.32538
2132.81	11	-0.139069	0.000310425	1.56128
2134.88	11	-0.0980835	0.000294403	1.89392
2136.96	11	-0.0573425	0.000258209	2.265625
2139.03	11	-0.0148621	0.000198853	2.58209
2141.11	11	0.0262512	0.000137665	2.71973
2143.18	11	0.0644226	9.09729e-05	2.83417
2145.26	11	0.10672	5.9967e-05	2.87415
2147.33	12	0.146912	3.6731e-05	2.91382
2149.41	12	0.188293	1.83502e-05	2.91351
2151.48	12	0.229614	1.02081e-05	2.93365
2153.56	12	0.271454	7.66907e-06	2.93335
2155.63	12	0.312164	6.37207e-06	2.95197
2157.71	12	0.353577	5.61218e-06	2.95319
2159.78	12	0.395233	5.02014e-06	2.95258
2161.86	12	0.436401	4.66309e-06	2.95258
2163.93	12	0.478699	4.23248e-06	2.95197
2166.01	12	0.520233	3.99384e-06	2.97211
2168.08	12	0.560974	3.72894e-06	2.9715
2170.16	12	0.602692	3.51105e-06	2.95227
2172.24	12	0.643036	3.3316e-06	2.93274
2174.31	12	0.685516	3.13477e-06	2.9715
2176.39	12	0.725708	3.00781e-06	2.95227
2178.46	12	0.766602	2.84119e-06	2.95227
2180.54	12	0.808105	2.734375E-06	2.9715
2182.61	12	0.849304	2.58209e-06	2.97089
2184.69	12	0.892029	2.49298e-06	2.9715
2186.76	12	0.932617	2.36938e-06	2.9715
2188.84	12	0.973511	2.33246e-06	2.9715
2190.91	12	0.977173	2.06787e-06	2.97119
2192.99	12	0.935669	1.93848e-06	2.99133
2195.06	12	0.89447	1.7334e-06	2.9718
2197.14	12	0.852966	1.6806e-06	2.99042
2199.21	12	0.811157	1.57043e-06	2.97119
2201.29	12	0.770569	1.47797e-06	2.9715
2203.36	12	0.728119	1.41937e-06	2.9715
2205.44	12	0.688049	1.31104e-06	2.99164
2207.51	12	0.646393	1.31165e-06	2.97119
2209.59	12	0.604156	1.17737e-06	2.97241
2211.66	12	0.563934	1.16333e-06	2.9715
2213.74	12	0.522522	1.10352e-06	2.99164
2215.81	12	0.480469	1.04614e-06	2.99133
2217.89	12	0.439941	1.00739e-06	2.97241
2219.96	12	0.398407	9.38721e-07	2.9718
2222.04	12	0.35733	9.34143e-07	2.99194
2224.11	12	0.314819	8.07495e-07	2.97119
2226.19	12	0.274231	7.82166e-07	2.95258
2228.27	12	0.233063	4.6051e-07	2.95227
2230.34	12	0.190979	-5.22156e-07	2.99225
2232.42	12	0.150421	-4.91943e-06	2.99194
2234.49	12	0.109009	-1.39374e-05	2.97241
2236.57	12	0.0669861	-2.53174e-05	2.95258
2238.64	12	0.0290375	-3.64349e-05	2.95288
2240.72	12	-0.0124725	-4.70459e-05	2.95319
2242.79	12	-0.0562134	-5.73425e-05	2.87445
2244.87	12	-0.0978088	-6.62537e-05	2.85553
2246.94	12	-0.140015	-7.40662e-05	2.79541
2249.02	12	-0.180573	-8.17871e-05	2.69989
2251.09	12	-0.221741	-9.10339e-05	2.60254
2253.17	12	-0.262756	-0.000102997	2.48016
2255.24	12	-0.304321	-0.000119598	2.36328
2257.32	12	-0.344513	-0.000141022	2.22626
2259.39	12	-0.386749	-0.000166351	2.05048
2261.47	12	-0.427185	-0.000193268	1.87469
2263.54	12	-0.468964	-0.000219788	1.71844
2265.62	12	-0.510101	-0.000244537	1.56158
2267.69	12	-0.551575	-0.000268005	1.36536
2269.77	12	-0.592712	-0.000290894	1.20361
2271.84	12	-0.634521	-0.000315491	1.08704
2273.92	12	-0.675354	-0.000341522	0.949402
2275.99	12	-0.717987	-0.000370178	0.870972
2278.07	12	-0.760193	-0.000401398	0.77301
2280.15	12	-0.799561	-0.000435364	0.714844
2282.22	12	-0.758057	-0.000290771	0.655396
2284.3	12	-0.716949	-0.000180817	0.616425
2286.37	12	-0.675537	-9.03015e-05	0.616516
2288.45	12	-0.634338	-1.31409e-05	0.61673
2290.52	12	-0.592377	5.2124e-05	0.616394
2292.6	12	-0.552002	0.000108002	0.615356
2294.67	12	-0.509369	0.000155792	0.636017
2296.75	12	-0.468964	0.000196167	0.656128
2298.82	12	-0.426605	0.000229767	0.695068
2300.9	12	-0.38559	0.000256805	0.753479
2302.97	12	-0.343781	0.000277985	0.813599
2305.05	12	-0.302124	0.000294128	0.889587
2307.12	12	-0.260803	0.000305481	0.988464
2309.2	12	-0.219513	0.000312988	1.14563
2311.27	12	-0.177887	0.000314789	1.32629
2313.35	12	-0.137543	0.000309601	1.57959
2315.42	12	-0.0960388	0.000292847	1.8924
2317.5	12	-0.0548706	0.000255524	2.26501
2319.57	12	-0.0132629	0.00019574	2.49969
2321.65	12	0.0279144	0.000135193	2.71851
2323.72	12	0.067627	8.94165e-05	2.81525
2325.8	12	0.109161	5.90515e-05	2.85461
2327.87	13	0.150574	3.60016e-05	2.87354
2329.95	13	0.190704	1.78314e-05	2.9126
2332.02	13	0.232025	9.95789e-06	2.91321
2334.1	13	0.2734375	7.57751e-06	2.93213
2336.18	13	0.315582	6.2561e-06	2.9126
2338.25	13	0.356323	5.54199e-06	2.95197
2340.33	13	0.398102	4.97742e-06	2.93213
2342.4	13	0.439636	4.56238e-06	2.93182
2344.48	13	0.481293	4.23004e-06	2.93274
2346.55	13	0.522675	3.91174e-06	2.93121
2348.63	13	0.562744	3.72925e-06	2.95105
2350.7	13	0.605164	3.44452e-06	2.93213
2352.78	13	0.64563	3.32703e-06	2.93213
2354.85	13	0.687378	3.09204e-06	2.95135
2356.93	13	0.728088	3.00232e-06	2.95105
2359	13	0.769043	2.81982e-06	2.97089
2361.08	13	0.811462	2.72095e-06	2.95105
2363.15	13	0.852356	2.58148e-06	2.95105
2365.23	13	0.893555	2.47406e-06	2.95074
2367.3	13	0.934448	2.38037e-06	2.97058
2369.38	13	0.9765625	2.30103e-06	2.97089
2371.45	13	0.975037	2.08282e-06	2.97058
2373.53	13	0.932007	1.88782e-06	2.97119
2375.6	13	0.891113	1.76788e-06	2.95227
2377.68	13	0.85083	1.65222e-06	2.95074
2379.75	13	0.808105	1.57227e-06	2.95227
2381.83	13	0.766907	1.46729e-06	2.95197
2383.9	13	0.726654	1.41724e-06	2.9718
2385.98	13	0.685272	1.32538e-06	2.95288
2388.05	13	0.644135	1.28204e-06	2.95135
2390.13	13	0.602905	1.20209e-06	2.95135
2392.21	13	0.561279	1.16119e-06	2.9715
2394.28	13	0.519592	1.09314e-06	2.95135
2396.36	13	0.478821	1.04553e-06	2.97211
2398.43	13	0.437286	9.86633e-07	2.95166
2400.51	13	0.395416	9.40552e-07	2.95258
2402.58	13	0.353699	9.06677e-07	2.9718
2404.66	13	0.312347	8.08105e-07	2.95166
2406.73	13	0.271179	7.53479e-07	2.9715
2408.81	13	0.230286	4.25415e-07	2.9715
2410.88	13	0.188843	-7.06482e-07	2.9715
2412.96	13	0.148254	-5.52368e-06	2.95197
2415.03	13	0.106842	-1.48804e-05	2.99133
2417.11	13	0.06427	-2.63184e-05	2.95166
2419.18	13	0.0254791	-3.72894e-05	2.95349
2421.26	13	-0.0149292	-4.79095e-05	2.91351
2423.33	13	-0.0587463	-5.8075e-05	2.87506
2425.41	13	-0.0999451	-6.69861e-05	2.83417
2427.48	13	-0.141327	-7.4707e-05	2.77679
2429.56	13	-0.182495	-8.26111e-05	2.67914
2431.63	13	-0.224243	-9.18884e-05	2.60101
2433.71	13	-0.265656	-0.000104187	2.47894
2435.78	13	-0.306793	-0.000121002	2.36237
2437.86	13	-0.347565	-0.00014267	2.20673
2439.93	13	-0.388	-0.000168152	2.07031
2442.01	13	-0.430023	-0.000194977	1.87347
2444.09	13	-0.470947	-0.000221405	1.69769
2446.16	13	-0.51297	-0.000245941	1.54114
2448.24	13	-0.554749	-0.000269348	1.36475
2450.31	13	-0.596252	-0.000292175	1.203
2452.39	13	-0.637665	-0.000316864	1.08551
2454.46	13	-0.678009	-0.000342926	0.968018
2456.54	13	-0.719879	-0.000371552	0.85144
2458.61	13	-0.760498	-0.000402618	0.772705
2460.69	13	-0.802612	-0.000436523	0.694427
2462.76	13	-0.844116	-0.000473816	0.655548
2464.84	13	-0.884705	-0.000515137	0.596283
2466.91	13	-0.873108	-0.000433502	0.557007
2468.99	13	-0.831909	-0.000312622	0.53775
2471.06	13	-0.790405	-0.000210846	0.498505
2473.14	13	-0.749207	-0.000122406	0.479218
2475.21	13	-0.707001	-4.44183e-05	0.478333
2477.29	13	-0.665466	2.4057e-05	0.498535
2479.36	13	-0.624146	8.44421e-05	0.498505
2481.44	13	-0.58255	0.000138153	0.499176
2483.51	13	-0.541473	0.000185364	0.537384
2485.59	13	-0.500824	0.000226593	0.556946
2487.66	13	-0.458649	0.000261627	0.576569
2489.74	13	-0.416901	0.000290833	0.615601
2491.81	13	-0.376312	0.00031366	0.674744
2493.89	13	-0.334717	0.000331177	0.713715
2495.96	13	-0.292267	0.000343872	0.791931
2498.04	13	-0.251984	0.000352783	0.870667
2500.12	13	-0.210358	0.000358429	1.00739
2502.19	13	-0.168243	0.000360748	1.18439
2504.27	13	-0.12793	0.000358673	1.38428
2506.34	13	-0.0867004	0.000348297	1.698
2508.42	13	-0.0444031	0.000320129	2.04926
2510.49	13	-0.00262756	0.000267029	2.34283
2512.57	13	0.0378387	0.000197449	2.60162
2514.64	13	0.0769958	0.00012738	2.73743
2516.72	14	0.11792	7.5531e-05	2.81494
2518.79	14	0.159882	4.17236e-05	2.87384
2520.87	14	0.200684	2.04803e-05	2.87415
2522.94	14	0.241852	1.25885e-05	2.89307
2525.02	14	0.283203	9.76868e-06	2.9129
2527.09	14	0.324829	8.34961e-06	2.89276
2529.17	14	0.365784	7.39441e-06	2.89337
2531.24	14	0.407227	6.61621e-06	2.9126
2533.32	14	0.448517	6.11877e-06	2.89337
2535.39	14	0.490723	5.57861e-06	2.91229
2537.47	14	0.532257	5.24597e-06	2.91199
2539.54	14	0.573547	4.87671e-06	2.91199
2541.62	14	0.613892	4.58679e-06	2.93182
2543.69	14	0.655212	4.33441e-06	2.89307
2545.77	14	0.69693	4.10065e-06	2.9129
2547.84	14	0.73877	3.92426e-06	2.93182
2549.92	14	0.778503	3.72192e-06	2.93243
2551.99	14	0.819397	3.56873e-06	2.93091
2554.07	14	0.863037	3.3844e-06	2.95135
2556.15	14	0.903931	3.24768e-06	2.91199
2558.22	14	0.944214	3.09692e-06	2.93121
2560.3	14	0.986328	3.00659e-06	2.91168
2562.37	14	0.964661	2.67273e-06	2.91138
2564.45	14	0.922852	2.45819e-06	2.95074
2566.52	14	0.882263	2.30804e-06	2.93152
2568.6	14	0.839539	2.12311e-06	2.93274
2570.67	14	0.799255	2.07123e-06	2.95105
2572.75	14	0.757751	1.89514e-06	2.91229
2574.82	14	0.716248	1.83868e-06	2.93152
2576.9	14	0.6745	1.7276e-06	2.93182
2578.97	14	0.634186	1.65558e-06	2.93213
2581.05	14	0.59314	1.58081e-06	2.93213
2583.12	14	0.55188	1.47919e-06	2.93182
2585.2	14	0.509338	1.46515e-06	2.93182
2587.27	14	0.469177	1.32599e-06	2.93213
2589.35	14	0.427856	1.3327e-06	2.93213
2591.42	14	0.385864	1.21552e-06	2.93182
2593.5	14	0.344116	1.17371e-06	2.93243
2595.57	14	0.303253	1.0791e-06	2.93213
2597.65	14	0.261597	9.50317e-07	2.93213
2599.72	14	0.220734	5.78918e-07	2.93243
2601.8	14	0.178619	-1.24481e-06	2.93182
2603.87	14	0.137329	-7.37e-06	2.95227
2605.95	14	0.0968018	-1.77368e-05	2.93243
2608.03	14	0.0551453	-2.91962e-05	2.9129
2610.1	14	0.0168793	-4.01398e-05	2.91351
2612.18	14	-0.0256683	-5.06592e-05	2.87476
2614.25	14	-0.0689697	-6.06384e-05	2.83478
2616.33	14	-0.110504	-6.90918e-05	2.79602
2618.4	14	-0.15155	-7.69043e-05	2.71851
2620.48	14	-0.192657	-8.49609e-05	2.62024
2622.55	14	-0.233154	-9.49402e-05	2.54303
2624.63	14	-0.274963	-0.000108215	2.44049
2626.7	14	-0.315247	-0.000126373	2.28516
2628.78	14	-0.35733	-0.00014917	2.14813
2630.85	14	-0.398895	-0.000175232	1.95282
2632.93	14	-0.439758	-0.000202179	1.79657
2635	14	-0.480896	-0.00022821	1.62079
2637.08	14	-0.522552	-0.000252411	1.46393
2639.15	14	-0.563568	-0.000275635	1.30768
2641.23	14	-0.605682	-0.000298706	1.14594
2643.3	14	-0.647125	-0.000324127	1.02814
2645.38	14	-0.687714	-0.000351044	0.91095
2647.45	14	-0.729187	-0.000380432	0.813599
2649.53	14	-0.771484	-0.000411865	0.733521
2651.6	14	-0.812683	-0.000446259	0.675812
2653.68	14	-0.854492	-0.000483612	0.616608
2655.75	14	-0.895386	-0.000524597	0.558014
2657.83	14	-0.863647	-0.000401581	0.53772
2659.9	14	-0.821838	-0.000285675	0.499542
2661.98	14	-0.780945	-0.000187317	0.499359
2664.06	14	-0.73877	-0.000101807	0.47934
2666.13	14	-0.698212	-2.62726e-05	0.479126
2668.21	14	-0.656464	3.98651e-05	0.499481
2670.28	14	-0.615417	9.83887e-05	0.499359
2672.36	14	-0.573273	0.000150177	0.536804
2674.43	14	-0.532623	0.000195831	0.537415
2676.51	14	-0.490417	0.000235352	0.557037
2678.58	14	-0.449524	0.000268951	0.596893
2680.66	14	-0.407379	0.000296753	0.635864
2682.73	14	-0.36557	0.00031842	0.675537
2684.81	14	-0.324158	0.000334778	0.733032
2686.88	14	-0.283234	0.000346771	0.813293
2688.96	14	-0.241943	0.00035498	0.929565
2691.03	14	-0.200745	0.000360199	1.0672
2693.11	14	-0.158417	0.000361725	1.24298
2695.18	14	-0.117218	0.000358734	1.48315
2697.26	14	-0.0763245	0.00034552	1.81488
2699.33	14	-0.034375	0.000312469	2.16766
2701.41	14	0.00646667	0.000254883	2.46033
2703.48	14	0.0477905	0.000183685	2.67975
2705.56	14	0.0874023	0.000115723	2.75818
2707.63	15	0.12851	6.80542e-05	2.81586
2709.71	15	0.1698	3.66943e-05	2.85492
2711.78	15	0.210266	1.80969e-05	2.85461
2713.86	15	0.251801	1.18713e-05	2.87445
2715.93	15	0.293549	9.39026e-06	2.87415
2718.01	15	0.335144	8.16345e-06	2.89398
2720.09	15	0.376587	7.25098e-06	2.89337
2722.16	15	0.417114	6.56738e-06	2.91321
2724.24	15	0.458405	6.04858e-06	2.89368
2726.31	15	0.499634	5.53284e-06	2.89337
2728.39	15	0.541504	5.22766e-06	2.89398
2730.46	15	0.58313	4.85535e-06	2.9129
2732.54	15	0.623627	4.58679e-06	2.89246
2734.61	15	0.665955	4.34235e-06	2.89398
2736.69	15	0.706329	4.11072e-06	2.9126
2738.76	15	0.74707	3.94409e-06	2.89398
2740.84	15	0.788269	3.7146e-06	2.93121
2742.91	15	0.829468	3.60901e-06	2.89276
2744.99	15	0.871887	3.3844e-06	2.89276
2747.06	15	0.913391	3.29041e-06	2.9126
2749.14	15	0.953979	3.12836e-06	2.89246
2751.21	15	0.996704	3.04626e-06	2.9129
2753.29	15	0.953979	2.67761e-06	2.89307
2755.36	15	0.913086	2.46063e-06	2.93213
2757.44	15	0.871887	2.32269e-06	2.91199
2759.51	15	0.830078	2.14386e-06	2.89307
2761.59	15	0.788574	2.08679e-06	2.91321
2763.66	15	0.747986	1.91315e-06	2.9129
2765.74	15	0.706573	1.87134e-06	2.9126
2767.81	15	0.665802	1.74622e-06	2.91138
2769.89	15	0.624481	1.67267e-06	2.9129
2771.97	15	0.583008	1.59576e-06	2.9129
2774.04	15	0.541809	1.51764e-06	2.9129
2776.12	15	0.50061	1.46088e-06	2.91199
2778.19	15	0.458405	1.36993e-06	2.91473
2780.27	15	0.418121	1.3385e-06	2.91351
2782.34	15	0.376556	1.21826e-06	2.91321
2784.42	15	0.334534	1.21857e-06	2.93304
2786.49	15	0.293854	1.04767e-06	2.91351
2788.57	15	0.25177	9.765625E-07	2.91321
2790.64	15	0.211273	3.46069e-07	2.93304
2792.72	15	0.16925	-2.27783e-06	2.9129
2794.79	15	0.128021	-9.89075e-06	2.91351
2796.87	15	0.0871887	-2.08466e-05	2.91321
2798.94	15	0.0476685	-3.23639e-05	2.89398
2801.02	15	0.00698242	-4.29291e-05	2.89429
2803.09	15	-0.0347321	-5.35278e-05	2.83569
2805.17	15	-0.0791016	-6.30493e-05	2.81555
2807.24	15	-0.119049	-7.14111e-05	2.73834
2809.32	15	-0.161072	-7.91321e-05	2.68036
2811.39	15	-0.202454	-8.75854e-05	2.58209
2813.47	15	-0.243256	-9.82361e-05	2.47986
2815.54	15	-0.284882	-0.00011261	2.36176
2817.62	15	-0.325104	-0.000131989	2.22595
2819.69	15	-0.366669	-0.000155731	2.07092
2821.77	15	-0.408264	-0.00018222	1.89301
2823.84	15	-0.448669	-0.000209045	1.75781
2825.92	15	-0.491241	-0.000234589	1.5802
2828	15	-0.532135	-0.000258392	1.40472
2830.07	15	-0.573151	-0.000281403	1.24298
2832.15	15	-0.615417	-0.00030542	1.10504
2834.22	15	-0.656586	-0.000330627	0.968933
2836.3	15	-0.698456	-0.000358124	0.871582
2838.37	15	-0.738739	-0.000387939	0.812988
2840.45	15	-0.781555	-0.000419891	0.734131
2842.52	15	-0.822754	-0.00045459	0.656342
2844.6	15	-0.863037	-0.000492432	0.615906
2846.67	15	-0.895081	-0.000509033	0.557983
2848.75	15	-0.854797	-0.000371307	0.538422
2850.82	15	-0.813599	-0.000260254	0.49942
2852.9	15	-0.771484	-0.000165375	0.499542
2854.97	15	-0.730072	-8.27942e-05	0.499023
2857.05	15	-0.687408	-9.68933e-06	0.479126
2859.12	15	-0.646088	5.42603e-05	0.499268
2861.2	15	-0.604553	0.00011087	0.518677
2863.27	15	-0.563049	0.000160889	0.53833
2865.35	15	-0.521759	0.000204865	0.557739
2867.42	15	-0.480164	0.000242798	0.577484
2869.5	15	-0.439575	0.000274933	0.616333
2871.57	15	-0.397644	0.0003013	0.635864
2873.65	15	-0.356567	0.000321625	0.694885
2875.72	15	-0.31424	0.000336975	0.753784
2877.8	15	-0.272827	0.000348053	0.852051
2879.88	15	-0.231323	0.000355835	0.949097
2881.95	15	-0.190125	0.000360291	1.12549
2884.03	15	-0.148926	0.000361298	1.30585
2886.1	15	-0.108612	0.000356628	1.55975
2888.18	15	-0.0666809	0.000340149	1.89331
2890.25	15	-0.0244019	0.000301514	2.22626
2892.33	15	0.0166412	0.000240051	2.51862
2894.4	15	0.0552063	0.00016806	2.69989
2896.48	15	0.0969543	0.000103668	2.77618
2897.21	15	0.110504	8.5907e-05	2.79663