File: Edgar/20230222 (1)/cv_data_d.txt
Potential applied (V)	Time (s)	WE(1).Current (A)	WE(1).Potential (V)
0.00259399	9.69107	2.43652e-06	0.00293579
0.00747681	9.78872	6.91833e-06	0.00780334
0.0123596	9.88638	1.13922e-05	0.0126404
0.0172424	9.98403	1.58691e-05	0.0175201
0.0221252	10.0817	2.03491e-05	0.0224091
0.0270081	10.1793	2.4826e-05	0.0272827
0.0318909	10.277	2.9303e-05	0.0321503
0.0367737	10.3747	3.3786e-05	0.0370605
0.0416565	10.4723	3.82599e-05	0.041925
0.0465393	10.57	4.27368e-05	0.0468079
0.0514221	10.6676	4.72168e-05	0.0513916
0.0563049	10.7653	5.17273e-05	0.0563354
0.0611877	10.8629	5.61829e-05	0.0611877
0.0660706	10.9606	6.06689e-05	0.0660706
0.0709534	11.0582	6.5155e-05	0.0709229
0.0758362	11.1559	6.96411e-05	0.0757446
0.080719	11.2536	7.40967e-05	0.080658
0.0856018	11.3512	7.85828e-05	0.0855103
0.0904846	11.4489	8.30688e-05	0.0903625
0.0953674	11.5465	8.75549e-05	0.0952759
0.10025	11.6442	9.2041e-05	0.100159
0.105133	11.7418	9.64966e-05	0.10498
0.110016	11.8395	0.000100983	0.109894
0.114899	11.9372	0.000105438	0.114838
0.119781	12.0348	0.000109924	0.119629
0.124664	12.1325	0.00011441	0.124542
0.129547	12.2301	0.000118866	0.129395
0.13443	12.3278	0.000123352	0.134247
0.139313	12.4254	0.000127838	0.13916
0.144196	12.5231	0.000132294	0.143982
0.149078	12.6207	0.00013678	0.148865
0.153961	12.7184	0.000141266	0.153687
0.158844	12.8161	0.000145721	0.158661
0.163727	12.9137	0.000150208	0.163483
0.16861	13.0114	0.000154694	0.168396
0.173492	13.109	0.00015918	0.173248
0.178375	13.2067	0.000163666	0.178101
0.183258	13.3043	0.000168121	0.182922
0.188141	13.402	0.000172607	0.187805
0.193024	13.4996	0.000177094	0.192749
0.197906	13.5973	0.000181549	0.197571
0.202789	13.695	0.000186035	0.202423
0.207672	13.7926	0.000190521	0.207336
0.212555	13.8903	0.000194977	0.212158
0.217438	13.9879	0.000199463	0.217072
0.222321	14.0856	0.000203949	0.221954
0.227203	14.1832	0.000208435	0.226776
0.232086	14.2809	0.000212891	0.231659
0.236969	14.3786	0.000217377	0.236481
0.241852	14.4762	0.000221863	0.241394
0.246735	14.5739	0.000226349	0.246277
0.251617	14.6715	0.000230804	0.251099
0.2565	14.7692	0.000235291	0.255981
0.261383	14.8668	0.000239777	0.260864
0.266266	14.9645	0.000244263	0.265717
0.271149	15.0621	0.000248718	0.270569
0.276031	15.1598	0.000253174	0.275543
0.280914	15.2575	0.00025766	0.280334
0.285797	15.3551	0.000262146	0.285217
0.29068	15.4528	0.000266632	0.290039
0.295563	15.5504	0.000271118	0.294952
0.300446	15.6481	0.000275574	0.299774
0.305328	15.7457	0.00028006	0.3046875
0.310211	15.8434	0.000284515	0.30954
0.315094	15.941	0.000289032	0.314362
0.319977	16.0387	0.000293518	0.319275
0.32486	16.1364	0.000298004	0.324188
0.329742	16.234	0.000302765	0.329559
0.334625	16.3317	0.000307251	0.334503
0.339508	16.4293	0.000311737	0.339386
0.344391	16.527	0.000316223	0.344208
0.349274	16.6246	0.000320709	0.349121
0.354156	16.7223	0.000325165	0.354004
0.359039	16.82	0.000329651	0.358887
0.363922	16.9176	0.000334137	0.36377
0.368805	17.0153	0.000338623	0.368561
0.373688	17.1129	0.000343109	0.373474
0.378571	17.2106	0.000347595	0.378326
0.383453	17.3082	0.000352081	0.38327
0.388336	17.4059	0.000356537	0.388092
0.393219	17.5035	0.000361023	0.393005
0.398102	17.6012	0.000365509	0.397888
0.402985	17.6989	0.000369995	0.402771
0.407867	17.7965	0.000374481	0.407623
0.41275	17.8942	0.000378937	0.412567
0.417633	17.9918	0.000383423	0.417419
0.422516	18.0895	0.000387909	0.422272
0.427399	18.1871	0.000392365	0.427155
0.432281	18.2848	0.000396851	0.432068
0.437164	18.3824	0.000401337	0.43689
0.442047	18.4801	0.000405823	0.441742
0.44693	18.5778	0.000410278	0.446625
0.451813	18.6754	0.000414764	0.451508
0.456696	18.7731	0.00041925	0.456421
0.461578	18.8707	0.000423737	0.461273
0.466461	18.9684	0.000428223	0.466156
0.471344	19.066	0.000432678	0.471039
0.476227	19.1637	0.000437164	0.475983
0.48111	19.2614	0.00044165	0.480774
0.485992	19.359	0.000446136	0.485657
0.490875	19.4567	0.000450592	0.49057
0.495758	19.5543	0.000455109	0.495392
0.500641	19.652	0.000459595	0.500305
0.495758	19.7496	0.000455078	0.495422
0.490875	19.8473	0.000450623	0.49057
0.485992	19.9449	0.000446106	0.485718
0.48111	20.0426	0.00044165	0.480804
0.476227	20.1403	0.000437164	0.475952
0.471344	20.2379	0.000432678	0.471069
0.466461	20.3356	0.000428223	0.466187
0.461578	20.4332	0.000423737	0.461304
0.456696	20.5309	0.00041925	0.456421
0.451813	20.6285	0.000414764	0.451569
0.44693	20.7262	0.000410278	0.446625
0.442047	20.8238	0.000405792	0.441772
0.437164	20.9215	0.000401306	0.43692
0.432281	21.0192	0.000396851	0.432098
0.427399	21.1168	0.000392365	0.427155
0.422516	21.2145	0.000387878	0.422241
0.417633	21.3121	0.000383392	0.417358
0.41275	21.4098	0.000378906	0.412537
0.407867	21.5074	0.000374451	0.407623
0.402985	21.6051	0.000369965	0.40274
0.398102	21.7028	0.000365509	0.397858
0.393219	21.8004	0.000360992	0.392975
0.388336	21.8981	0.000356506	0.388153
0.383453	21.9957	0.00035202	0.383209
0.378571	22.0934	0.000347565	0.378387
0.373688	22.191	0.000343079	0.373474
0.368805	22.2887	0.000338593	0.368561
0.363922	22.3863	0.000334137	0.36377
0.359039	22.484	0.000329651	0.358917
0.354156	22.5817	0.000325165	0.353973
0.349274	22.6793	0.000320679	0.349091
0.344391	22.777	0.000316193	0.344238
0.339508	22.8746	0.000311707	0.339355
0.334625	22.9723	0.000307251	0.334503
0.329742	23.0699	0.000302765	0.32962
0.32486	23.1676	0.000298279	0.324738
0.319977	23.2652	0.000293793	0.319824
0.315094	23.3629	0.000289307	0.314941
0.310211	23.4606	0.00028479	0.310089
0.305328	23.5582	0.000280334	0.305176
0.300446	23.6559	0.000275848	0.300293
0.295563	23.7535	0.000271362	0.29541
0.29068	23.8512	0.000266876	0.290527
0.285797	23.9488	0.00026239	0.285675
0.280914	24.0465	0.000257904	0.280792
0.276031	24.1442	0.000253418	0.275879
0.271149	24.2418	0.000248962	0.271027
0.266266	24.3395	0.000244476	0.266113
0.261383	24.4371	0.000240021	0.261322
0.2565	24.5348	0.000235535	0.256378
0.251617	24.6324	0.000231049	0.251526
0.246735	24.7301	0.0002265625	0.246674
0.241852	24.8277	0.000222076	0.24176
0.236969	24.9254	0.00021759	0.236816
0.232086	25.0231	0.000213104	0.231995
0.227203	25.1207	0.000208618	0.227081
0.222321	25.2184	0.000204132	0.22226
0.217438	25.316	0.000199646	0.217377
0.212555	25.4137	0.00019519	0.212494
0.207672	25.5113	0.000190704	0.207642
0.202789	25.609	0.000186218	0.202728
0.197906	25.7066	0.000181732	0.197876
0.193024	25.8043	0.000177277	0.192993
0.188141	25.902	0.000172791	0.188141
0.183258	25.9996	0.000168304	0.183228
0.178375	26.0973	0.000163818	0.178314
0.173492	26.1949	0.000159332	0.173492
0.16861	26.2926	0.000154846	0.168579
0.163727	26.3902	0.00015036	0.163696
0.158844	26.4879	0.000145905	0.158844
0.153961	26.5856	0.000141418	0.153961
0.149078	26.6832	0.000136932	0.149078
0.144196	26.7809	0.000132446	0.144226
0.139313	26.8785	0.000127991	0.139313
0.13443	26.9762	0.000123505	0.13443
0.129547	27.0738	0.000119019	0.129578
0.124664	27.1715	0.000114563	0.124695
0.119781	27.2691	0.000110077	0.119873
0.114899	27.3668	0.000105591	0.11499
0.110016	27.4645	0.000101105	0.110077
0.105133	27.5621	9.66187e-05	0.105194
0.10025	27.6598	9.21631e-05	0.100342
0.0953674	27.7574	8.75244e-05	0.0953064
0.0904846	27.8551	8.30688e-05	0.0903625
0.0856018	27.9527	7.85828e-05	0.0855408
0.080719	28.0504	7.40967e-05	0.0806274
0.0758362	28.148	6.96106e-05	0.0757751
0.0709534	28.2457	6.5155e-05	0.0708313
0.0660706	28.3434	6.06689e-05	0.06604
0.0611877	28.441	5.61829e-05	0.0611267
0.0563049	28.5387	5.16968e-05	0.0562744
0.0514221	28.6363	4.72107e-05	0.0514221
0.0465393	28.734	4.27307e-05	0.0468079
0.0416565	28.8316	3.82507e-05	0.041922
0.0367737	28.9293	3.3783e-05	0.0370575
0.0318909	29.027	2.9306e-05	0.0321869
0.0270081	29.1246	2.48291e-05	0.0273041
0.0221252	29.2223	2.03522e-05	0.0224121
0.0172424	29.3199	1.58691e-05	0.0175385
0.0123596	29.4176	1.13953e-05	0.0126526
0.00747681	29.5152	6.91528e-06	0.00777893
0.00259399	29.6129	2.43408e-06	0.00293579
-0.00228882	29.7105	-2.05078e-06	-0.00194702
-0.00717163	29.8082	-6.52466e-06	-0.0068634
-0.0120544	29.9059	-1.09985e-05	-0.0117218
-0.0169373	30.0035	-1.54785e-05	-0.0166016
-0.0218201	30.1012	-1.99615e-05	-0.0214722
-0.0267029	30.1988	-2.44385e-05	-0.0263367
-0.0315857	30.2965	-2.89154e-05	-0.0312134
-0.0364685	30.3941	-3.34045e-05	-0.0361481
-0.0413513	30.4918	-3.78723e-05	-0.0410034
-0.0462341	30.5894	-4.23492e-05	-0.0458984
-0.0511169	30.6871	-4.68292e-05	-0.0509033
-0.0559998	30.7848	-5.13e-05	-0.0557556
-0.0608826	30.8824	-5.57861e-05	-0.0606384
-0.0657654	30.9801	-6.02722e-05	-0.0655518
-0.0706482	31.0777	-6.47583e-05	-0.0704346
-0.075531	31.1754	-6.92444e-05	-0.0752869
-0.0804138	31.273	-7.37e-05	-0.0801086
-0.0852966	31.3707	-7.8186e-05	-0.085022
-0.0901794	31.4684	-8.26721e-05	-0.0899048
-0.0950623	31.566	-8.71582e-05	-0.0947571
-0.0999451	31.6637	-9.16443e-05	-0.0996704
-0.104828	31.7613	-9.60999e-05	-0.104492
-0.109711	31.859	-0.000100616	-0.109436
-0.114594	31.9566	-0.000105072	-0.114288
-0.119476	32.0543	-0.000109558	-0.119141
-0.124359	32.1519	-0.000114014	-0.124054
-0.129242	32.2496	-0.0001185	-0.128937
-0.134125	32.3473	-0.000122986	-0.133728
-0.139008	32.4449	-0.000127472	-0.138611
-0.14389	32.5426	-0.000131927	-0.143524
-0.148773	32.6402	-0.000136414	-0.148346
-0.153656	32.7379	-0.0001409	-0.15332
-0.158539	32.8355	-0.000145386	-0.158112
-0.163422	32.9332	-0.000149841	-0.163025
-0.168304	33.0308	-0.000154327	-0.167847
-0.173187	33.1285	-0.000158813	-0.172668
-0.17807	33.2262	-0.0001633	-0.177643
-0.182953	33.3238	-0.000167755	-0.182465
-0.187836	33.4215	-0.000172272	-0.187408
-0.192719	33.5191	-0.000176727	-0.192291
-0.197601	33.6168	-0.000181213	-0.197052
-0.202484	33.7144	-0.000185699	-0.201996
-0.207367	33.8121	-0.000190155	-0.206848
-0.21225	33.9098	-0.000194641	-0.21167
-0.217133	34.0074	-0.000199127	-0.216553
-0.222015	34.1051	-0.000203613	-0.221436
-0.226898	34.2027	-0.000208099	-0.226379
-0.231781	34.3004	-0.000212585	-0.231201
-0.236664	34.398	-0.000217072	-0.236053
-0.241547	34.4957	-0.000221527	-0.240936
-0.246429	34.5933	-0.000226013	-0.245789
-0.251312	34.691	-0.000230499	-0.250671
-0.256195	34.7887	-0.000234985	-0.255554
-0.261078	34.8863	-0.000239471	-0.260437
-0.265961	34.984	-0.000243958	-0.265289
-0.270844	35.0816	-0.000248413	-0.270142
-0.275726	35.1793	-0.000252899	-0.275055
-0.280609	35.2769	-0.000257385	-0.279846
-0.285492	35.3746	-0.000261841	-0.28479
-0.290375	35.4722	-0.000266327	-0.289642
-0.295258	35.5699	-0.000270813	-0.294464
-0.30014	35.6676	-0.000275299	-0.299377
-0.305023	35.7652	-0.000279785	-0.304199
-0.309906	35.8629	-0.000284271	-0.309082
-0.314789	35.9605	-0.000288757	-0.313995
-0.319672	36.0582	-0.000293243	-0.318878
-0.324554	36.1558	-0.000297729	-0.323669
-0.329437	36.2535	-0.000302216	-0.328613
-0.33432	36.3512	-0.000306793	-0.334045
-0.339203	36.4488	-0.000311279	-0.338928
-0.344086	36.5465	-0.000315765	-0.343781
-0.348969	36.6441	-0.000320251	-0.348755
-0.353851	36.7418	-0.000324738	-0.353638
-0.358734	36.8394	-0.000329224	-0.35849
-0.363617	36.9371	-0.00033371	-0.363342
-0.3685	37.0347	-0.000338196	-0.368225
-0.373383	37.1324	-0.000342651	-0.373138
-0.378265	37.2301	-0.000347168	-0.377991
-0.383148	37.3277	-0.000351654	-0.382843
-0.388031	37.4254	-0.00035614	-0.387787
-0.392914	37.523	-0.000360596	-0.392578
-0.397797	37.6207	-0.000365082	-0.397461
-0.402679	37.7183	-0.000369598	-0.402405
-0.407562	37.816	-0.000374054	-0.407288
-0.412445	37.9136	-0.00037854	-0.41217
-0.417328	38.0113	-0.000383026	-0.417053
-0.422211	38.109	-0.000387512	-0.421936
-0.427094	38.2066	-0.000391968	-0.426819
-0.431976	38.3043	-0.000396454	-0.431671
-0.436859	38.4019	-0.00040094	-0.436523
-0.441742	38.4996	-0.000405426	-0.441406
-0.446625	38.5972	-0.000409912	-0.44632
-0.451508	38.6949	-0.000414398	-0.451172
-0.45639	38.7926	-0.000418884	-0.456085
-0.461273	38.8902	-0.00042337	-0.460999
-0.466156	38.9879	-0.000427856	-0.465851
-0.471039	39.0855	-0.000432343	-0.470703
-0.475922	39.1832	-0.000436829	-0.475616
-0.480804	39.2808	-0.000441315	-0.480499
-0.485687	39.3785	-0.000445801	-0.485352
-0.49057	39.4761	-0.000450287	-0.490204
-0.495453	39.5738	-0.000454773	-0.495148
-0.500336	39.6715	-0.000459259	-0.5
-0.495453	39.7691	-0.000454773	-0.495087
-0.49057	39.8668	-0.000450287	-0.490234
-0.485687	39.9644	-0.000445801	-0.485352
-0.480804	40.0621	-0.000441315	-0.480499
-0.475922	40.1597	-0.000436829	-0.475616
-0.471039	40.2574	-0.000432343	-0.470673
-0.466156	40.355	-0.000427887	-0.465851
-0.461273	40.4527	-0.00042337	-0.460999
-0.45639	40.5504	-0.000418884	-0.456055
-0.451508	40.648	-0.000414398	-0.451202
-0.446625	40.7457	-0.000409912	-0.446289
-0.441742	40.8433	-0.000405426	-0.441437
-0.436859	40.941	-0.00040097	-0.436584
-0.431976	41.0386	-0.000396484	-0.43158
-0.427094	41.1363	-0.000391998	-0.426758
-0.422211	41.234	-0.000387512	-0.421906
-0.417328	41.3316	-0.000383026	-0.417053
-0.412445	41.4293	-0.00037854	-0.412201
-0.407562	41.5269	-0.000374084	-0.407288
-0.402679	41.6246	-0.000369598	-0.402405
-0.397797	41.7222	-0.000365112	-0.397522
-0.392914	41.8199	-0.000360626	-0.392639
-0.388031	41.9175	-0.00035614	-0.387756
-0.383148	42.0152	-0.000351654	-0.382843
-0.378265	42.1129	-0.000347168	-0.37796
-0.373383	42.2105	-0.000342682	-0.373169
-0.3685	42.3082	-0.000338196	-0.368256
-0.363617	42.4058	-0.00033374	-0.363342
-0.358734	42.5035	-0.000329224	-0.358459
-0.353851	42.6011	-0.000324768	-0.353607
-0.348969	42.6988	-0.000320282	-0.348755
-0.344086	42.7964	-0.000315796	-0.343842
-0.339203	42.8941	-0.00031131	-0.338928
-0.33432	42.9918	-0.000306824	-0.334106
-0.329437	43.0894	-0.000302338	-0.329193
-0.324554	43.1871	-0.000297852	-0.32431
-0.319672	43.2847	-0.000293365	-0.319458
-0.314789	43.3824	-0.00028891	-0.314545
-0.309906	43.48	-0.000284393	-0.309662
-0.305023	43.5777	-0.000279907	-0.304718
-0.30014	43.6754	-0.000275421	-0.299866
-0.295258	43.773	-0.000270935	-0.294983
-0.290375	43.8707	-0.000266449	-0.2901
-0.285492	43.9683	-0.000261963	-0.285217
-0.280609	44.066	-0.000257477	-0.280396
-0.275726	44.1636	-0.000252991	-0.275421
-0.270844	44.2613	-0.000248535	-0.270538
-0.265961	44.3589	-0.000244049	-0.265686
-0.261078	44.4566	-0.000239563	-0.260773
-0.256195	44.5543	-0.000235077	-0.255981
-0.251312	44.6519	-0.000230591	-0.251099
-0.246429	44.7496	-0.000226135	-0.246216
-0.241547	44.8472	-0.000221649	-0.241302
-0.236664	44.9449	-0.000217163	-0.23645
-0.231781	45.0425	-0.000212677	-0.231567
-0.226898	45.1402	-0.000208191	-0.226685
-0.222015	45.2378	-0.000203705	-0.221771
-0.217133	45.3355	-0.000199219	-0.216888
-0.21225	45.4332	-0.000194733	-0.211975
-0.207367	45.5308	-0.000190247	-0.207123
-0.202484	45.6285	-0.00018576	-0.20224
-0.197601	45.7261	-0.000181274	-0.197296
-0.192719	45.8238	-0.000176819	-0.192505
-0.187836	45.9214	-0.000172302	-0.187592
-0.182953	46.0191	-0.000167816	-0.182739
-0.17807	46.1168	-0.000163361	-0.177856
-0.173187	46.2144	-0.000158875	-0.172943
-0.168304	46.3121	-0.000154388	-0.16806
-0.163422	46.4097	-0.000149902	-0.163177
-0.158539	46.5074	-0.000145416	-0.158325
-0.153656	46.605	-0.000140961	-0.153473
-0.148773	46.7027	-0.000136475	-0.14859
-0.14389	46.8003	-0.000131989	-0.143738
-0.139008	46.898	-0.000127502	-0.138794
-0.134125	46.9957	-0.000123016	-0.133942
-0.129242	47.0933	-0.00011853	-0.129059
-0.124359	47.191	-0.000114044	-0.124207
-0.119476	47.2886	-0.000109589	-0.119293
-0.114594	47.3863	-0.000105103	-0.11441
-0.109711	47.4839	-0.000100616	-0.109528
-0.104828	47.5816	-9.61304e-05	-0.104645
-0.0999451	47.6792	-9.16443e-05	-0.0997925
-0.0950623	47.7769	-8.71582e-05	-0.0947571
-0.0901794	47.8746	-8.26721e-05	-0.0898743
-0.0852966	47.9722	-7.8186e-05	-0.085022
-0.0804138	48.0699	-7.37305e-05	-0.0801392
-0.075531	48.1675	-6.92444e-05	-0.0752869
-0.0706482	48.2652	-6.47583e-05	-0.0704041
-0.0657654	48.3628	-6.02722e-05	-0.0655212
-0.0608826	48.4605	-5.57861e-05	-0.0606689
-0.0559998	48.5582	-5.13e-05	-0.0557556
-0.0511169	48.6558	-4.68353e-05	-0.0509033
-0.0462341	48.7535	-4.23553e-05	-0.0458954
-0.0413513	48.8511	-3.78754e-05	-0.0410248
-0.0364685	48.9488	-3.34076e-05	-0.036145
-0.0315857	49.0464	-2.89276e-05	-0.0312653
-0.0267029	49.1441	-2.44446e-05	-0.0263794
-0.0218201	49.2417	-1.99677e-05	-0.0215118
-0.0169373	49.3394	-1.54846e-05	-0.016626
-0.0120544	49.4371	-1.10077e-05	-0.0117371
-0.00717163	49.5347	-6.52466e-06	-0.0068634
-0.00228882	49.6324	-2.05414e-06	-0.001953125
0.00259399	49.73	2.43195e-06	0.00291443
0.00747681	49.8277	6.91528e-06	0.00776367
0.0123596	49.9253	1.13922e-05	0.0126434
0.0172424	50.023	1.58661e-05	0.0175171
0.0221252	50.1206	2.03491e-05	0.022403
0.0270081	50.2183	2.4826e-05	0.0272675
0.0318909	50.316	2.92999e-05	0.0321503
0.0367737	50.4136	3.37799e-05	0.0370483
0.0416565	50.5113	3.82507e-05	0.041925
0.0465393	50.6089	4.27246e-05	0.0468018
0.0514221	50.7066	4.72076e-05	0.0513916
0.0563049	50.8042	5.16968e-05	0.0562439
0.0611877	50.9019	5.61829e-05	0.0611572
0.0660706	50.9996	6.06689e-05	0.0660095
0.0709534	51.0972	6.51245e-05	0.0708923
0.0758362	51.1949	6.96106e-05	0.0757141
0.080719	51.2925	7.40967e-05	0.080658
0.0856018	51.3902	7.85828e-05	0.0855103
0.0904846	51.4878	8.30688e-05	0.0904236
0.0953674	51.5855	8.75244e-05	0.0952759
0.10025	51.6831	9.20105e-05	0.100128
0.105133	51.7808	9.64966e-05	0.105011
0.110016	51.8785	0.000100983	0.109894
0.114899	51.9761	0.000105438	0.114746
0.119781	52.0738	0.000109924	0.119659
0.124664	52.1714	0.00011441	0.124542
0.129547	52.2691	0.000118866	0.129395
0.13443	52.3667	0.000123352	0.134277
0.139313	52.4644	0.000127808	0.13913
0.144196	52.562	0.000132294	0.144012
0.149078	52.6597	0.00013678	0.148895
0.153961	52.7574	0.000141266	0.153717
0.158844	52.855	0.000145721	0.15863
0.163727	52.9527	0.000150208	0.163483
0.16861	53.0503	0.000154694	0.168335
0.173492	53.148	0.000159149	0.173218
0.178375	53.2456	0.000163635	0.17807
0.183258	53.3433	0.000168121	0.182983
0.188141	53.441	0.000172607	0.187866
0.193024	53.5386	0.000177063	0.192688
0.197906	53.6363	0.000181519	0.197601
0.202789	53.7339	0.000186035	0.202454
0.207672	53.8316	0.000190491	0.207336
0.212555	53.9292	0.000194977	0.212219
0.217438	54.0269	0.000199463	0.217041
0.222321	54.1245	0.000203949	0.221954
0.227203	54.2222	0.000208405	0.226807
0.232086	54.3199	0.000212891	0.231689
0.236969	54.4175	0.000217377	0.236511
0.241852	54.5152	0.000221832	0.241394
0.246735	54.6128	0.000226318	0.246307
0.251617	54.7105	0.000230804	0.25116
0.2565	54.8081	0.000235291	0.255981
0.261383	54.9058	0.000239777	0.260834
0.266266	55.0034	0.000244232	0.265747
0.271149	55.1011	0.000248718	0.270569
0.276031	55.1988	0.000253174	0.275421
0.280914	55.2964	0.00025766	0.280334
0.285797	55.3941	0.000262146	0.285217
0.29068	55.4917	0.000266602	0.290009
0.295563	55.5894	0.000271088	0.294891
0.300446	55.687	0.000275574	0.299744
0.305328	55.7847	0.00028006	0.304657
0.310211	55.8824	0.000284515	0.309479
0.315094	55.98	0.000289032	0.314392
0.319977	56.0777	0.000293518	0.319275
0.32486	56.1753	0.000297974	0.324158
0.329742	56.273	0.000302765	0.32959
0.334625	56.3706	0.000307251	0.334503
0.339508	56.4683	0.000311737	0.339355
0.344391	56.5659	0.000316193	0.344177
0.349274	56.6636	0.000320679	0.349152
0.354156	56.7613	0.000325165	0.353943
0.359039	56.8589	0.000329651	0.358917
0.363922	56.9566	0.000334137	0.3638
0.368805	57.0542	0.000338593	0.368622
0.373688	57.1519	0.000343079	0.373505
0.378571	57.2495	0.000347565	0.378357
0.383453	57.3472	0.000352051	0.383209
0.388336	57.4448	0.000356537	0.388092
0.393219	57.5425	0.000360992	0.393005
0.398102	57.6402	0.000365509	0.397858
0.402985	57.7378	0.000369965	0.40274
0.407867	57.8355	0.000374451	0.407654
0.41275	57.9331	0.000378937	0.412506
0.417633	58.0308	0.000383392	0.417328
0.422516	58.1284	0.000387878	0.422272
0.427399	58.2261	0.000392365	0.427155
0.432281	58.3238	0.000396851	0.432037
0.437164	58.4214	0.000401337	0.43689
0.442047	58.5191	0.000405792	0.441772
0.44693	58.6167	0.000410278	0.446594
0.451813	58.7144	0.000414764	0.451538
0.456696	58.812	0.00041922	0.45639
0.461578	58.9097	0.000423706	0.461273
0.466461	59.0073	0.000428192	0.466187
0.471344	59.105	0.000432678	0.471069
0.476227	59.2027	0.000437164	0.475952
0.48111	59.3003	0.00044165	0.480804
0.485992	59.398	0.000446106	0.485687
0.490875	59.4956	0.000450592	0.490509
0.495758	59.5933	0.000455078	0.495483
0.500641	59.6909	0.000459564	0.500366
0.495758	59.7886	0.000455078	0.495453
0.490875	59.8862	0.000450592	0.49054
0.485992	59.9839	0.000446106	0.485687
0.48111	60.0816	0.00044162	0.480804
0.476227	60.1792	0.000437164	0.475922
0.471344	60.2769	0.000432678	0.471039
0.466461	60.3745	0.000428192	0.466187
0.461578	60.4722	0.000423706	0.461273
0.456696	60.5698	0.00041925	0.456451
0.451813	60.6675	0.000414764	0.451538
0.44693	60.7652	0.000410278	0.446655
0.442047	60.8628	0.000405792	0.441803
0.437164	60.9605	0.000401306	0.43689
0.432281	61.0581	0.00039682	0.432007
0.427399	61.1558	0.000392365	0.427216
0.422516	61.2534	0.000387878	0.422272
0.417633	61.3511	0.000383392	0.417389
0.41275	61.4487	0.000378906	0.412506
0.407867	61.5464	0.00037442	0.407623
0.402985	61.6441	0.000369965	0.40271
0.398102	61.7417	0.000365479	0.397888
0.393219	61.8394	0.000360992	0.393005
0.388336	61.937	0.000356506	0.388092
0.383453	62.0347	0.00035202	0.38327
0.378571	62.1323	0.000347565	0.378326
0.373688	62.23	0.000343079	0.373505
0.368805	62.3276	0.000338593	0.368622
0.363922	62.4253	0.000334106	0.363739
0.359039	62.523	0.00032962	0.358856
0.354156	62.6206	0.000325134	0.353943
0.349274	62.7183	0.000320679	0.349091
0.344391	62.8159	0.000316193	0.344238
0.339508	62.9136	0.000311707	0.339355
0.334625	63.0112	0.00030722	0.334503
0.329742	63.1089	0.000302734	0.32959
0.32486	63.2066	0.000298248	0.324738
0.319977	63.3042	0.000293793	0.319824
0.315094	63.4019	0.000289307	0.315002
0.310211	63.4995	0.00028479	0.310028
0.305328	63.5972	0.000280304	0.305206
0.300446	63.6948	0.000275848	0.300262
0.295563	63.7925	0.000271362	0.295441
0.29068	63.8901	0.000266876	0.290527
0.285797	63.9878	0.00026239	0.285675
0.280914	64.0855	0.000257904	0.280762
0.276031	64.1831	0.000253418	0.275879
0.271149	64.2808	0.000248962	0.271027
0.266266	64.3784	0.000244476	0.266144
0.261383	64.4761	0.00023999	0.261292
0.2565	64.5737	0.000235535	0.256378
0.251617	64.6714	0.000231049	0.251526
0.246735	64.769	0.0002265625	0.246613
0.241852	64.8667	0.000222076	0.24176
0.236969	64.9644	0.00021759	0.236847
0.232086	65.062	0.000213104	0.232025
0.227203	65.1597	0.000208618	0.227112
0.222321	65.2573	0.000204132	0.22226
0.217438	65.355	0.000199677	0.217377
0.212555	65.4526	0.00019519	0.212463
0.207672	65.5503	0.000190704	0.207611
0.202789	65.648	0.000186218	0.202728
0.197906	65.7456	0.000181732	0.197815
0.193024	65.8433	0.000177277	0.193024
0.188141	65.9409	0.000172791	0.18811
0.183258	66.0386	0.000168304	0.183258
0.178375	66.1362	0.000163818	0.178406
0.173492	66.2339	0.000159332	0.173492
0.16861	66.3315	0.000154846	0.168518
0.163727	66.4292	0.000150391	0.163696
0.158844	66.5269	0.000145905	0.158813
0.153961	66.6245	0.000141418	0.153992
0.149078	66.7222	0.000136932	0.149109
0.144196	66.8198	0.000132477	0.144165
0.139313	66.9175	0.000127991	0.139313
0.13443	67.0151	0.000123505	0.13443
0.129547	67.1128	0.000119019	0.129578
0.124664	67.2104	0.000114532	0.124695
0.119781	67.3081	0.000110046	0.119812
0.114899	67.4058	0.000105591	0.11499
0.110016	67.5034	0.000101105	0.110077
0.105133	67.6011	9.66187e-05	0.105225
0.10025	67.6987	9.21326e-05	0.100311
0.0953674	67.7964	8.75244e-05	0.0952454
0.0904846	67.894	8.30383e-05	0.0903931
0.0856018	67.9917	7.85828e-05	0.0855408
0.080719	68.0894	7.40967e-05	0.0806274
0.0758362	68.187	6.96106e-05	0.0758057
0.0709534	68.2847	6.51245e-05	0.0708923
0.0660706	68.3823	6.06689e-05	0.06604
0.0611877	68.48	5.61829e-05	0.0611267
0.0563049	68.5776	5.16968e-05	0.0562439
0.0514221	68.6753	4.72015e-05	0.0514526
0.0465393	68.7729	4.27246e-05	0.0467987
0.0416565	68.8706	3.82446e-05	0.0419342
0.0367737	68.9683	3.37708e-05	0.0370575
0.0318909	69.0659	2.92999e-05	0.0321777
0.0270081	69.1636	2.4823e-05	0.0273071
0.0221252	69.2612	2.0343e-05	0.0224274
0.0172424	69.3589	1.5863e-05	0.0175232
0.0123596	69.4565	1.13861e-05	0.0126587
0.00747681	69.5542	6.90613e-06	0.00779114
0.00259399	69.6518	2.42157e-06	0.00292358
-0.00228882	69.7495	-2.05231e-06	-0.00197449
-0.00717163	69.8472	-6.52466e-06	-0.00683594
-0.0120544	69.9448	-1.10077e-05	-0.011731
-0.0169373	70.0425	-1.54785e-05	-0.0166046
-0.0218201	70.1401	-1.99646e-05	-0.0214813
-0.0267029	70.2378	-2.44415e-05	-0.0263489
-0.0315857	70.3354	-2.89215e-05	-0.0312225
-0.0364685	70.4331	-3.34106e-05	-0.036145
-0.0413513	70.5308	-3.78784e-05	-0.0410126
-0.0462341	70.6284	-4.23615e-05	-0.0459106
-0.0511169	70.7261	-4.68384e-05	-0.0509338
-0.0559998	70.8237	-5.13e-05	-0.0558167
-0.0608826	70.9214	-5.57861e-05	-0.0606384
-0.0657654	71.019	-6.02722e-05	-0.0655212
-0.0706482	71.1167	-6.47583e-05	-0.070343
-0.075531	71.2143	-6.92444e-05	-0.0753174
-0.0804138	71.312	-7.37305e-05	-0.0801697
-0.0852966	71.4097	-7.82166e-05	-0.0850525
-0.0901794	71.5073	-8.26721e-05	-0.0899048
-0.0950623	71.605	-8.71582e-05	-0.0947876
-0.0999451	71.7026	-9.16443e-05	-0.0996704
-0.104828	71.8003	-9.61304e-05	-0.104553
-0.109711	71.8979	-0.000100616	-0.109406
-0.114594	71.9956	-0.000105072	-0.114288
-0.119476	72.0932	-0.000109558	-0.119171
-0.124359	72.1909	-0.000114044	-0.124023
-0.129242	72.2886	-0.0001185	-0.128845
-0.134125	72.3862	-0.000122986	-0.133759
-0.139008	72.4839	-0.000127472	-0.138672
-0.14389	72.5815	-0.000131958	-0.143463
-0.148773	72.6792	-0.000136414	-0.148376
-0.153656	72.7768	-0.0001409	-0.15329
-0.158539	72.8745	-0.000145386	-0.158112
-0.163422	72.9722	-0.000149872	-0.162994
-0.168304	73.0698	-0.000154358	-0.167938
-0.173187	73.1675	-0.000158813	-0.172791
-0.17807	73.2651	-0.0001633	-0.177612
-0.182953	73.3628	-0.000167786	-0.182465
-0.187836	73.4604	-0.000172272	-0.187317
-0.192719	73.5581	-0.000176758	-0.19223
-0.197601	73.6557	-0.000181213	-0.197113
-0.202484	73.7534	-0.000185699	-0.201935
-0.207367	73.8511	-0.000190186	-0.206848
-0.21225	73.9487	-0.000194641	-0.211731
-0.217133	74.0464	-0.000199127	-0.216583
-0.222015	74.144	-0.000203613	-0.221436
-0.226898	74.2417	-0.000208099	-0.226379
-0.231781	74.3393	-0.000212585	-0.231171
-0.236664	74.437	-0.000217072	-0.236115
-0.241547	74.5346	-0.000221558	-0.240936
-0.246429	74.6323	-0.000226013	-0.245819
-0.251312	74.73	-0.000230499	-0.25061
-0.256195	74.8276	-0.000234985	-0.255493
-0.261078	74.9253	-0.000239471	-0.260406
-0.265961	75.0229	-0.000243958	-0.26532
-0.270844	75.1206	-0.000248444	-0.270172
-0.275726	75.2182	-0.000252899	-0.274994
-0.280609	75.3159	-0.000257355	-0.279846
-0.285492	75.4136	-0.000261871	-0.284698
-0.290375	75.5112	-0.000266327	-0.289581
-0.295258	75.6089	-0.000270813	-0.294495
-0.30014	75.7065	-0.000275299	-0.299347
-0.305023	75.8042	-0.000279785	-0.30426
-0.309906	75.9018	-0.000284271	-0.309052
-0.314789	75.9995	-0.000288757	-0.313995
-0.319672	76.0971	-0.000293243	-0.318878
-0.324554	76.1948	-0.000297729	-0.323761
-0.329437	76.2925	-0.000302216	-0.328613
-0.33432	76.3901	-0.000306793	-0.334106
-0.339203	76.4878	-0.000311279	-0.338989
-0.344086	76.5854	-0.000315765	-0.343811
-0.348969	76.6831	-0.000320251	-0.348694
-0.353851	76.7807	-0.000324738	-0.353577
-0.358734	76.8784	-0.000329224	-0.358429
-0.363617	76.976	-0.000333679	-0.363342
-0.3685	77.0737	-0.000338165	-0.368256
-0.373383	77.1714	-0.000342682	-0.373108
-0.378265	77.269	-0.000347137	-0.377991
-0.383148	77.3667	-0.000351624	-0.382874
-0.388031	77.4643	-0.00035611	-0.387817
-0.392914	77.562	-0.000360626	-0.392639
-0.397797	77.6596	-0.000365082	-0.397552
-0.402679	77.7573	-0.000369568	-0.402405
-0.407562	77.855	-0.000374054	-0.407227
-0.412445	77.9526	-0.00037854	-0.41214
-0.417328	78.0503	-0.000382996	-0.417023
-0.422211	78.1479	-0.000387512	-0.421906
-0.427094	78.2456	-0.000391998	-0.426788
-0.431976	78.3432	-0.000396454	-0.431702
-0.436859	78.4409	-0.00040094	-0.436554
-0.441742	78.5385	-0.000405426	-0.441406
-0.446625	78.6362	-0.000409912	-0.44632
-0.451508	78.7339	-0.000414398	-0.451202
-0.45639	78.8315	-0.000418884	-0.456146
-0.461273	78.9292	-0.00042337	-0.460968
-0.466156	79.0268	-0.000427856	-0.465851
-0.471039	79.1245	-0.000432343	-0.470764
-0.475922	79.2221	-0.000436829	-0.475616
-0.480804	79.3198	-0.000441284	-0.480438
-0.485687	79.4174	-0.00044577	-0.485352
-0.49057	79.5151	-0.000450256	-0.490234
-0.495453	79.6128	-0.000454742	-0.495117
-0.500336	79.7104	-0.000459229	-0.499969
-0.495453	79.8081	-0.000454742	-0.495087
-0.49057	79.9057	-0.000450287	-0.490173
-0.485687	80.0034	-0.00044577	-0.485352
-0.480804	80.101	-0.000441284	-0.480438
-0.475922	80.1987	-0.000436829	-0.475647
-0.471039	80.2964	-0.000432312	-0.470734
-0.466156	80.394	-0.000427856	-0.465851
-0.461273	80.4917	-0.00042337	-0.460968
-0.45639	80.5893	-0.000418884	-0.456085
-0.451508	80.687	-0.000414398	-0.451263
-0.446625	80.7846	-0.000409912	-0.44635
-0.441742	80.8823	-0.000405426	-0.441467
-0.436859	80.9799	-0.00040094	-0.436584
-0.431976	81.0776	-0.000396484	-0.431641
-0.427094	81.1753	-0.000391998	-0.426788
-0.422211	81.2729	-0.000387512	-0.421844
-0.417328	81.3706	-0.000383026	-0.417053
-0.412445	81.4682	-0.00037854	-0.412201
-0.407562	81.5659	-0.000374084	-0.407288
-0.402679	81.6635	-0.000369568	-0.402405
-0.397797	81.7612	-0.000365112	-0.397461
-0.392914	81.8588	-0.000360626	-0.39267
-0.388031	81.9565	-0.00035614	-0.387756
-0.383148	82.0542	-0.000351654	-0.382843
-0.378265	82.1518	-0.000347168	-0.378021
-0.373383	82.2495	-0.000342682	-0.373138
-0.3685	82.3471	-0.000338196	-0.368195
-0.363617	82.4448	-0.00033371	-0.363403
-0.358734	82.5424	-0.000329224	-0.358459
-0.353851	82.6401	-0.000324738	-0.353607
-0.348969	82.7378	-0.000320282	-0.348724
-0.344086	82.8354	-0.000315796	-0.343811
-0.339203	82.9331	-0.00031131	-0.338928
-0.33432	83.0307	-0.000306824	-0.334076
-0.329437	83.1284	-0.000302338	-0.329193
-0.324554	83.226	-0.000297852	-0.324341
-0.319672	83.3237	-0.000293365	-0.319458
-0.314789	83.4213	-0.00028891	-0.314606
-0.309906	83.519	-0.000284393	-0.309631
-0.305023	83.6167	-0.000279907	-0.304718
-0.30014	83.7143	-0.000275421	-0.299866
-0.295258	83.812	-0.000270935	-0.295013
-0.290375	83.9096	-0.000266449	-0.29007
-0.285492	84.0073	-0.000261963	-0.285248
-0.280609	84.1049	-0.000257477	-0.280365
-0.275726	84.2026	-0.000252991	-0.275452
-0.270844	84.3002	-0.000248535	-0.27063
-0.265961	84.3979	-0.000244049	-0.265686
-0.261078	84.4956	-0.000239563	-0.260803
-0.256195	84.5932	-0.000235077	-0.255951
-0.251312	84.6909	-0.000230591	-0.251038
-0.246429	84.7885	-0.000226105	-0.246216
-0.241547	84.8862	-0.000221619	-0.241333
-0.236664	84.9838	-0.000217133	-0.236481
-0.231781	85.0815	-0.000212646	-0.231598
-0.226898	85.1792	-0.00020816	-0.226624
-0.222015	85.2768	-0.000203705	-0.221771
-0.217133	85.3745	-0.000199188	-0.216888
-0.21225	85.4721	-0.000194733	-0.212036
-0.207367	85.5698	-0.000190216	-0.207153
-0.202484	85.6674	-0.00018576	-0.202271
-0.197601	85.7651	-0.000181274	-0.197357
-0.192719	85.8627	-0.000176788	-0.192474
-0.187836	85.9604	-0.000172302	-0.187592
-0.182953	86.0581	-0.000167816	-0.182678
-0.17807	86.1557	-0.000163361	-0.177856
-0.173187	86.2534	-0.000158875	-0.172943
-0.168304	86.351	-0.000154388	-0.16806
-0.163422	86.4487	-0.000149872	-0.163239
-0.158539	86.5463	-0.000145416	-0.158356
-0.153656	86.644	-0.00014093	-0.153442
-0.148773	86.7416	-0.000136444	-0.148529
-0.14389	86.8393	-0.000131989	-0.143707
-0.139008	86.937	-0.000127502	-0.138885
-0.134125	87.0346	-0.000123016	-0.133911
-0.129242	87.1323	-0.00011853	-0.129089
-0.124359	87.2299	-0.000114044	-0.124146
-0.119476	87.3276	-0.000109558	-0.119324
-0.114594	87.4252	-0.000105072	-0.11441
-0.109711	87.5229	-0.000100616	-0.109528
-0.104828	87.6206	-9.61304e-05	-0.104645
-0.0999451	87.7182	-9.16443e-05	-0.0997314
-0.0950623	87.8159	-8.71582e-05	-0.0947571
-0.0901794	87.9135	-8.26721e-05	-0.0898743
-0.0852966	88.0112	-7.82166e-05	-0.0850525
-0.0804138	88.1088	-7.37305e-05	-0.0801697
-0.075531	88.2065	-6.92444e-05	-0.0752869
-0.0706482	88.3041	-6.47583e-05	-0.0704041
-0.0657654	88.4018	-6.02722e-05	-0.0655823
-0.0608826	88.4995	-5.57861e-05	-0.06073
-0.0559998	88.5971	-5.13306e-05	-0.0558167
-0.0511169	88.6948	-4.68414e-05	-0.0509033
-0.0462341	88.7924	-4.23584e-05	-0.0459076
-0.0413513	88.8901	-3.78815e-05	-0.0410187
-0.0364685	88.9877	-3.34137e-05	-0.0361359
-0.0315857	89.0854	-2.89307e-05	-0.0312622
-0.0267029	89.183	-2.44507e-05	-0.0263855
-0.0218201	89.2807	-1.99738e-05	-0.021524
-0.0169373	89.3784	-1.54907e-05	-0.0166138
-0.0120544	89.476	-1.10107e-05	-0.0117401
-0.00717163	89.5737	-6.53687e-06	-0.0068573
-0.00228882	89.6713	-2.05841e-06	-0.00196838
0.000152588	89.7202	1.83411e-07	0.000482178