File: Edgar/20240605/20240605/electrodeposition_pulsed_potential_20240605_A/pulses_3000_to_4000.txt
Time (s)	WE(1).Potential (V)	WE(1).Current (A)
2319.01	-0.498047	-0.0183594
2319.49	0.604248	9.94873e-06
2319.99	0.605316	4.18091e-05
2320.45	-0.49939	-0.0123749
2320.93	0.604065	1.06506e-05
2321.43	0.604156	3.08838e-05
2321.91	0.000790405	0.00549194
2322.37	0.60495	3.23486e-06
2322.87	0.604187	2.13318e-05
2323.35	-0.000314331	0.00287415
2323.81	0.605286	2.44141e-07
2324.31	0.604553	1.35193e-05
2324.81	0.604614	0.0163666
2325.25	0.605011	2.92969e-06
2325.75	0.605225	6.34766e-06
2326.25	0.604706	0.000193237
2326.71	-0.498291	-0.0183746
2327.19	0.604797	6.74438e-06
2327.69	0.604218	5.12695e-05
2328.15	-0.499207	-0.012381
2328.63	0.60498	6.01196e-06
2329.13	0.604431	3.00903e-05
2329.61	0.000802612	0.0055191
2330.07	0.605286	7.62939e-07
2330.57	0.605377	1.34583e-05
2331.05	0.00050354	0.00289337
2331.51	0.605408	4.27246e-07
2332.01	0.605347	9.12476e-06
2332.51	0.604248	0.0163818
2332.95	0.604034	7.2937e-06
2333.45	0.605347	5.49316e-06
2333.95	0.604248	0.000205627
2334.41	-0.498688	-0.0183838
2334.89	0.604645	9.52148e-06
2335.39	0.604431	4.92554e-05
2335.85	-0.499115	-0.0123962
2336.33	0.604156	9.94873e-06
2336.83	0.605225	2.38037e-05
2337.31	-0.000350952	0.00552704
2337.77	0.604401	8.66699e-06
2338.27	0.605164	1.5625e-05
2338.75	0.000238037	0.00289795
2339.21	0.605438	3.05176e-08
2339.71	0.604858	1.31836e-05
2340.21	0.60318	0.0164032
2340.65	0.604919	2.53296e-06
2341.15	0.605194	5.64575e-06
2341.65	0.60437	0.000208191
2342.11	-0.499176	-0.0183929
2342.59	0.604767	8.17871e-06
2343.09	0.604401	5.01404e-05
2343.55	-0.49884	-0.0123962
2344.03	0.605133	4.63867e-06
2344.53	0.604034	3.23181e-05
2345.01	-9.15527e-05	0.00552307
2345.47	0.604004	9.94873e-06
2345.97	0.604034	2.35291e-05
2346.45	0.000238037	0.00290192
2346.91	0.604858	3.93677e-06
2347.41	0.604553	1.40381e-05
2347.91	0.603394	0.0164124
2348.35	0.604126	8.78906e-06
2348.85	0.605103	6.50024e-06
2349.35	0.604156	0.000215973
2349.81	-0.498993	-0.0184143
2350.29	0.603882	1.28784e-05
2350.79	0.604126	5.32227e-05
2351.25	-0.49881	-0.0124084
2351.73	0.604218	1.06201e-05
2352.23	0.604309	3.00903e-05
2352.71	-0.000366211	0.00551575
2353.17	0.604401	8.3313e-06
2353.67	0.604736	1.87988e-05
2354.15	-0.000259399	0.00290405
2354.61	0.60495	3.93677e-06
2355.11	0.605194	8.78906e-06
2355.61	0.603424	0.0164124
2356.05	0.60437	5.82886e-06
2356.55	0.605499	6.31714e-06
2357.05	0.604614	0.000217194
2357.51	-0.498535	-0.0184174
2357.99	0.605316	3.69263e-06
2358.49	0.605286	4.47083e-05
2358.95	-0.498749	-0.0124268
2359.43	0.604797	5.79834e-06
2359.93	0.604462	2.8595e-05
2360.41	-0.000192261	0.00550385
2360.87	0.605255	1.80054e-06
2361.37	0.604218	2.39258e-05
2361.85	0.000695801	0.00289429
2362.31	0.604401	7.53784e-06
2362.81	0.603973	1.83716e-05
2363.31	0.603149	0.0164307
2363.75	0.604584	5.12695e-06
2364.25	0.604675	1.05896e-05
2364.75	0.604462	0.00022403
2365.21	-0.499176	-0.0184143
2365.69	0.604126	1.21155e-05
2366.19	0.604645	5.04456e-05
2366.65	-0.499664	-0.0124481
2367.13	0.605347	2.04468e-06
2367.63	0.605408	2.24609e-05
2368.11	0.000521851	0.00549957
2368.57	0.605072	1.77002e-06
2369.07	0.604034	2.23999e-05
2369.55	-0.000405884	0.00290558
2370.01	0.604675	4.57764e-06
2370.51	0.604095	1.82495e-05
2371.01	0.603302	0.0164429
2371.45	0.605255	-1.12915e-06
2371.95	0.604126	1.52588e-05
2372.45	0.604065	0.000231049
2372.91	-0.497925	-0.0184326
2373.39	0.604034	1.29089e-05
2373.89	0.605347	4.55933e-05
2374.35	-0.49826	-0.0124603
2374.83	0.605347	1.89209e-06
2375.33	0.605347	2.36206e-05
2375.81	-0.00032959	0.00549438
2376.27	0.604156	8.81958e-06
2376.77	0.604187	2.21863e-05
2377.25	0.000167847	0.00289978
2377.71	0.605255	-1.83105e-07
2378.21	0.605011	1.19324e-05
2378.71	0.604584	0.016449
2379.15	0.605316	3.35693e-07
2379.65	0.604736	1.01929e-05
2380.15	0.604126	0.000232727
2380.61	-0.499237	-0.0184326
2381.09	0.604584	9.3689e-06
2381.59	0.60498	4.63562e-05
2382.05	-0.499542	-0.0124603
2382.53	0.604675	6.68335e-06
2383.03	0.605194	2.5116e-05
2383.51	0.000219727	0.0054895
2383.97	0.604614	4.48608e-06
2384.47	0.604126	2.28882e-05
2384.95	-0.000350952	0.00290527
2385.41	0.605011	2.38037e-06
2385.91	0.604034	1.88293e-05
2386.41	0.604004	0.016452
2386.85	0.60495	-4.27246e-07
2387.35	0.604034	1.47095e-05
2387.85	0.604797	0.000234772
2388.31	-0.499176	-0.0184326
2388.79	0.605316	3.50952e-06
2389.29	0.604401	5.04456e-05
2389.75	-0.498383	-0.0124786
2390.23	0.604736	6.13403e-06
2390.73	0.604218	3.04871e-05
2391.21	-0.000384521	0.00548279
2391.67	0.605011	3.90625e-06
2392.17	0.604248	2.06909e-05
2392.65	-0.000418091	0.00290497
2393.11	0.605225	-3.96729e-07
2393.61	0.604187	1.61133e-05
2394.11	0.604462	0.0164673
2394.55	0.603973	8.27026e-06
2395.05	0.604828	1.07727e-05
2395.55	0.605377	0.000235687
2396.01	-0.498016	-0.0184479
2396.49	0.604218	1.24512e-05
2396.99	0.605011	4.65088e-05
2397.45	-0.499603	-0.0124878
2397.93	0.604095	1.13525e-05
2398.43	0.605286	2.32544e-05
2398.91	-0.000170898	0.00547394
2399.37	0.604889	5.37109e-06
2399.87	0.604034	2.32849e-05
2400.35	0.000811768	0.00289337
2400.81	0.604004	8.30078e-06
2401.31	0.605347	9.39941e-06
2401.81	0.60321	0.0164795
2402.25	0.605316	-7.62939e-07
2402.75	0.605194	6.89697e-06
2403.25	0.604126	0.000250427
2403.71	-0.498016	-0.0184479
2404.19	0.605347	4.5166e-06
2404.69	0.60437	5.33447e-05
2405.15	-0.49823	-0.0125031
2405.63	0.605408	3.87573e-06
2406.13	0.604004	3.22266e-05
2406.61	0.00050354	0.00546143
2407.07	0.603973	9.27734e-06
2407.57	0.604034	2.29797e-05
2408.05	-0.000149536	0.002901
2408.51	0.604065	9.58252e-06
2409.01	0.604309	1.60828e-05
2409.51	0.60434	0.0164825
2409.95	0.605408	-4.57764e-07
2410.45	0.605408	7.04956e-06
2410.95	0.604065	0.000253815
2411.41	-0.498413	-0.0184509
2411.89	0.604034	1.43433e-05
2412.39	0.604004	5.4718e-05
2412.85	-0.498688	-0.0125031
2413.33	0.604065	1.18103e-05
2413.83	0.604065	3.28674e-05
2414.31	-0.000183105	0.00546112
2414.77	0.604065	9.33838e-06
2415.27	0.604218	2.25525e-05
2415.75	0.00067749	0.00289612
2416.21	0.604401	5.37109e-06
2416.71	0.604431	1.63574e-05
2417.21	0.60318	0.0164978
2417.65	0.604767	3.93677e-06
2418.15	0.604065	1.60217e-05
2418.65	0.60498	0.000253632
2419.11	-0.499298	-0.0184479
2419.59	0.604645	9.64355e-06
2420.09	0.604431	5.11475e-05
2420.55	-0.499603	-0.0125275
2421.03	0.604706	7.20215e-06
2421.53	0.605164	2.4231e-05
2422.01	0.000524902	0.00545227
2422.47	0.604584	8.72803e-06
2422.97	0.604431	2.11182e-05
2423.45	-0.000445557	0.0029007
2423.91	0.604858	3.44849e-06
2424.41	0.605408	9.70459e-06
2424.91	0.604248	0.016507
2425.35	0.605316	-4.57764e-07
2425.85	0.605225	7.20215e-06
2426.35	0.605347	0.00025766
2426.81	-0.499084	-0.018457
2427.29	0.604248	1.20239e-05
2427.79	0.605164	4.60815e-05
2428.25	-0.499542	-0.0125397
2428.73	0.604736	5.49316e-06
2429.23	0.605469	2.38953e-05
2429.71	0.000158691	0.00544373
2430.17	0.605042	3.9978e-06
2430.67	0.604004	2.36816e-05
2431.15	0.000558472	0.0028891
2431.61	0.604126	8.54492e-06
2432.11	0.604553	1.43433e-05
2432.61	0.604095	0.0165161
2433.05	0.604828	2.80762e-06
2433.55	0.604156	1.42517e-05
2434.05	0.604401	0.000273041
2434.51	-0.498657	-0.0184723
2434.99	0.605011	7.01904e-06
2435.49	0.604095	5.39551e-05
2435.95	-0.499268	-0.012558
2436.43	0.605286	2.44141e-06
2436.93	0.604492	2.92664e-05
2437.41	0.000537109	0.00543213
2437.87	0.604126	9.39941e-06
2438.37	0.604858	1.87378e-05
2438.85	-0.00038147	0.00289551
2439.31	0.605347	-3.35693e-07
2439.81	0.604065	1.828e-05
2440.31	0.60379	0.0165283
2440.75	0.60434	4.85229e-06
2441.25	0.604095	1.53809e-05
2441.75	0.605255	0.000272461
2442.21	-0.498169	-0.0184814
2442.69	0.604004	1.37939e-05
2443.19	0.604156	5.53589e-05
2443.65	-0.498871	-0.012561
2444.13	0.60498	5.0354e-06
2444.63	0.605072	2.52075e-05
2445.11	0.00071106	0.0054245
2445.57	0.605347	1.00708e-06
2446.07	0.604248	2.16064e-05
2446.55	0.000598145	0.00289032
2447.01	0.604614	7.23267e-06
2447.51	0.604279	1.63879e-05
2448.01	0.604095	0.0165253
2448.45	0.604675	4.63867e-06
2448.95	0.604431	1.30615e-05
2449.45	0.604828	0.00028064
2449.91	-0.499268	-0.0184814
2450.39	0.604797	8.78906e-06
2450.89	0.604736	5.19409e-05
2451.35	-0.49942	-0.0125763
2451.83	0.604767	4.08936e-06
2452.33	0.60437	3.13416e-05
2452.81	3.05176e-06	0.00541718
2453.27	0.604065	9.552e-06
2453.77	0.604736	1.87378e-05
2454.25	0.000747681	0.00288361
2454.71	0.605042	2.19727e-06
2455.21	0.604156	1.62964e-05
2455.71	0.603973	0.0165405
2456.15	0.605164	2.2583e-06
2456.65	0.604462	9.79614e-06
2457.15	0.604309	0.000291656
2457.61	-0.499054	-0.0184906
2458.09	0.603882	1.36414e-05
2458.59	0.604553	5.21851e-05
2459.05	-0.499176	-0.0126038
2459.53	0.605316	1.98364e-06
2460.03	0.604309	3.08533e-05
2460.51	0.000723267	0.00540436
2460.97	0.604156	9.46045e-06
2461.47	0.605347	1.55945e-05
2461.95	-0.000363159	0.0028833
2462.41	0.604767	5.21851e-06
2462.91	0.604095	1.9165e-05
2463.41	0.603699	0.0165436
2463.85	0.604065	9.42993e-06
2464.35	0.605194	5.18799e-06
2464.85	0.604156	0.000301208
2465.31	-0.499237	-0.0185059
2465.79	0.605103	5.79834e-06
2466.29	0.604767	5.11169e-05
2466.75	-0.499512	-0.0126068
2467.23	0.605194	1.95313e-06
2467.73	0.604431	3.19519e-05
2468.21	0.000680542	0.0053952
2468.67	0.605408	9.46045e-07
2469.17	0.604797	1.63574e-05
2469.65	0.000878906	0.00287842
2470.11	0.605042	2.19727e-06
2470.61	0.604279	1.74866e-05
2471.11	0.603271	0.0165588
2471.55	0.604218	7.38525e-06
2472.05	0.605225	6.83594e-06
2472.55	0.605469	0.000298828
2473.01	-0.497894	-0.018512
2473.49	0.60437	9.82666e-06
2473.99	0.60434	5.53894e-05
2474.45	-0.499451	-0.012616
2474.93	0.605286	1.92261e-06
2475.43	0.604004	3.48511e-05
2475.91	-0.000482178	0.00540009
2476.37	0.604919	3.14331e-06
2476.87	0.604248	2.31018e-05
2477.35	-0.000375366	0.00288544
2477.81	0.605255	1.06812e-06
2478.31	0.605255	9.91821e-06
2478.81	0.604187	0.0165649
2479.25	0.604309	7.1106e-06
2479.75	0.60434	1.27563e-05
2480.25	0.604095	0.000315125
2480.71	-0.498688	-0.0185181
2481.19	0.604797	8.72803e-06
2481.69	0.605255	4.69971e-05
2482.15	-0.499207	-0.0126404
2482.63	0.604645	7.14111e-06
2483.13	0.604095	3.26538e-05
2483.61	0.00017395	0.0053894
2484.07	0.604126	9.06372e-06
2484.57	0.60437	2.05688e-05
2485.05	-1.2207e-05	0.00288239
2485.51	0.604004	9.94873e-06
2486.01	0.604126	1.87378e-05
2486.51	0.604523	0.016568
2486.95	0.605225	-8.54492e-07
2487.45	0.604279	1.39771e-05
2487.95	0.604095	0.000321411
2488.41	-0.498383	-0.0185181
2488.89	0.604279	1.15356e-05
2489.39	0.605316	4.69971e-05
2489.85	-0.499512	-0.0126434
2490.33	0.605316	1.92261e-06
2490.83	0.604279	3.24402e-05
2491.31	-4.88281e-05	0.00538086
2491.77	0.604614	4.05884e-06
2492.27	0.604065	2.35596e-05
2492.75	0.000543213	0.00287445
2493.21	0.60437	8.72803e-06
2493.71	0.604095	1.83105e-05
2494.21	0.604492	0.0165741
2494.65	0.605316	4.57764e-07
2495.15	0.604919	9.79614e-06
2495.65	0.605347	0.000322632
2496.11	-0.498352	-0.0185211
2496.59	0.604065	1.19629e-05
2497.09	0.604004	5.48401e-05
2497.55	-0.499176	-0.0126526
2498.03	0.603912	1.08337e-05
2498.53	0.604706	2.93884e-05
2499.01	-0.000250244	0.00537109
2499.47	0.604767	5.27954e-06
2499.97	0.604279	2.25525e-05
2500.45	-0.000427246	0.00287628
2500.91	0.605255	1.34277e-06
2501.41	0.604431	1.4801e-05
2501.91	0.604462	0.0165833
2502.35	0.604095	8.54492e-06
2502.85	0.604309	1.07422e-05
2503.35	0.605499	0.000332153
2503.81	-0.499268	-0.0185364
2504.29	0.605255	6.43921e-06
2504.79	0.604187	5.52979e-05
2505.25	-0.499573	-0.0126678
2505.73	0.604584	7.59888e-06
2506.23	0.605133	2.4231e-05
2506.71	-3.05176e-05	0.00536285
2507.17	0.604401	6.01196e-06
2507.67	0.604034	2.28882e-05
2508.15	0.000418091	0.00286499
2508.61	0.604889	2.96021e-06
2509.11	0.604767	1.09558e-05
2509.61	0.603455	0.0165924
2510.05	0.604462	4.88281e-06
2510.55	0.60498	8.78906e-06
2511.05	0.604431	0.000348145
2511.51	-0.499115	-0.0185333
2511.99	0.604034	1.33667e-05
2512.49	0.60437	5.2124e-05
2512.95	-0.499481	-0.0126831
2513.43	0.605042	4.63867e-06
2513.93	0.605438	2.36206e-05
2514.41	-0.000537109	0.00535583
2514.87	0.605255	2.10571e-06
2515.37	0.605377	1.47705e-05
2515.85	-0.000405884	0.0028714
2516.31	0.605164	9.46045e-07
2516.81	0.605072	1.15051e-05
2517.31	0.603241	0.0166046
2517.75	0.605042	2.10571e-06
2518.25	0.604004	1.57471e-05
2518.75	0.60498	0.000353516
2519.21	-0.499023	-0.0185364
2519.69	0.605347	4.57764e-06
2520.19	0.605438	4.65088e-05
2520.65	-0.498413	-0.0126953
2521.13	0.605133	5.09644e-06
2521.63	0.604492	2.96936e-05
2522.11	0.000692749	0.0053421
2522.57	0.605377	1.15967e-06
2523.07	0.605286	1.51367e-05
2523.55	0.000875854	0.00286316
2524.01	0.604004	8.75854e-06
2524.51	0.604401	1.64795e-05
2525.01	0.604523	0.0166016
2525.45	0.605255	9.15527e-07
2525.95	0.604126	1.51062e-05
2526.45	0.604858	0.00036145
2526.91	-0.498779	-0.0185394
2527.39	0.604065	1.37634e-05
2527.89	0.604065	5.54199e-05
2528.35	-0.499481	-0.0127045
2528.83	0.605347	3.63159e-06
2529.33	0.604401	3.09448e-05
2529.81	-0.000393677	0.00534058
2530.27	0.605347	1.28174e-06
2530.77	0.604889	1.82495e-05
2531.25	-0.000350952	0.00286896
2531.71	0.604523	3.87573e-06
2532.21	0.605164	1.05286e-05
2532.71	0.60434	0.0166107
2533.15	0.604675	7.32422e-07
2533.65	0.604065	1.54724e-05
2534.15	0.605042	0.000369751
2534.61	-0.497955	-0.0185547
2535.09	0.605133	5.92041e-06
2535.59	0.604034	5.66406e-05
2536.05	-0.499481	-0.0127136
2536.53	0.604218	1.15051e-05
2537.03	0.605316	2.35291e-05
2537.51	0.000778198	0.00532135
2537.97	0.604736	3.44849e-06
2538.47	0.604553	2.02637e-05
2538.95	0.00057373	0.0028537
2539.41	0.604156	8.5144e-06
2539.91	0.604462	1.62048e-05
2540.41	0.603485	0.0166199
2540.85	0.604004	8.57544e-06
2541.35	0.604218	1.59302e-05
2541.85	0.604462	0.000387024
2542.31	-0.498627	-0.0185516
2542.79	0.604919	9.552e-06
2543.29	0.604523	5.45349e-05
2543.75	-0.498779	-0.0127258
2544.23	0.604187	1.08948e-05
2544.73	0.605316	2.45667e-05
2545.21	0.000793457	0.00531219
2545.67	0.60498	4.82178e-06
2546.17	0.604492	2.09351e-05
2546.65	-4.57764e-05	0.00285309
2547.11	0.604248	8.36182e-06
2547.61	0.605408	8.30078e-06
2548.11	0.604095	0.0166199
2548.55	0.60434	6.56128e-06
2549.05	0.605408	5.82886e-06
2549.55	0.604675	0.000394196
2550.01	-0.499237	-0.0185547
2550.49	0.604492	1.10779e-05
2550.99	0.604065	5.67017e-05
2551.45	-0.498688	-0.0127502
2551.93	0.604309	9.49097e-06
2552.43	0.604462	2.78625e-05
2552.91	0.000860596	0.00530609
2553.37	0.604065	1.04675e-05
2553.87	0.60495	1.66626e-05
2554.35	9.46045e-05	0.00285431
2554.81	0.604706	4.60815e-06
2555.31	0.604095	1.77612e-05
2555.81	0.603912	0.0166382
2556.25	0.605347	-6.71387e-07
2556.75	0.605377	6.92749e-06
2557.25	0.604187	0.000406464
2557.71	-0.498077	-0.0185608
2558.19	0.605225	5.85937e-06
2558.69	0.605286	4.93469e-05
2559.15	-0.498779	-0.0127563
2559.63	0.604034	1.10474e-05
2560.13	0.605286	2.48108e-05
2560.61	0.000100708	0.00530762
2561.07	0.604004	1.08948e-05
2561.57	0.604706	1.95007e-05
2562.05	-3.05176e-06	0.00285522
2562.51	0.605347	1.40381e-06
2563.01	0.604034	1.85242e-05
2563.51	0.60318	0.0166443
2563.95	0.604431	7.72095e-06
2564.45	0.604431	1.25732e-05
2564.95	0.604095	0.000418365
2565.41	-0.49826	-0.0185791
2565.89	0.604187	1.171875E-05
2566.39	0.605255	4.8645e-05
2566.85	-0.499359	-0.0127655
2567.33	0.605194	2.96021e-06
2567.83	0.605103	2.61841e-05
2568.31	0.000686646	0.00529816
2568.77	0.60434	6.95801e-06
2569.27	0.604553	2.09656e-05
2569.75	0.000369263	0.00285187
2570.21	0.605499	1.49536e-06
2570.71	0.604004	1.78528e-05
2571.21	0.603241	0.0166565
2571.65	0.604645	5.43213e-06
2572.15	0.605286	5.95093e-06
2572.65	0.605347	0.000423431
2573.11	-0.498962	-0.0185944
2573.59	0.604126	1.24207e-05
2574.09	0.605377	4.92859e-05
2574.55	-0.498169	-0.0127869
2575.03	0.604095	1.26343e-05
2575.53	0.605347	2.54211e-05
2576.01	-0.000189209	0.0053006
2576.47	0.604126	9.42993e-06
2576.97	0.60498	1.69678e-05
2577.45	0.000357056	0.00285034
2577.91	0.604248	8.57544e-06
2578.41	0.604614	1.32751e-05
2578.91	0.603821	0.0166534
2579.35	0.605194	6.71387e-07
2579.85	0.604797	7.17163e-06
2580.35	0.60437	0.000434601
2580.81	-0.499268	-0.0185913
2581.29	0.60498	7.38525e-06
2581.79	0.604279	5.67627e-05
2582.25	-0.499573	-0.0127869
2582.73	0.604004	1.10779e-05
2583.23	0.604187	3.24707e-05
2583.71	0.000701904	0.00528717
2584.17	0.605255	1.64795e-06
2584.67	0.604095	2.5116e-05
2585.15	0.000683594	0.00285309
2585.61	0.605103	2.2583e-06
2586.11	0.605347	9.73511e-06
2586.61	0.604218	0.0166626
2587.05	0.605316	2.13623e-07
2587.55	0.604828	1.08032e-05
2588.05	0.605347	0.000435608
2588.51	-0.499268	-0.0185822
2588.99	0.604858	8.17871e-06
2589.49	0.605286	4.81873e-05
2589.95	-0.499542	-0.0127991
2590.43	0.604889	4.11987e-06
2590.93	0.604736	2.73743e-05
2591.41	-4.57764e-05	0.00528137
2591.87	0.604736	5.18799e-06
2592.37	0.604279	2.27966e-05
2592.85	-4.27246e-05	0.00285004
2593.31	0.604095	9.61304e-06
2593.81	0.605286	1.01013e-05
2594.31	0.604004	0.0166809
2594.75	0.605316	8.23975e-07
2595.25	0.604279	1.43738e-05
2595.75	0.604889	0.000445679
2596.21	-0.498138	-0.0185974
2596.69	0.60434	1.12915e-05
2597.19	0.604004	5.80139e-05
2597.65	-0.49884	-0.0128143
2598.13	0.604218	1.04065e-05
2598.63	0.604126	3.33862e-05
2599.11	0.00039978	0.00527222
2599.57	0.604523	6.62231e-06
2600.07	0.605011	1.88293e-05
2600.55	0.000860596	0.00284363
2601.01	0.605316	-9.15527e-08
2601.51	0.605072	1.1322e-05
2602.01	0.603333	0.016684
2602.45	0.604706	2.41089e-06
2602.95	0.605225	7.23267e-06
2603.45	0.604706	0.000461548
2603.91	-0.49881	-0.0185913
2604.39	0.605316	3.84521e-06
2604.89	0.604462	5.41687e-05
2605.35	-0.499023	-0.0128265
2605.83	0.604034	1.0437e-05
2606.33	0.605347	2.49329e-05
2606.81	-0.000473022	0.00527374
2607.27	0.604614	7.65991e-06
2607.77	0.605316	1.64795e-05
2608.25	-4.27246e-05	0.00284943
2608.71	0.603973	9.39941e-06
2609.21	0.604279	1.72424e-05
2609.71	0.603363	0.0166931
2610.15	0.604065	8.45337e-06
2610.65	0.604279	1.3916e-05
2611.15	0.605255	0.000472656
2611.61	-0.497833	-0.0186066
2612.09	0.605011	8.75854e-06
2612.59	0.60437	5.54504e-05
2613.05	-0.498657	-0.0128387
2613.53	0.604279	1.03149e-05
2614.03	0.60437	3.16162e-05
2614.51	7.32422e-05	0.0052597
2614.97	0.605286	6.10352e-07
2615.47	0.605011	1.77002e-05
2615.95	0.000454712	0.00284637
2616.41	0.604065	8.69751e-06
2616.91	0.60437	1.40076e-05
2617.41	0.604034	0.016684
2617.85	0.605225	-3.96729e-07
2618.35	0.605438	5.88989e-06
2618.85	0.605225	0.000481567
2619.31	-0.498016	-0.0186005
2619.79	0.604584	8.30078e-06
2620.29	0.605103	4.98657e-05
2620.75	-0.498291	-0.0128448
2621.23	0.605164	4.57764e-06
2621.73	0.604431	3.22571e-05
2622.21	0.000845337	0.00525635
2622.67	0.604523	6.86646e-06
2623.17	0.604401	1.94092e-05
2623.65	0.000842285	0.00283875
2624.11	0.60495	2.44141e-06
2624.61	0.604584	1.63269e-05
2625.11	0.603241	0.0166962
2625.55	0.604126	7.78198e-06
2626.05	0.604553	1.2146e-05
2626.55	0.605225	0.000487061
2627.01	-0.499084	-0.0185944
2627.49	0.604034	1.30005e-05
2627.99	0.605408	4.85535e-05
2628.45	-0.499268	-0.0128448
2628.93	0.604462	9.33838e-06
2629.43	0.605042	2.66418e-05
2629.91	-0.000491333	0.00525513
2630.37	0.604706	6.16455e-06
2630.87	0.604034	2.32849e-05
2631.35	-5.49316e-05	0.00284271
2631.81	0.604401	7.08008e-06
2632.31	0.604004	1.93787e-05
2632.81	0.603882	0.0167023
2633.25	0.604065	8.30078e-06
2633.75	0.604065	1.53503e-05
2634.25	0.604156	0.00050354
2634.71	-0.499176	-0.0185974
2635.19	0.604065	1.32141e-05
2635.69	0.604034	5.83801e-05
2636.15	-0.499359	-0.0128387
2636.63	0.604065	1.1261e-05
2637.13	0.604065	3.41492e-05
2637.61	0.000396729	0.00524475
2638.07	0.604248	9.3689e-06
2638.57	0.604065	2.36816e-05
2639.05	-0.000219727	0.00284515
2639.51	0.60434	5.49316e-06
2640.01	0.605255	9.64355e-06
2640.51	0.604004	0.0167206
2640.95	0.604614	2.44141e-06
2641.45	0.605042	9.94873e-06
2641.95	0.605316	0.000506287
2642.41	-0.498718	-0.0186005
2642.89	0.605103	7.1106e-06
2643.39	0.605164	5.04456e-05
2643.85	-0.498199	-0.0128662
2644.33	0.603973	1.23901e-05
2644.83	0.60434	3.16467e-05
2645.31	-0.000375366	0.00524384
2645.77	0.605377	4.27246e-07
2646.27	0.604034	2.41394e-05
2646.75	0.000189209	0.00284119
2647.21	0.604279	8.17871e-06
2647.71	0.60498	1.15051e-05
2648.21	0.604492	0.0167145
2648.65	0.604034	8.63647e-06
2649.15	0.60434	1.474e-05
2649.65	0.604614	0.000515747
2650.11	-0.499115	-0.0185974
2650.59	0.604004	1.40076e-05
2651.09	0.605347	4.94995e-05
2651.55	-0.499573	-0.0128662
2652.03	0.604309	1.02234e-05
2652.53	0.604828	2.96631e-05
2653.01	0.000619507	0.00523071
2653.47	0.604309	9.67407e-06
2653.97	0.604675	1.86157e-05
2654.45	0.000820923	0.00283203
2654.91	0.604309	7.65991e-06
2655.41	0.605438	9.552e-06
2655.91	0.60318	0.0167297
2656.35	0.605377	1.83105e-07
2656.85	0.604584	1.08948e-05
2657.35	0.605225	0.000524292
2657.81	-0.499176	-0.0185974
2658.29	0.604736	8.36182e-06
2658.79	0.604553	5.54199e-05
2659.25	-0.498566	-0.0128876
2659.73	0.604401	1.01929e-05
2660.23	0.605164	2.45667e-05
2660.71	-0.000488281	0.00522827
2661.17	0.604767	6.46973e-06
2661.67	0.604462	2.19421e-05
2662.15	0.00072937	0.00283173
2662.61	0.604095	9.18579e-06
2663.11	0.605316	1.0498e-05
2663.61	0.604095	0.0167358
2664.05	0.605286	8.8501e-07
2664.55	0.605377	5.7373e-06
2665.05	0.604797	0.000541687
2665.51	-0.498169	-0.0186157
2665.99	0.605377	4.36401e-06
2666.49	0.604309	5.76782e-05
2666.95	-0.499542	-0.0128876
2667.43	0.604218	1.08948e-05
2667.93	0.604828	2.87476e-05
2668.41	0.00043335	0.00522583
2668.87	0.604065	1.05591e-05
2669.37	0.605194	1.62964e-05
2669.85	0.000204468	0.00283722
2670.31	0.604889	3.17383e-06
2670.81	0.605194	1.15662e-05
2671.31	0.603943	0.016745
2671.75	0.605377	2.44141e-07
2672.25	0.604279	1.41602e-05
2672.75	0.604065	0.000558167
2673.21	-0.499207	-0.0186188
2673.69	0.605194	4.15039e-06
2674.19	0.604187	5.86548e-05
2674.65	-0.499359	-0.0129089
2675.13	0.60498	5.34058e-06
2675.63	0.604431	3.28064e-05
2676.11	0.000720215	0.0052121
2676.57	0.604065	1.15967e-05
2677.07	0.604095	2.44141e-05
2677.55	0.000701904	0.00282806
2678.01	0.604065	1.08643e-05
2678.51	0.604767	1.44653e-05
2679.01	0.604248	0.016748
2679.45	0.604065	9.30786e-06
2679.95	0.604309	1.29395e-05
2680.45	0.60498	0.000567627
2680.91	-0.498718	-0.018634
2681.39	0.605042	3.96729e-06
2681.89	0.604065	5.96008e-05
2682.35	-0.499603	-0.0129089
2682.83	0.605133	2.04468e-06
2683.33	0.604187	3.3844e-05
2683.81	0.000683594	0.00520416
2684.27	0.604706	5.46265e-06
2684.77	0.604736	1.87378e-05
2685.25	0.000762939	0.00282684
2685.71	0.60498	3.9978e-06
2686.21	0.604797	1.52588e-05
2686.71	0.603333	0.0167542
2687.15	0.604187	8.54492e-06
2687.65	0.605408	6.2561e-06
2688.15	0.605103	0.000582275
2688.61	-0.497894	-0.018631
2689.09	0.604034	1.36414e-05
2689.59	0.604889	5.27954e-05
2690.05	-0.498871	-0.0129211
2690.53	0.60495	6.40869e-06
2691.03	0.605469	2.53601e-05
2691.51	-0.000497437	0.00520447
2691.97	0.604095	1.08032e-05
2692.47	0.60437	2.47803e-05
2692.95	0.000286865	0.00283081
2693.41	0.604065	9.94873e-06
2693.91	0.604706	1.46179e-05
2694.41	0.603485	0.0167633
2694.85	0.605286	-1.2207e-07
2695.35	0.60434	1.3092e-05
2695.85	0.605377	0.000594177
2696.31	-0.499146	-0.0186279
2696.79	0.604431	9.39941e-06
2697.29	0.604736	5.15747e-05
2697.75	-0.499512	-0.0129272
2698.23	0.605316	2.04468e-06
2698.73	0.604034	3.51868e-05
2699.21	-0.000360107	0.00519775
2699.67	0.605255	1.7395e-06
2700.17	0.604034	2.49023e-05
2700.65	-4.57764e-05	0.00282837
2701.11	0.605316	6.40869e-07
2701.61	0.605164	1.03455e-05
2702.11	0.603943	0.0167847
2702.55	0.604431	7.75146e-06
2703.05	0.604156	1.4679e-05
2703.55	0.604553	0.000612488
2704.01	-0.49826	-0.0186432
2704.49	0.604218	1.25122e-05
2704.99	0.605286	5.08118e-05
2705.45	-0.499054	-0.0129333
2705.93	0.604706	7.04956e-06
2706.43	0.604218	3.35083e-05
2706.91	-0.00027771	0.00518524
2707.37	0.604431	4.85229e-06
2707.87	0.605103	1.77002e-05
2708.35	0.000411987	0.00282166
2708.81	0.604431	8.91113e-06
2709.31	0.605164	1.11389e-05
2709.81	0.604401	0.0167664
2710.25	0.604034	9.91821e-06
2710.75	0.604706	1.15967e-05
2711.25	0.604156	0.000634766
2711.71	-0.499084	-0.0186401
2712.19	0.604767	9.61304e-06
2712.69	0.604156	5.75562e-05
2713.15	-0.499176	-0.0129608
2713.63	0.604828	3.63159e-06
2714.13	0.604645	2.96631e-05
2714.61	0.000653076	0.00517548
2715.07	0.605255	1.28174e-06
2715.57	0.604095	2.38342e-05
2716.05	0.000543213	0.00281525
2716.51	0.604797	4.48608e-06
2717.01	0.605286	1.19629e-05
2717.51	0.60379	0.0167755
2717.95	0.604034	8.57544e-06
2718.45	0.605011	9.97925e-06
2718.95	0.604858	0.000646667
2719.41	-0.498993	-0.018634
2719.89	0.605072	5.98145e-06
2720.39	0.604553	5.68848e-05
2720.85	-0.498688	-0.01297
2721.33	0.604645	7.72095e-06
2721.83	0.603973	3.49731e-05
2722.31	0.000808716	0.00516998
2722.77	0.605011	2.7771e-06
2723.27	0.604523	2.15454e-05
2723.75	0.000842285	0.00281281
2724.21	0.604248	7.62939e-06
2724.71	0.604767	1.41296e-05
2725.21	0.604584	0.0167877
2725.65	0.605255	6.40869e-07
2726.15	0.604614	1.15662e-05
2726.65	0.604034	0.000669556
2727.11	-0.498657	-0.0186493
2727.59	0.604645	9.00269e-06
2728.09	0.604919	5.31006e-05
2728.55	-0.499023	-0.0129791
2729.03	0.604309	9.70459e-06
2729.53	0.604614	3.08838e-05
2730.01	-9.46045e-05	0.00516235
2730.47	0.605011	3.20435e-06
2730.97	0.60434	2.28577e-05
2731.45	0.000372314	0.00281342
2731.91	0.604889	4.27246e-06
2732.41	0.604065	1.87988e-05
2732.91	0.604187	0.0167877
2733.35	0.604095	5.52368e-06
2733.85	0.604462	1.297e-05
2734.35	0.605225	0.000677185
2734.81	-0.498657	-0.0186584
2735.29	0.604034	1.34888e-05
2735.79	0.604584	5.70374e-05
2736.25	-0.498322	-0.0129944
2736.73	0.605164	2.59399e-06
2737.23	0.605408	2.56042e-05
2737.71	0.000482178	0.00515106
2738.17	0.604431	4.82178e-06
2738.67	0.60495	1.72729e-05
2739.15	0.000378418	0.00280884
2739.61	0.604492	5.52368e-06
2740.11	0.605011	1.32446e-05
2740.61	0.603119	0.016806
2741.05	0.60495	2.41089e-06
2741.55	0.605408	8.23975e-06
2742.05	0.604095	0.000708313
2742.51	-0.497894	-0.0186523
2742.99	0.605194	4.27246e-06
2743.49	0.604706	5.4718e-05
2743.95	-0.498779	-0.0130005
2744.43	0.604828	6.92749e-06
2744.93	0.605133	2.70691e-05
2745.41	-0.000354004	0.00514771
2745.87	0.604797	3.9978e-06
2746.37	0.605255	1.80054e-05
2746.85	0.000796509	0.00280212
2747.31	0.60434	7.87354e-06
2747.81	0.604095	1.6571e-05
2748.31	0.603271	0.0168152
2748.75	0.604248	7.69043e-06
2749.25	0.604034	1.48926e-05
2749.75	0.604889	0.00072052
2750.21	-0.499146	-0.0186554
2750.69	0.605286	4.88281e-06
2751.19	0.603973	6.08215e-05
2751.65	-0.499573	-0.0130035
2752.13	0.604004	1.24817e-05
2752.63	0.604218	3.0426e-05
2753.11	0.000814819	0.00513824
2753.57	0.605347	2.0752e-06
2754.07	0.605133	1.6571e-05
2754.55	-0.000393677	0.00280792
2755.01	0.604034	9.91821e-06
2755.51	0.604462	1.63574e-05
2756.01	0.604492	0.016803
2756.45	0.604401	5.95093e-06
2756.95	0.605225	7.59888e-06
2757.45	0.605194	0.000735168
2757.91	-0.498993	-0.0186676
2758.39	0.604462	1.02234e-05
2758.89	0.605255	5.14221e-05
2759.35	-0.49939	-0.0130157
2759.83	0.605164	3.9978e-06
2760.33	0.604218	3.35693e-05
2760.81	0.00027771	0.00513153
2761.27	0.605316	2.44141e-06
2761.77	0.604095	2.42004e-05
2762.25	-0.000247192	0.00280731
2762.71	0.604156	6.80542e-06
2763.21	0.605347	1.07117e-05
2763.71	0.603577	0.0168091
2764.15	0.605408	-6.10352e-07
2764.65	0.604309	1.42212e-05
2765.15	0.604431	0.000767212
2765.61	-0.499298	-0.0186676
2766.09	0.604614	1.01318e-05
2766.59	0.604065	6.00891e-05
2767.05	-0.498169	-0.013031
2767.53	0.60498	4.08936e-06
2768.03	0.604858	2.85645e-05
2768.51	0.00078125	0.00511566
2768.97	0.605438	1.64795e-06
2769.47	0.605164	1.64185e-05
2769.95	0.00039978	0.0027951
2770.41	0.604614	4.85229e-06
2770.91	0.604584	1.64795e-05
2771.41	0.604095	0.0168152
2771.85	0.604156	9.09424e-06
2772.35	0.604401	1.54419e-05
2772.85	0.604309	0.000793762
2773.31	-0.499237	-0.0186707
2773.79	0.605164	5.21851e-06
2774.29	0.605286	5.18494e-05
2774.75	-0.498352	-0.0130493
2775.23	0.604675	6.95801e-06
2775.73	0.604767	2.95715e-05
2776.21	0.000302124	0.00510651
2776.67	0.605286	2.7771e-06
2777.17	0.604584	1.92261e-05
2777.65	-0.0003479	0.00279388
2778.11	0.605225	1.58691e-06
2778.61	0.604706	1.38855e-05
2779.11	0.60437	0.0168243
2779.55	0.605072	2.28882e-06
2780.05	0.605042	7.96509e-06
2780.55	0.604156	0.000823669
2781.01	-0.498413	-0.0186798
2781.49	0.604095	1.36108e-05
2781.99	0.603882	6.07605e-05
2782.45	-0.499542	-0.0130524
2782.93	0.604095	1.20239e-05
2783.43	0.604034	3.52173e-05
2783.91	-0.000457764	0.00510559
2784.37	0.604645	7.44629e-06
2784.87	0.604126	2.4353e-05
2785.35	0.000271606	0.00278625
2785.81	0.604462	5.58472e-06
2786.31	0.605316	9.79614e-06
2786.81	0.60437	0.0168427
2787.25	0.605316	1.86157e-06
2787.75	0.605347	6.95801e-06
2788.25	0.604218	0.00085083
2788.71	-0.498108	-0.0186981
2789.19	0.604034	1.32446e-05
2789.69	0.604034	6.20728e-05
2790.15	-0.498749	-0.0130615
2790.63	0.605225	3.54004e-06
2791.13	0.604004	3.50342e-05
2791.61	0.000805664	0.00509125
2792.07	0.604065	9.765625E-06
2792.57	0.604279	2.24609e-05
2793.05	-0.000384521	0.00279175
2793.51	0.60498	5.52368e-06
2794.01	0.604919	1.2085e-05
2794.51	0.603638	0.0168427
2794.95	0.605286	1.2207e-07
2795.45	0.605011	9.73511e-06
2795.95	0.605225	0.000856628
2796.41	-0.498108	-0.018689
2796.89	0.603973	1.32141e-05
2797.39	0.604462	5.96924e-05
2797.85	-0.498596	-0.0130737
2798.33	0.604767	7.75146e-06
2798.83	0.604034	3.52478e-05
2799.31	0.00010376	0.00508728
2799.77	0.604004	1.0498e-05
2800.27	0.604095	2.55127e-05
2800.75	0.000424194	0.00278717
2801.21	0.604065	9.765625E-06
2801.71	0.605286	9.33838e-06
2802.21	0.60318	0.0168518
2802.65	0.604248	7.78198e-06
2803.15	0.604858	1.01624e-05
2803.65	0.604889	0.000874634
2804.11	-0.49881	-0.0187012
2804.59	0.604553	9.39941e-06
2805.09	0.604004	6.20728e-05
2805.55	-0.499512	-0.0130707
2806.03	0.60437	1.00403e-05
2806.53	0.605164	2.63062e-05
2807.01	3.05176e-06	0.00508942
2807.47	0.605194	2.86865e-06
2807.97	0.604919	1.86157e-05
2808.45	0.000839233	0.00278137
2808.91	0.605316	1.31226e-06
2809.41	0.604065	1.92566e-05
2809.91	0.603455	0.0168549
2810.35	0.604736	5.40161e-06
2810.85	0.604584	1.10474e-05
2811.35	0.604309	0.000890198
2811.81	-0.49881	-0.0187073
2812.29	0.604065	1.43433e-05
2812.79	0.604065	6.17371e-05
2813.25	-0.498413	-0.013092
2813.73	0.605042	5.61523e-06
2814.23	0.604919	3.03345e-05
2814.71	-0.00039978	0.00508453
2815.17	0.604126	9.46045e-06
2815.67	0.604095	2.57263e-05
2816.15	-0.000283813	0.00278564
2816.61	0.604034	9.8877e-06
2817.11	0.604797	1.40991e-05
2817.61	0.60379	0.0168671
2818.05	0.60434	7.84302e-06
2818.55	0.604736	1.0437e-05
2819.05	0.605438	0.000914001
2819.51	-0.497986	-0.0187164
2819.99	0.605316	4.45557e-06
2820.49	0.60437	6.06995e-05
2820.95	-0.499481	-0.0130951
2821.43	0.604126	1.2146e-05
2821.93	0.604034	3.53088e-05
2822.41	0.000341797	0.0050708
2822.87	0.604309	8.39233e-06
2823.37	0.605103	1.7334e-05
2823.85	0.000524902	0.00277802
2824.31	0.604065	1.00708e-05
2824.81	0.605408	1.03455e-05
2825.31	0.604095	0.0168579
2825.75	0.605072	1.95313e-06
2826.25	0.605377	5.98145e-06
2826.75	0.604218	0.000962219
2827.21	-0.498627	-0.0187164
2827.69	0.604248	1.3092e-05
2828.19	0.604034	6.14319e-05
2828.65	-0.49823	-0.0131287
2829.13	0.604645	6.86646e-06
2829.63	0.604156	3.26233e-05
2830.11	-0.000424194	0.005065
2830.57	0.604065	9.49097e-06
2831.07	0.605347	1.7334e-05
2831.55	-0.000332642	0.00278107
2832.01	0.60434	7.04956e-06
2832.51	0.604523	1.6449e-05
2833.01	0.603577	0.0168762
2833.45	0.604431	6.04248e-06
2833.95	0.604309	1.34888e-05
2834.45	0.604095	0.000991821
2834.91	-0.49823	-0.0187317
2835.39	0.604095	1.2207e-05
2835.89	0.604736	5.71594e-05
2836.35	-0.498596	-0.0131317
2836.83	0.604492	7.04956e-06
2837.33	0.604462	3.26233e-05
2837.81	0.000430298	0.0050528
2838.27	0.60498	4.79126e-06
2838.77	0.604858	1.9043e-05
2839.25	-2.13623e-05	0.00277649
2839.71	0.605133	7.93457e-07
2840.21	0.604614	1.63574e-05
2840.71	0.604462	0.0168671
2841.15	0.603943	9.70459e-06
2841.65	0.605225	8.54492e-06
2842.15	0.604309	0.00102325
2842.61	-0.498688	-0.0187378
2843.09	0.605194	6.01196e-06
2843.59	0.605164	5.41992e-05
2844.05	-0.499451	-0.0131409
2844.53	0.604645	9.24683e-06
2845.03	0.604553	3.21655e-05
2845.51	0.00062561	0.00504333
2845.97	0.605011	4.85229e-06
2846.47	0.604614	2.21558e-05
2846.95	3.35693e-05	0.00276855
2847.41	0.604279	7.41577e-06
2847.91	0.605347	1.00708e-05
2848.41	0.60434	0.0168762
2848.85	0.605164	1.61743e-06
2849.35	0.604767	8.30078e-06
2849.85	0.604767	0.00105377
2850.31	-0.499054	-0.0187408
2850.79	0.604584	6.86646e-06
2851.29	0.605164	5.36804e-05
2851.75	-0.498779	-0.0131592
2852.23	0.605133	3.84521e-06
2852.73	0.604279	3.40576e-05
2853.21	6.40869e-05	0.00504181
2853.67	0.60437	7.93457e-06
2854.17	0.605194	1.88599e-05
2854.65	0.000973511	0.00276306
2855.11	0.604095	8.78906e-06
2855.61	0.604034	1.89819e-05
2856.11	0.603271	0.0168884
2856.55	0.605042	7.32422e-07
2857.05	0.605347	7.23267e-06
2857.55	0.604523	0.00109558
2858.01	-0.499207	-0.0187469
2858.49	0.605011	6.50024e-06
2858.99	0.603973	6.29578e-05
2859.45	-0.498962	-0.0131561
2859.93	0.605316	3.50952e-06
2860.43	0.605072	2.81372e-05
2860.91	5.18799e-05	0.00503174
2861.37	0.60498	3.66211e-06
2861.87	0.604431	2.16675e-05
2862.35	0.000167847	0.00276367
2862.81	0.605103	3.05176e-06
2863.31	0.605164	1.09253e-05
2863.81	0.604523	0.0168854
2864.25	0.605469	-1.43433e-06
2864.75	0.604187	1.48621e-05
2865.25	0.604156	0.00114044
2865.71	-0.498901	-0.0187439
2866.19	0.604095	1.4801e-05
2866.69	0.604797	5.68237e-05
2867.15	-0.498718	-0.0131714
2867.63	0.605286	2.99072e-06
2868.13	0.604126	3.5553e-05
2868.61	0.000238037	0.00502075
2869.07	0.604462	5.58472e-06
2869.57	0.60495	1.99585e-05
2870.05	0.000857544	0.00275299
2870.51	0.604706	5.15747e-06
2871.01	0.604431	1.53198e-05
2871.51	0.603699	0.0168884
2871.95	0.605316	-4.57764e-07
2872.45	0.605225	6.98853e-06
2872.95	0.60498	0.00117462
2873.41	-0.497833	-0.0187561
2873.89	0.604248	9.70459e-06
2874.39	0.604309	6.18286e-05
2874.85	-0.498413	-0.0131897
2875.33	0.604279	9.67407e-06
2875.83	0.604095	3.58276e-05
2876.31	-0.000195313	0.00501617
2876.77	0.605316	1.92261e-06
2877.27	0.604065	2.56042e-05
2877.75	0.000128174	0.00276001
2878.21	0.604462	6.68335e-06
2878.71	0.604004	2.09045e-05
2879.21	0.604309	0.0169006
2879.65	0.604706	4.69971e-06
2880.15	0.604431	1.38855e-05
2880.65	0.605438	0.00121826
2881.11	-0.498871	-0.0187744
2881.59	0.604431	1.23291e-05
2882.09	0.605347	5.30701e-05
2882.55	-0.499115	-0.013208
2883.03	0.604218	1.14746e-05
2883.53	0.604065	3.63464e-05
2884.01	-0.000210571	0.00501251
2884.47	0.604065	1.12915e-05
2884.97	0.604126	2.5177e-05
2885.45	0.000827026	0.00274841
2885.91	0.604004	9.52148e-06
2886.41	0.604309	1.59607e-05
2886.91	0.604523	0.0169098
2887.35	0.605011	9.46045e-07
2887.85	0.605194	7.93457e-06
2888.35	0.604553	0.00124908
2888.81	-0.498077	-0.0187805
2889.29	0.605011	6.83594e-06
2889.79	0.604523	5.88379e-05
2890.25	-0.498322	-0.0132172
2890.73	0.604095	1.19629e-05
2891.23	0.604828	3.02734e-05
2891.71	0.000476074	0.00499878
2892.17	0.605499	2.86865e-06
2892.67	0.604889	1.90125e-05
2893.15	0.000735474	0.00274475
2893.61	0.605042	5.5542e-06
2894.11	0.604034	1.95007e-05
2894.61	0.603302	0.0169128
2895.05	0.604065	8.36182e-06
2895.55	0.605225	7.87354e-06
2896.05	0.604919	0.00128113
2896.51	-0.499298	-0.0187775
2896.99	0.604675	1.10779e-05
2897.49	0.605377	5.37415e-05
2897.95	-0.498169	-0.0132202
2898.43	0.605225	4.15039e-06
2898.93	0.605255	2.65808e-05
2899.41	0.000769043	0.00499237
2899.87	0.604401	8.27026e-06
2900.37	0.605347	1.72119e-05
2900.85	-4.57764e-05	0.00274139
2901.31	0.604858	3.38745e-06
2901.81	0.604614	1.35803e-05
2902.31	0.603271	0.016925
2902.75	0.604126	8.88062e-06
2903.25	0.605042	9.00269e-06
2903.75	0.604919	0.00132172
2904.21	-0.498138	-0.0187866
2904.69	0.605103	7.04956e-06
2905.19	0.604767	5.93262e-05
2905.65	-0.498749	-0.0132294
2906.13	0.605072	5.24902e-06
2906.63	0.604309	3.24097e-05
2907.11	-0.000308228	0.0049939
2907.57	0.604126	1.05896e-05
2908.07	0.605194	1.79138e-05
2908.55	0.000869751	0.0027359
2909.01	0.604095	9.12476e-06
2909.51	0.604767	1.50452e-05
2910.01	0.603271	0.0169281
2910.45	0.604065	8.5144e-06
2910.95	0.604034	1.55334e-05
2911.45	0.605591	0.00136749
2911.91	-0.499146	-0.0187866
2912.39	0.605408	4.5166e-06
2912.89	0.605194	5.50232e-05
2913.35	-0.498383	-0.0132507
2913.83	0.605286	3.02124e-06
2914.33	0.604218	3.41797e-05
2914.81	0.000735474	0.00497345
2915.27	0.605286	3.87573e-06
2915.77	0.605133	1.84937e-05
2916.25	0.000375366	0.00273743
2916.71	0.604309	9.49097e-06
2917.21	0.605164	1.13525e-05
2917.71	0.603394	0.016922
2918.15	0.604462	6.43921e-06
2918.65	0.604553	1.33972e-05
2919.15	0.605438	0.00142273
2919.61	-0.498474	-0.0187958
2920.09	0.604309	9.64355e-06
2920.59	0.604431	6.15234e-05
2921.05	-0.498077	-0.0132507
2921.53	0.604309	8.20923e-06
2922.03	0.60498	2.93884e-05
2922.51	0.000747681	0.0049646
2922.97	0.605255	2.53296e-06
2923.47	0.605255	1.72424e-05
2923.95	-0.000302124	0.00273956
2924.41	0.604279	8.48389e-06
2924.91	0.605225	9.765625E-06
2925.41	0.603577	0.0169403
2925.85	0.604187	8.02612e-06
2926.35	0.605225	8.11768e-06
2926.85	0.604706	0.00148468
2927.31	-0.498505	-0.0187988
2927.79	0.605347	4.76074e-06
2928.29	0.604095	6.29578e-05
2928.75	-0.499023	-0.013269
2929.23	0.604034	1.12915e-05
2929.73	0.604126	3.69568e-05
2930.21	0.000152588	0.00496948
2930.67	0.604614	5.98145e-06
2931.17	0.605286	1.72729e-05
2931.65	0.000704956	0.00272858
2932.11	0.605316	6.71387e-07
2932.61	0.605133	1.15662e-05
2933.11	0.603882	0.0169403
2933.55	0.604797	2.92969e-06
2934.05	0.605316	6.53076e-06
2934.55	0.605499	0.00153534
2935.01	-0.498108	-0.018808
2935.49	0.604706	1.01318e-05
2935.99	0.604614	5.94788e-05
2936.45	-0.498444	-0.0132843
2936.93	0.60437	9.39941e-06
2937.43	0.604065	3.73535e-05
2937.91	-0.000125122	0.00495697
2938.37	0.604065	1.05286e-05
2938.87	0.604095	2.55432e-05
2939.35	-0.000143433	0.00272919
2939.81	0.604736	3.14331e-06
2940.31	0.604095	1.953125E-05
2940.81	0.603333	0.0169525
2941.25	0.604156	8.05664e-06
2941.75	0.604858	9.52148e-06
2942.25	0.60553	0.00158875
2942.71	-0.498077	-0.018811
2943.19	0.604492	1.15051e-05
2943.69	0.604553	5.859375E-05
2944.15	-0.498138	-0.01328125
2944.63	0.605255	3.08228e-06
2945.13	0.604584	3.18604e-05
2945.61	0.000500488	0.00494385
2946.07	0.604279	8.14819e-06
2946.57	0.605133	1.87378e-05
2947.05	-0.000305176	0.00272858
2947.51	0.605286	8.8501e-07
2948.01	0.605469	1.00403e-05
2948.51	0.603973	0.0169373
2948.95	0.604187	9.0332e-06
2949.45	0.604065	1.67236e-05
2949.95	0.605469	0.00166168
2950.41	-0.498505	-0.0188171
2950.89	0.605225	5.0354e-06
2951.39	0.604584	6.08521e-05
2951.85	-0.498962	-0.0132843
2952.33	0.604187	1.12915e-05
2952.83	0.604004	3.67432e-05
2953.31	-0.000323486	0.00494507
2953.77	0.605316	1.46484e-06
2954.27	0.605103	1.93481e-05
2954.75	0.000808716	0.00271454
2955.21	0.605133	2.47192e-06
2955.71	0.605255	1.14136e-05
2956.21	0.603973	0.0169403
2956.65	0.605042	2.04468e-06
2957.15	0.605286	6.80542e-06
2957.65	0.604828	0.00173706
2958.11	-0.49823	-0.0188202
2958.59	0.605316	4.69971e-06
2959.09	0.605164	5.62439e-05
2959.55	-0.499268	-0.0132965
2960.03	0.604309	9.70459e-06
2960.53	0.604065	3.59802e-05
2961.01	0.000454712	0.00493042
2961.47	0.604034	1.08948e-05
2961.97	0.605286	1.75476e-05
2962.45	-0.000137329	0.00272369
2962.91	0.605286	2.04468e-06
2963.41	0.604187	2.00195e-05
2963.91	0.60321	0.0169617
2964.35	0.604614	4.27246e-06
2964.85	0.604584	1.24817e-05
2965.35	0.604309	0.00176514
2965.81	-0.499176	-0.0188171
2966.29	0.604218	1.02234e-05
2966.79	0.605103	5.7373e-05
2967.25	-0.499451	-0.0132996
2967.73	0.605377	3.479e-06
2968.23	0.604065	3.59802e-05
2968.71	0.000769043	0.00492249
2969.17	0.604645	5.98145e-06
2969.67	0.605133	1.94092e-05
2970.15	-0.000350952	0.00272156
2970.61	0.604248	7.72095e-06
2971.11	0.60434	1.5625e-05
2971.61	0.604462	0.0169586
2972.05	0.605347	-4.88281e-07
2972.55	0.604462	1.30615e-05
2973.05	0.605347	0.00177368
2973.51	-0.499207	-0.018808
2973.99	0.605011	7.44629e-06
2974.49	0.605347	5.41382e-05
2974.95	-0.499359	-0.0133057
2975.43	0.604095	1.25427e-05
2975.93	0.605072	2.948e-05
2976.41	0.000213623	0.00492004
2976.87	0.604706	5.18799e-06
2977.37	0.604248	2.48413e-05
2977.85	0.000640869	0.00271484
2978.31	0.604492	6.56128e-06
2978.81	0.605072	1.15356e-05
2979.31	0.604523	0.0169647
2979.75	0.604156	7.26318e-06
2980.25	0.605225	8.20923e-06
2980.75	0.604523	0.00183807
2981.21	-0.498077	-0.018811
2981.69	0.604065	1.41907e-05
2982.19	0.605225	5.5481e-05
2982.65	-0.499084	-0.013324
2983.13	0.604034	1.21765e-05
2983.63	0.604309	3.43628e-05
2984.11	0.0006073	0.00490997
2984.57	0.604126	1.171875E-05
2985.07	0.604187	2.37427e-05
2985.55	0.000848389	0.00270813
2986.01	0.604095	7.59888e-06
2986.51	0.604034	2.03247e-05
2987.01	0.604462	0.0169647
2987.45	0.604675	2.86865e-06
2987.95	0.60437	1.52893e-05
2988.45	0.604279	0.00191986
2988.91	-0.497894	-0.0188171
2989.39	0.605103	4.88281e-06
2989.89	0.605103	5.56946e-05
2990.35	-0.498779	-0.0133392
2990.83	0.604095	1.15051e-05
2991.33	0.604706	3.17993e-05
2991.81	0.000686646	0.00490326
2992.27	0.604431	8.02612e-06
2992.77	0.605377	1.54419e-05
2993.25	0.000857544	0.00271027
2993.71	0.604156	1.00098e-05
2994.21	0.604919	1.20544e-05
2994.71	0.603333	0.0169708
2995.15	0.605225	-5.79834e-07
2995.65	0.604584	1.35498e-05
2996.15	0.604858	0.00199005
2996.61	-0.49884	-0.0188232
2997.09	0.604706	8.14819e-06
2997.59	0.604767	6.08215e-05
2998.05	-0.499054	-0.0133362
2998.53	0.605255	4.02832e-06
2999.03	0.604767	3.2135e-05
2999.51	0.000750732	0.00489532
2999.97	0.604553	7.62939e-06
3000.47	0.604614	2.21863e-05
3000.95	9.76562e-05	0.00270508
3001.41	0.604553	6.43921e-06
3001.91	0.60437	1.74866e-05
3002.41	0.604004	0.0169739
3002.85	0.604095	7.8125e-06
3003.35	0.604675	1.10779e-05
3003.85	0.605072	0.00208282
3004.31	-0.497955	-0.0188354
3004.79	0.605286	5.27954e-06
3005.29	0.604553	6.18591e-05
3005.75	-0.498413	-0.0133575
3006.23	0.605255	3.8147e-06
3006.73	0.605316	2.8717e-05
3007.21	-0.000378418	0.0048938
3007.67	0.605225	4.24194e-06
3008.17	0.605316	1.63574e-05
3008.65	0.000650024	0.00269836
3009.11	0.605255	1.37329e-06
3009.61	0.605194	1.12e-05
3010.11	0.603577	0.01698
3010.55	0.605103	1.70898e-06
3011.05	0.605377	8.17871e-06
3011.55	0.60437	0.00217346
3012.01	-0.498169	-0.0188416
3012.49	0.604095	1.40076e-05
3012.99	0.605042	5.69458e-05
3013.45	-0.498688	-0.0133575
3013.93	0.604034	1.27563e-05
3014.43	0.604614	3.41797e-05
3014.91	-8.8501e-05	0.00488007
3015.37	0.60434	8.94165e-06
3015.87	0.605042	1.68152e-05
3016.35	0.000784302	0.0026947
3016.81	0.604126	8.8501e-06
3017.31	0.604156	2.01111e-05
3017.81	0.603912	0.01698
3018.25	0.604095	9.24683e-06
3018.75	0.60434	1.42517e-05
3018.97	0.604187	7.38525e-06