File: Edgar/20240605/20240605/electrodeposition_pulsed_potential_20240605_A/pulses_4000_to_5000.txt
Time (s)	WE(1).Potential (V)	WE(1).Current (A)
3031.43	-0.49823	-0.0187805
3031.91	0.604187	1.40076e-05
3032.41	0.604523	6.03027e-05
3032.87	-0.49942	-0.0133942
3033.35	0.605164	3.54004e-06
3033.85	0.604095	3.5675e-05
3034.33	-0.000189209	0.00480713
3034.79	0.604523	7.78198e-06
3035.29	0.604218	2.15454e-05
3035.77	-0.000479126	0.00264526
3036.23	0.604218	8.63647e-06
3036.73	0.605377	1.12e-05
3037.23	0.604218	0.0169525
3037.67	0.604218	6.65283e-06
3038.17	0.604797	1.12305e-05
3038.67	0.605682	0.00203369
3039.13	-0.498474	-0.0188354
3039.61	0.604462	1.20544e-05
3040.11	0.604065	6.58264e-05
3040.57	-0.499237	-0.0133942
3041.05	0.604004	1.171875E-05
3041.55	0.604156	3.58887e-05
3042.03	0.000195313	0.00484161
3042.49	0.604034	1.11389e-05
3042.99	0.604248	2.36816e-05
3043.47	-0.000231934	0.00266571
3043.93	0.604095	9.61304e-06
3044.43	0.604309	1.80359e-05
3044.93	0.603302	0.0169647
3045.37	0.604614	2.59399e-06
3045.87	0.605011	1.05896e-05
3046.37	0.60556	0.00221405
3046.83	-0.498138	-0.0188324
3047.31	0.604523	9.765625E-06
3047.81	0.604034	6.56433e-05
3048.27	-0.49939	-0.013382
3048.75	0.604095	1.03149e-05
3049.25	0.604126	3.71704e-05
3049.73	-0.000460815	0.00484955
3050.19	0.604858	2.74658e-06
3050.69	0.605225	1.78833e-05
3051.17	-0.00015564	0.00267426
3051.63	0.605286	1.34277e-06
3052.13	0.604279	1.75171e-05
3052.63	0.604095	0.0169922
3053.07	0.604095	9.09424e-06
3053.57	0.604645	1.45874e-05
3054.07	0.604523	0.00222992
3054.53	-0.499237	-0.0188232
3055.01	0.604431	1.16272e-05
3055.51	0.605103	5.74341e-05
3055.97	-0.498657	-0.0133911
3056.45	0.605347	2.89917e-06
3056.95	0.605255	3.06091e-05
3057.43	-0.000445557	0.0048526
3057.89	0.604919	4.21143e-06
3058.39	0.604858	2.01721e-05
3058.87	-0.000210571	0.00268036
3059.33	0.604126	9.61304e-06
3059.83	0.604065	1.99585e-05
3060.33	0.60318	0.0169952
3060.77	0.604156	8.14819e-06
3061.27	0.605316	7.78198e-06
3061.77	0.604736	0.00225708
3062.23	-0.497955	-0.0188293
3062.71	0.604095	1.4679e-05
3063.21	0.605011	5.85632e-05
3063.67	-0.499512	-0.013385
3064.15	0.605377	3.14331e-06
3064.65	0.604309	3.5614e-05
3065.13	0.000415039	0.00484924
3065.59	0.605255	2.16675e-06
3066.09	0.604065	2.56653e-05
3066.57	0.000854492	0.00268097
3067.03	0.604614	3.78418e-06
3067.53	0.605011	1.3092e-05
3068.03	0.60376	0.0170013
3068.47	0.605072	1.83105e-06
3068.97	0.605316	7.62939e-06
3069.47	0.605103	0.00227875
3069.93	-0.498077	-0.0188324
3070.41	0.604279	1.10474e-05
3070.91	0.60498	5.75256e-05
3071.37	-0.498291	-0.0134033
3071.85	0.604034	1.24207e-05
3072.35	0.604065	3.67126e-05
3072.83	0.000134277	0.00484802
3073.29	0.604706	5.98145e-06
3073.79	0.604126	2.4353e-05
3074.27	0.000558472	0.00268738
3074.73	0.605225	1.46484e-06
3075.23	0.605469	1.17493e-05
3075.73	0.603241	0.0170197
3076.17	0.604858	3.35693e-06
3076.67	0.604218	1.48926e-05
3077.17	0.60437	0.00232758
3077.63	-0.498627	-0.0188293
3078.11	0.60498	6.62231e-06
3078.61	0.604034	6.70776e-05
3079.07	-0.49884	-0.0134003
3079.55	0.604218	1.12305e-05
3080.05	0.605164	2.88391e-05
3080.53	0.000643921	0.00484039
3080.99	0.60495	5.21851e-06
3081.49	0.604431	2.31934e-05
3081.97	0.000842285	0.00268097
3082.43	0.60495	3.50952e-06
3082.93	0.605286	1.19019e-05
3083.43	0.604004	0.0170227
3083.87	0.604095	9.94873e-06
3084.37	0.60495	9.64355e-06
3084.87	0.604431	0.00234314
3085.33	-0.499054	-0.0188293
3085.81	0.605072	6.2561e-06
3086.31	0.604095	6.56128e-05
3086.77	-0.499298	-0.0134003
3087.25	0.604004	1.29089e-05
3087.75	0.60437	3.45764e-05
3088.23	0.000180054	0.00485077
3088.69	0.604034	1.09558e-05
3089.19	0.605225	1.78528e-05
3089.67	-0.000131226	0.00269196
3090.13	0.604553	7.26318e-06
3090.63	0.604218	1.86157e-05
3091.13	0.604279	0.0170319
3091.57	0.60495	2.96021e-06
3092.07	0.60498	1.06812e-05
3092.57	0.604736	0.00240387
3093.03	-0.498383	-0.0188324
3093.51	0.604309	1.22375e-05
3094.01	0.60498	5.9021e-05
3094.47	-0.499176	-0.0134186
3094.95	0.605164	3.9978e-06
3095.45	0.605164	2.90833e-05
3095.93	-6.71387e-05	0.00484985
3096.39	0.604553	6.71387e-06
3096.89	0.605133	1.80359e-05
3097.37	3.05176e-06	0.00268616
3097.83	0.60498	4.76074e-06
3098.33	0.605255	1.13831e-05
3098.83	0.60437	0.0170349
3099.27	0.60434	7.2937e-06
3099.77	0.605286	7.47681e-06
3100.27	0.605621	0.0025174
3100.73	-0.497986	-0.0188446
3101.21	0.605286	4.94385e-06
3101.71	0.605133	5.8197e-05
3102.17	-0.498291	-0.0134277
3102.65	0.605225	4.08936e-06
3103.15	0.604401	3.54614e-05
3103.63	0.000717163	0.00483368
3104.09	0.604034	1.09558e-05
3104.59	0.604401	2.25525e-05
3105.07	-0.000372314	0.00268921
3105.53	0.604736	7.65991e-06
3106.03	0.604889	1.31531e-05
3106.53	0.604218	0.017041
3106.97	0.604462	6.7749e-06
3107.47	0.60498	9.79614e-06
3107.97	0.604614	0.00261902
3108.43	-0.498352	-0.0188507
3108.91	0.604523	1.27258e-05
3109.41	0.604156	6.55518e-05
3109.87	-0.498779	-0.0134369
3110.35	0.604462	1.00403e-05
3110.85	0.604492	3.42407e-05
3111.33	0.000292969	0.00483063
3111.79	0.604156	9.85718e-06
3112.29	0.604095	2.50549e-05
3112.77	0.000375366	0.00268463
3113.23	0.605194	2.53296e-06
3113.73	0.605347	9.91821e-06
3114.23	0.60321	0.0170502
3114.67	0.604584	5.58472e-06
3115.17	0.604156	1.56555e-05
3115.67	0.604492	0.00272491
3116.13	-0.498199	-0.0188599
3116.61	0.604675	9.94873e-06
3117.11	0.605286	5.97229e-05
3117.57	-0.499084	-0.013446
3118.05	0.604034	1.26343e-05
3118.55	0.604187	3.60718e-05
3119.03	-5.79834e-05	0.00482544
3119.49	0.605103	3.9978e-06
3119.99	0.604797	2.06909e-05
3120.47	-0.000180054	0.00268066
3120.93	0.604614	5.37109e-06
3121.43	0.605164	1.26343e-05
3121.93	0.60321	0.0170441
3122.37	0.603973	8.54492e-06
3122.87	0.604065	1.5625e-05
3123.37	0.60434	0.00285828
3123.83	-0.499084	-0.0188507
3124.31	0.604034	1.30005e-05
3124.81	0.604095	6.65588e-05
3125.27	-0.498871	-0.0134583
3125.75	0.605286	2.34985e-06
3126.25	0.604095	3.78723e-05
3126.73	-0.000338745	0.00481964
3127.19	0.60437	1.01013e-05
3127.69	0.604553	2.28577e-05
3128.17	0.000640869	0.00267609
3128.63	0.604828	5.58472e-06
3129.13	0.604187	1.9104e-05
3129.63	0.603271	0.0170593
3130.07	0.604584	5.12695e-06
3130.57	0.604797	9.52148e-06
3131.07	0.605621	0.00296997
3131.53	-0.498474	-0.018869
3132.01	0.604858	8.39233e-06
3132.51	0.604218	6.640625E-05
3132.97	-0.499237	-0.0134552
3133.45	0.604858	5.40161e-06
3133.95	0.604462	3.7262e-05
3134.43	-0.00055542	0.00481445
3134.89	0.604034	1.10168e-05
3135.39	0.604065	2.66113e-05
3135.87	0.000808716	0.0026709
3136.33	0.604828	5.37109e-06
3136.83	0.605225	1.17493e-05
3137.33	0.604492	0.0170624
3137.77	0.605072	2.01416e-06
3138.27	0.604645	1.23596e-05
3138.77	0.604462	0.00308929
3139.23	-0.499176	-0.0188599
3139.71	0.604218	1.3092e-05
3140.21	0.604919	6.1676e-05
3140.67	-0.499023	-0.0134735
3141.15	0.605316	3.02124e-06
3141.65	0.605347	2.8595e-05
3142.13	-0.000213623	0.00480774
3142.59	0.603943	1.17798e-05
3143.09	0.605042	1.98059e-05
3143.57	-0.000289917	0.00267395
3144.03	0.605103	3.32642e-06
3144.53	0.604462	1.86768e-05
3145.03	0.603149	0.0170715
3145.47	0.605164	1.67847e-06
3145.97	0.604675	1.31226e-05
3146.47	0.604401	0.00323456
3146.93	-0.498444	-0.0188629
3147.41	0.604126	1.54419e-05
3147.91	0.604187	6.50024e-05
3148.37	-0.49823	-0.0134857
3148.85	0.604004	1.19324e-05
3149.35	0.605316	2.90527e-05
3149.83	-0.000476074	0.00480072
3150.29	0.60434	7.41577e-06
3150.79	0.604156	2.72827e-05
3151.27	0.000912476	0.00266479
3151.73	0.60498	2.96021e-06
3152.23	0.604095	1.9104e-05
3152.73	0.603394	0.0170685
3153.17	0.604218	7.84302e-06
3153.67	0.605042	1.08032e-05
3154.17	0.60437	0.00336273
3154.63	-0.498291	-0.018869
3155.11	0.604034	1.41602e-05
3155.61	0.604919	6.14624e-05
3156.07	-0.499481	-0.0134766
3156.55	0.604797	8.20923e-06
3157.05	0.605225	2.90833e-05
3157.53	0.000671387	0.00478546
3157.99	0.605164	2.0752e-06
3158.49	0.604614	2.26746e-05
3158.97	0.000344849	0.00266632
3159.43	0.604279	9.58252e-06
3159.93	0.605103	1.25427e-05
3160.43	0.603333	0.0170746
3160.87	0.605042	4.08936e-06
3161.37	0.604156	1.5564e-05
3161.87	0.60553	0.00350006
3162.33	-0.498444	-0.0188812
3162.81	0.604095	1.32446e-05
3163.31	0.604218	6.53992e-05
3163.77	-0.499542	-0.013504
3164.25	0.605225	5.82886e-06
3164.75	0.60434	3.50647e-05
3165.23	0.000762939	0.00477753
3165.69	0.60498	3.63159e-06
3166.19	0.604095	2.6825e-05
3166.67	-0.000177002	0.00266663
3167.13	0.604065	9.765625E-06
3167.63	0.604034	2.15149e-05
3168.13	0.60318	0.0170776
3168.57	0.604889	3.63159e-06
3169.07	0.60434	1.39465e-05
3169.57	0.605011	0.00365265
3170.03	-0.49884	-0.0188812
3170.51	0.604004	1.34583e-05
3171.01	0.604919	6.25e-05
3171.47	-0.498413	-0.0135132
3171.95	0.604919	5.85937e-06
3172.45	0.605347	2.8656e-05
3172.93	0.000796509	0.00477203
3173.39	0.604218	1.03149e-05
3173.89	0.604523	2.23389e-05
3174.37	0.000845337	0.00265686
3174.83	0.605225	2.28882e-06
3175.33	0.604919	1.41907e-05
3175.83	0.603882	0.0170898
3176.27	0.604523	2.56348e-06
3176.77	0.60498	9.765625E-06
3177.27	0.605621	0.00376312
3177.73	-0.498505	-0.0188934
3178.21	0.604584	9.8877e-06
3178.71	0.605255	6.05774e-05
3179.17	-0.498199	-0.0135223
3179.65	0.605316	4.42505e-06
3180.15	0.605042	3.02734e-05
3180.63	0.00067749	0.00476471
3181.09	0.605225	1.46484e-06
3181.59	0.605255	1.74866e-05
3182.07	0.000875854	0.00265472
3182.53	0.604309	8.42285e-06
3183.03	0.604156	1.9043e-05
3183.53	0.604431	0.0170807
3183.97	0.605225	9.15527e-08
3184.47	0.604187	1.80054e-05
3184.97	0.605164	0.00390808
3185.43	-0.498322	-0.0188904
3185.91	0.604309	1.36719e-05
3186.41	0.604156	6.66809e-05
3186.87	-0.499115	-0.0135193
3187.35	0.604401	1.01624e-05
3187.85	0.605042	3.24707e-05
3188.33	-0.000527954	0.0047641
3188.79	0.605225	2.89917e-06
3189.29	0.605316	1.60828e-05
3189.77	0.000808716	0.00265289
3190.23	0.604248	9.12476e-06
3190.73	0.604767	1.44348e-05
3191.23	0.603851	0.0170959
3191.67	0.604675	3.84521e-06
3192.17	0.604095	1.71814e-05
3192.67	0.605682	0.00407349
3193.13	-0.498199	-0.0188995
3193.61	0.604492	1.06506e-05
3194.11	0.604828	6.31714e-05
3194.57	-0.499054	-0.0135345
3195.05	0.605103	4.36401e-06
3195.55	0.604584	3.53088e-05
3196.03	-0.000317383	0.00475647
3196.49	0.60498	4.76074e-06
3196.99	0.604126	2.63062e-05
3197.47	-0.000125122	0.00265472
3197.93	0.603943	8.91113e-06
3198.43	0.604187	1.88904e-05
3198.93	0.60318	0.0170959
3199.37	0.604858	3.2959e-06
3199.87	0.605347	7.96509e-06
3200.37	0.604828	0.00424561
3200.83	-0.498291	-0.0189056
3201.31	0.604004	1.5686e-05
3201.81	0.605225	5.93872e-05
3202.27	-0.498749	-0.0135529
3202.75	0.605347	4.39453e-06
3203.25	0.604462	3.54004e-05
3203.73	0.000195313	0.00474915
3204.19	0.604767	6.2561e-06
3204.69	0.603912	2.58179e-05
3205.17	0.00090332	0.00264435
3205.63	0.605225	7.62939e-07
3206.13	0.605286	1.15051e-05
3206.63	0.60376	0.0170929
3207.07	0.604034	9.46045e-06
3207.57	0.605286	7.90405e-06
3208.07	0.604828	0.00438507
3208.53	-0.499146	-0.0189026
3209.01	0.604523	9.73511e-06
3209.51	0.604218	6.86646e-05
3209.97	-0.498962	-0.0135468
3210.45	0.605164	6.16455e-06
3210.95	0.604034	3.81165e-05
3211.43	-7.93457e-05	0.00474182
3211.89	0.604095	1.09558e-05
3212.39	0.605225	1.86462e-05
3212.87	-0.00020752	0.00265167
3213.33	0.604187	9.61304e-06
3213.83	0.604828	1.34888e-05
3214.33	0.603241	0.0171021
3214.77	0.605133	0
3215.27	0.604095	1.651e-05
3215.77	0.605347	0.00451508
3216.23	-0.498627	-0.0189209
3216.71	0.605286	5.0354e-06
3217.21	0.604126	6.83899e-05
3217.67	-0.499603	-0.0135559
3218.15	0.60437	7.96509e-06
3218.65	0.604736	3.35388e-05
3219.13	0.000708008	0.00473236
3219.59	0.605316	3.05176e-06
3220.09	0.60498	2.06909e-05
3220.57	0.000924683	0.0026416
3221.03	0.605316	1.12915e-06
3221.53	0.604736	1.70898e-05
3222.03	0.603333	0.0171021
3222.47	0.605225	1.52588e-06
3222.97	0.604309	1.47095e-05
3223.47	0.604706	0.00465485
3223.93	-0.49884	-0.0189148
3224.41	0.605133	6.40869e-06
3224.91	0.604431	6.80847e-05
3225.37	-0.498322	-0.0135681
3225.85	0.605072	5.79834e-06
3226.35	0.604065	3.86353e-05
3226.83	-0.000366211	0.00473022
3227.29	0.605286	2.50244e-06
3227.79	0.604858	2.14233e-05
3228.27	-0.000366211	0.00264435
3228.73	0.604645	4.94385e-06
3229.23	0.605347	1.171875E-05
3229.73	0.604401	0.0171021
3230.17	0.604034	9.91821e-06
3230.67	0.60437	1.40686e-05
3231.17	0.60498	0.00477051
3231.63	-0.499146	-0.0189117
3232.11	0.604187	1.32141e-05
3232.61	0.604767	6.5918e-05
3233.07	-0.499298	-0.0135712
3233.55	0.604004	1.3916e-05
3234.05	0.604584	3.51868e-05
3234.53	0.000695801	0.00471924
3234.99	0.604767	6.80542e-06
3235.49	0.604431	2.3407e-05
3235.97	0.000253296	0.00263397
3236.43	0.604858	4.42505e-06
3236.93	0.604401	1.88599e-05
3237.43	0.603302	0.0171173
3237.87	0.604065	9.15527e-06
3238.37	0.60437	1.22986e-05
3238.87	0.605469	0.00492035
3239.33	-0.498108	-0.0189178
3239.81	0.605255	5.27954e-06
3240.31	0.605072	6.34766e-05
3240.77	-0.499451	-0.0135864
3241.25	0.605255	4.76074e-06
3241.75	0.604004	3.90015e-05
3242.23	0.000689697	0.00470734
3242.69	0.604797	5.15747e-06
3243.19	0.604431	2.44751e-05
3243.67	-0.000366211	0.00263855
3244.13	0.604462	7.90405e-06
3244.63	0.605042	1.30005e-05
3245.13	0.603394	0.0171082
3245.57	0.604614	3.32642e-06
3246.07	0.604126	1.71814e-05
3246.57	0.605438	0.00504456
3247.03	-0.499054	-0.0189209
3247.51	0.605103	7.08008e-06
3248.01	0.605103	6.2561e-05
3248.47	-0.498291	-0.0135956
3248.95	0.604309	1.01929e-05
3249.45	0.60434	3.71704e-05
3249.93	-3.05176e-06	0.00470673
3250.39	0.604004	1.15967e-05
3250.89	0.604309	2.4353e-05
3251.37	-0.000244141	0.00263641
3251.83	0.605133	3.2959e-06
3252.33	0.604553	1.69067e-05
3252.83	0.604187	0.0171173
3253.27	0.604889	3.479e-06
3253.77	0.604462	1.16577e-05
3254.27	0.605103	0.00518433
3254.73	-0.498413	-0.018927
3255.21	0.604553	1.15356e-05
3255.71	0.604431	6.89392e-05
3256.17	-0.499481	-0.0136078
3256.65	0.604034	1.2207e-05
3257.15	0.604126	3.73535e-05
3257.63	-0.000506592	0.00470276
3258.09	0.605347	2.28882e-06
3258.59	0.604218	2.55432e-05
3259.07	-0.00027771	0.00263397
3259.53	0.605316	1.15967e-06
3260.03	0.605225	1.29089e-05
3260.53	0.603302	0.0171265
3260.97	0.60434	6.74438e-06
3261.47	0.605225	7.2937e-06
3261.97	0.605621	0.00527618
3262.43	-0.498199	-0.0189392
3262.91	0.604065	1.43127e-05
3263.41	0.604553	6.57654e-05
3263.87	-0.499481	-0.0136078
3264.35	0.604919	6.80542e-06
3264.85	0.604156	3.72009e-05
3265.33	-0.000405884	0.00470154
3265.79	0.604218	7.93457e-06
3266.29	0.60498	2.03552e-05
3266.77	-0.000216675	0.00262939
3267.23	0.604553	5.61523e-06
3267.73	0.604858	1.3855e-05
3268.23	0.603943	0.0171326
3268.67	0.604706	6.073e-06
3269.17	0.604279	1.37329e-05
3269.67	0.60553	0.00537903
3270.13	-0.499146	-0.0189331
3270.61	0.604095	1.45569e-05
3271.11	0.60434	6.83899e-05
3271.57	-0.498566	-0.0136169
3272.05	0.605347	3.9978e-06
3272.55	0.603973	3.97339e-05
3273.03	-0.000292969	0.00469757
3273.49	0.605347	2.01416e-06
3273.99	0.604675	2.0874e-05
3274.47	-8.23975e-05	0.00262939
3274.93	0.605225	2.74658e-06
3275.43	0.604889	1.37634e-05
3275.93	0.604095	0.0171387
3276.37	0.604919	4.39453e-06
3276.87	0.605286	7.96509e-06
3277.37	0.60556	0.0054953
3277.83	-0.498413	-0.0189484
3278.31	0.605011	7.78198e-06
3278.81	0.605255	6.26221e-05
3279.27	-0.499268	-0.0136169
3279.75	0.604523	7.56836e-06
3280.25	0.604187	3.88184e-05
3280.73	-0.000256348	0.00469055
3281.19	0.605103	5.34058e-06
3281.69	0.605072	1.96228e-05
3282.17	0.00067749	0.00261871
3282.63	0.605408	2.44141e-07
3283.13	0.605164	1.26953e-05
3283.63	0.604065	0.0171295
3284.07	0.605286	1.37329e-06
3284.57	0.603973	1.77002e-05
3285.07	0.605469	0.0056369
3285.53	-0.499084	-0.0189514
3286.01	0.605438	4.91333e-06
3286.51	0.604126	7.03735e-05
3286.97	-0.499207	-0.0136414
3287.45	0.604584	8.5144e-06
3287.95	0.604004	3.9032e-05
3288.43	0.000222778	0.00467285
3288.89	0.605255	2.19727e-06
3289.39	0.604065	2.85645e-05
3289.87	0.000335693	0.00261627
3290.33	0.604858	4.21143e-06
3290.83	0.604095	2.03247e-05
3291.33	0.604095	0.0171387
3291.77	0.604553	4.02832e-06
3292.27	0.604156	1.55945e-05
3292.77	0.604462	0.00574371
3293.23	-0.498901	-0.0189484
3293.71	0.604156	1.41602e-05
3294.21	0.605011	6.39648e-05
3294.67	-0.49942	-0.0136383
3295.15	0.605225	4.21143e-06
3295.65	0.604919	3.2074e-05
3296.13	0.000622559	0.00466705
3296.59	0.605072	3.08228e-06
3297.09	0.604889	2.27051e-05
3297.57	-0.000390625	0.00262146
3298.03	0.604034	8.08716e-06
3298.53	0.605316	1.19324e-05
3299.03	0.603577	0.0171387
3299.47	0.605072	1.67847e-06
3299.97	0.604309	1.45569e-05
3300.47	0.605225	0.00588715
3300.93	-0.498993	-0.0189545
3301.41	0.604126	1.21765e-05
3301.91	0.604126	7.11975e-05
3302.37	-0.499573	-0.0136536
3302.85	0.605316	3.02124e-06
3303.35	0.605286	3.09448e-05
3303.83	-7.01904e-05	0.00466675
3304.29	0.604889	4.85229e-06
3304.79	0.604095	2.53601e-05
3305.27	0.0009552	0.00261047
3305.73	0.604095	9.79614e-06
3306.23	0.604095	1.92871e-05
3306.73	0.603882	0.0171326
3307.17	0.604187	8.60596e-06
3307.67	0.605255	9.765625E-06
3308.17	0.605408	0.00601288
3308.63	-0.497986	-0.0189697
3309.11	0.604767	8.97217e-06
3309.61	0.604126	7.13501e-05
3310.07	-0.499329	-0.0136597
3310.55	0.605316	3.50952e-06
3311.05	0.604156	3.84521e-05
3311.53	0.000799561	0.00465393
3311.99	0.605316	1.80054e-06
3312.49	0.604218	2.65808e-05
3312.97	0.000686646	0.00260986
3313.43	0.605286	1.2207e-07
3313.93	0.604797	1.58691e-05
3314.43	0.603363	0.0171509
3314.87	0.605316	-4.27246e-07
3315.37	0.605103	9.765625E-06
3315.87	0.605316	0.00606079
3316.33	-0.497925	-0.0189697
3316.81	0.605011	5.98145e-06
3317.31	0.605103	6.40564e-05
3317.77	-0.499329	-0.0136627
3318.25	0.605103	8.36182e-06
3318.75	0.605225	3.11279e-05
3319.23	-0.00043335	0.0046579
3319.69	0.605286	2.10571e-06
3320.19	0.604095	2.75574e-05
3320.67	0.000918579	0.00260895
3321.13	0.605194	1.19019e-06
3321.63	0.604156	1.83105e-05
3322.13	0.603333	0.01716
3322.57	0.605286	6.71387e-07
3323.07	0.604553	1.31226e-05
3323.57	0.604767	0.00614288
3324.03	-0.498779	-0.0189606
3324.51	0.604065	1.42822e-05
3325.01	0.605408	6.21033e-05
3325.47	-0.498383	-0.013681
3325.95	0.604828	6.13403e-06
3326.45	0.604279	3.62244e-05
3326.93	0.000750732	0.00464508
3327.39	0.604675	7.20215e-06
3327.89	0.605103	1.87683e-05
3328.37	2.74658e-05	0.00261047
3328.83	0.604156	9.73511e-06
3329.33	0.605316	1.21155e-05
3329.83	0.60437	0.0171417
3330.27	0.604431	7.50732e-06
3330.77	0.605011	1.14136e-05
3331.27	0.605255	0.00624268
3331.73	-0.498077	-0.0189728
3332.21	0.604919	1.04675e-05
3332.71	0.605194	6.44531e-05
3333.17	-0.498688	-0.013681
3333.65	0.605225	7.2937e-06
3334.15	0.604126	3.84827e-05
3334.63	0.000402832	0.0046402
3335.09	0.605042	3.60107e-06
3335.59	0.60495	2.05994e-05
3336.07	0.000228882	0.00260193
3336.53	0.605286	1.37329e-06
3337.03	0.604065	2.15759e-05
3337.53	0.603394	0.0171692
3337.97	0.604767	4.11987e-06
3338.47	0.604095	1.71814e-05
3338.97	0.604523	0.00633911
3339.43	-0.498138	-0.0189789
3339.91	0.604675	1.05286e-05
3340.41	0.604126	7.01294e-05
3340.87	-0.498627	-0.0136902
3341.35	0.605255	4.24194e-06
3341.85	0.605225	3.05176e-05
3342.33	0.000793457	0.00463379
3342.79	0.605133	3.69263e-06
3343.29	0.604156	2.67029e-05
3343.77	0.00085144	0.0026001
3344.23	0.603943	9.85718e-06
3344.73	0.605133	1.36719e-05
3345.23	0.604248	0.0171661
3345.67	0.604034	7.17163e-06
3346.17	0.605316	7.62939e-06
3346.67	0.604126	0.00640411
3347.13	-0.497955	-0.018985
3347.61	0.604279	1.22375e-05
3348.11	0.604523	6.99158e-05
3348.57	-0.499298	-0.0137054
3349.05	0.604767	5.37109e-06
3349.55	0.604767	3.3844e-05
3350.03	0.00065918	0.00462769
3350.49	0.605194	3.9978e-06
3350.99	0.604614	2.26135e-05
3351.47	-0.000390625	0.00260803
3351.93	0.604401	7.08008e-06
3352.43	0.604065	2.15759e-05
3352.93	0.604095	0.0171631
3353.37	0.605194	8.8501e-07
3353.87	0.605133	9.24683e-06
3354.37	0.604156	0.00649109
3354.83	-0.498779	-0.0189789
3355.31	0.604553	1.1261e-05
3355.81	0.604126	7.36389e-05
3356.27	-0.49881	-0.0137024
3356.75	0.604187	1.11694e-05
3357.25	0.604309	3.83911e-05
3357.73	0.000119019	0.00462646
3358.19	0.604004	1.20544e-05
3358.69	0.604706	2.28271e-05
3359.17	-0.000393677	0.00260376
3359.63	0.604675	4.57764e-06
3360.13	0.604279	1.86768e-05
3360.63	0.60318	0.0171753
3361.07	0.604736	7.01904e-06
3361.57	0.604156	1.57166e-05
3362.07	0.604828	0.00658508
3362.53	-0.498138	-0.0189941
3363.01	0.604065	1.41907e-05
3363.51	0.604431	7.1106e-05
3363.97	-0.498138	-0.0137177
3364.45	0.60434	8.78906e-06
3364.95	0.604279	3.76587e-05
3365.43	2.44141e-05	0.00461731
3365.89	0.604034	1.18713e-05
3366.39	0.604828	2.23389e-05
3366.87	-7.32422e-05	0.00259491
3367.33	0.604767	4.97437e-06
3367.83	0.604218	2.06299e-05
3368.33	0.604065	0.0171722
3368.77	0.604706	5.49316e-06
3369.27	0.60437	1.40381e-05
3369.77	0.604675	0.00666687
3370.23	-0.499146	-0.018985
3370.71	0.604218	1.33667e-05
3371.21	0.604919	6.53687e-05
3371.67	-0.49942	-0.0137177
3372.15	0.604431	1.02234e-05
3372.65	0.604675	3.44849e-05
3373.13	-0.000442505	0.004617
3373.59	0.604492	8.57544e-06
3374.09	0.604004	2.7771e-05
3374.57	0.000765991	0.00259521
3375.03	0.604767	6.31714e-06
3375.53	0.605286	1.20239e-05
3376.03	0.604309	0.0171844
3376.47	0.604004	9.79614e-06
3376.97	0.603973	1.62048e-05
3377.47	0.60495	0.00673401
3377.93	-0.499115	-0.0189972
3378.41	0.605347	4.73022e-06
3378.91	0.605316	6.49109e-05
3379.37	-0.498383	-0.0137482
3379.85	0.604187	8.97217e-06
3380.35	0.604919	3.42102e-05
3380.83	0.000805664	0.00461609
3381.29	0.604126	1.02234e-05
3381.79	0.604645	2.18201e-05
3382.27	0.000292969	0.00259613
3382.73	0.604797	5.06592e-06
3383.23	0.604858	1.26038e-05
3383.73	0.603424	0.0171967
3384.17	0.604309	7.96509e-06
3384.67	0.605133	8.81958e-06
3385.17	0.605255	0.00677887
3385.63	-0.499023	-0.0190125
3386.11	0.604828	8.88062e-06
3386.61	0.604004	7.49207e-05
3387.07	-0.498322	-0.0137482
3387.55	0.604126	1.26953e-05
3388.05	0.605408	3.04565e-05
3388.53	0.000735474	0.00460999
3388.99	0.605072	3.87573e-06
3389.49	0.605103	1.98669e-05
3389.97	-0.000323486	0.00260193
3390.43	0.604187	1.0437e-05
3390.93	0.604767	1.5564e-05
3391.43	0.603455	0.0171906
3391.87	0.604126	7.78198e-06
3392.37	0.605286	8.11768e-06
3392.87	0.605011	0.00681854
3393.33	-0.497833	-0.0190186
3393.81	0.604126	1.12915e-05
3394.31	0.605255	6.46973e-05
3394.77	-0.499542	-0.0137543
3395.25	0.604095	1.24512e-05
3395.75	0.605103	3.26538e-05
3396.23	-0.000408936	0.00461273
3396.69	0.604614	8.54492e-06
3397.19	0.604034	2.53601e-05
3397.67	0.000369263	0.00259766
3398.13	0.605347	7.62939e-07
3398.63	0.605042	1.36108e-05
3399.13	0.603119	0.0171997
3399.57	0.604034	9.64355e-06
3400.07	0.605286	8.48389e-06
3400.57	0.605072	0.0068924
3401.03	-0.498047	-0.0190247
3401.51	0.605316	4.60815e-06
3402.01	0.605377	6.43005e-05
3402.47	-0.498535	-0.0137665
3402.95	0.605286	3.2959e-06
3403.45	0.604675	3.479e-05
3403.93	0.000701904	0.00459656
3404.39	0.605316	2.96021e-06
3404.89	0.604034	2.73743e-05
3405.37	0.000827026	0.00258698
3405.83	0.604462	5.31006e-06
3406.33	0.604034	2.04773e-05
3406.83	0.603943	0.0171875
3407.27	0.604034	1.07117e-05
3407.77	0.605072	9.64355e-06
3408.27	0.605286	0.00697266
3408.73	-0.498993	-0.0190125
3409.21	0.604034	1.37939e-05
3409.71	0.604706	7.08313e-05
3410.17	-0.498474	-0.0137787
3410.65	0.604034	1.23291e-05
3411.15	0.605377	3.07312e-05
3411.63	-0.000228882	0.00459686
3412.09	0.605286	2.53296e-06
3412.59	0.605225	2.13318e-05
3413.07	0.000961304	0.00258179
3413.53	0.604767	3.50952e-06
3414.03	0.604065	2.23389e-05
3414.53	0.603851	0.0172028
3414.97	0.604919	4.02832e-06
3415.47	0.60495	1.06201e-05
3415.97	0.603882	0.00708832
3416.43	-0.498322	-0.0190247
3416.91	0.604095	1.3855e-05
3417.41	0.604675	6.96106e-05
3417.87	-0.498871	-0.0137848
3418.35	0.604736	6.56128e-06
3418.85	0.604034	3.91846e-05
3419.33	-0.000442505	0.00458923
3419.79	0.605377	2.38037e-06
3420.29	0.605225	1.9043e-05
3420.77	0.00012207	0.00258484
3421.23	0.604156	7.56836e-06
3421.73	0.605225	1.36108e-05
3422.23	0.603729	0.0172119
3422.67	0.604218	7.47681e-06
3423.17	0.604584	1.34277e-05
3423.67	0.605072	0.00715424
3424.13	-0.497925	-0.0190308
3424.61	0.604065	1.22986e-05
3425.11	0.605072	6.79932e-05
3425.57	-0.498566	-0.0137817
3426.05	0.604004	1.15967e-05
3426.55	0.604675	3.51868e-05
3427.03	-0.000170898	0.0045755
3427.49	0.604462	7.75146e-06
3427.99	0.604065	2.63062e-05
3428.47	0.000109863	0.00258484
3428.93	0.604248	9.18579e-06
3429.43	0.604797	1.53198e-05
3429.93	0.603241	0.017215
3430.37	0.605164	1.83105e-06
3430.87	0.604279	1.48926e-05
3431.37	0.603973	0.00719299
3431.83	-0.49881	-0.0190216
3432.31	0.605255	6.04248e-06
3432.81	0.605042	6.78406e-05
3433.27	-0.49823	-0.013797
3433.75	0.604095	1.25427e-05
3434.25	0.604462	3.66821e-05
3434.73	0.000134277	0.00457672
3435.19	0.604279	1.11389e-05
3435.69	0.604279	2.56348e-05
3436.17	-0.000415039	0.00258362
3436.63	0.605316	6.71387e-07
3437.13	0.605347	1.2146e-05
3437.63	0.603546	0.0172089
3438.07	0.605194	2.10571e-06
3438.57	0.604889	9.15527e-06
3439.07	0.604889	0.00726318
3439.53	-0.498688	-0.0190277
3440.01	0.60495	9.15527e-06
3440.51	0.604401	7.24487e-05
3440.97	-0.498535	-0.0138
3441.45	0.605286	3.87573e-06
3441.95	0.603943	3.92761e-05
3442.43	0.000134277	0.00457031
3442.89	0.605316	2.2583e-06
3443.39	0.605011	2.07825e-05
3443.87	0.000637817	0.00257568
3444.33	0.604156	8.39233e-06
3444.83	0.604919	1.52283e-05
3445.33	0.603973	0.017215
3445.77	0.604706	4.5166e-06
3446.27	0.605316	8.17871e-06
3446.77	0.603912	0.00731506
3447.23	-0.497955	-0.0190491
3447.71	0.605316	6.04248e-06
3448.21	0.604919	6.84204e-05
3448.67	-0.498627	-0.0138153
3449.15	0.605255	3.35693e-06
3449.65	0.604095	3.88184e-05
3450.13	-0.000375366	0.00456238
3450.59	0.604279	1.14746e-05
3451.09	0.604858	2.13013e-05
3451.57	0.000314331	0.00257446
3452.03	0.605164	1.43433e-06
3452.53	0.605072	1.32141e-05
3453.03	0.603943	0.017215
3453.47	0.604858	3.35693e-06
3453.97	0.604767	1.34277e-05
3454.47	0.604401	0.00734436
3454.93	-0.498444	-0.0190369
3455.41	0.604187	1.39465e-05
3455.91	0.604095	7.5592e-05
3456.37	-0.498383	-0.0138092
3456.85	0.605316	3.8147e-06
3457.35	0.604218	4.03442e-05
3457.83	-0.000396729	0.00455933
3458.29	0.604889	3.60107e-06
3458.79	0.605316	1.93176e-05
3459.27	0.000772095	0.00256805
3459.73	0.605133	2.62451e-06
3460.23	0.605255	1.23596e-05
3460.73	0.603851	0.0172241
3461.17	0.605255	2.96021e-06
3461.67	0.60437	1.47705e-05
3462.17	0.604218	0.007388
3462.63	-0.497955	-0.019046
3463.11	0.605286	5.82886e-06
3463.61	0.604034	7.547e-05
3464.07	-0.499542	-0.0138123
3464.55	0.604675	1.03149e-05
3465.05	0.604065	4.10156e-05
3465.53	0.000808716	0.00454346
3465.99	0.605042	4.42505e-06
3466.49	0.605194	1.95923e-05
3466.97	7.32422e-05	0.0025705
3467.43	0.604218	8.63647e-06
3467.93	0.603973	2.13928e-05
3468.43	0.603699	0.017215
3468.87	0.604034	8.81958e-06
3469.37	0.605194	8.57544e-06
3469.87	0.60495	0.00743408
3470.33	-0.498291	-0.0190308
3470.81	0.604797	9.79614e-06
3471.31	0.604004	7.59888e-05
3471.77	-0.499512	-0.0138153
3472.25	0.605164	5.43213e-06
3472.75	0.605042	3.23792e-05
3473.23	0.000811768	0.00453735
3473.69	0.604553	7.20215e-06
3474.19	0.605347	1.91956e-05
3474.67	-0.000280762	0.00257019
3475.13	0.605286	1.31226e-06
3475.63	0.604065	2.07825e-05
3476.13	0.603607	0.0172272
3476.57	0.604889	4.39453e-06
3477.07	0.604065	1.68152e-05
3477.57	0.60498	0.00745544
3478.03	-0.498413	-0.0190399
3478.51	0.605255	7.41577e-06
3479.01	0.604675	7.22351e-05
3479.47	-0.499451	-0.0138367
3479.95	0.60434	1.31836e-05
3480.45	0.605255	2.99377e-05
3480.93	0.000793457	0.00453033
3481.39	0.604492	6.65283e-06
3481.89	0.604919	2.29797e-05
3482.37	0.00050354	0.00256683
3482.83	0.60495	3.57056e-06
3483.33	0.603943	2.1759e-05
3483.83	0.60376	0.0172302
3484.27	0.60495	1.89209e-06
3484.77	0.604156	1.70288e-05
3485.27	0.605011	0.00749512
3485.73	-0.497864	-0.0190399
3486.21	0.604004	1.45874e-05
3486.71	0.604309	7.2937e-05
3487.17	-0.498474	-0.0138367
3487.65	0.603973	1.29089e-05
3488.15	0.604004	3.99475e-05
3488.63	0.00072937	0.0045401
3489.09	0.605286	2.50244e-06
3489.59	0.604218	2.57263e-05
3490.07	0.000314331	0.00256744
3490.53	0.604065	1.15967e-05
3491.03	0.605225	1.19019e-05
3491.53	0.60321	0.0172394
3491.97	0.604584	6.19507e-06
3492.47	0.605377	8.30078e-06
3492.97	0.605072	0.00747986
3493.43	-0.499237	-0.0190491
3493.91	0.604126	1.18408e-05
3494.41	0.604523	7.2052e-05
3494.87	-0.498718	-0.0138458
3495.35	0.604462	9.552e-06
3495.85	0.60495	3.40576e-05
3496.33	0.000253296	0.00454224
3496.79	0.604126	1.05286e-05
3497.29	0.605133	2.17896e-05
3497.77	0.00090332	0.00256073
3498.23	0.60498	4.94385e-06
3498.73	0.604156	1.92871e-05
3499.23	0.604462	0.0172394
3499.67	0.604126	9.33838e-06
3500.17	0.604309	1.36414e-05
3500.67	0.605164	0.00748291
3501.13	-0.499115	-0.019043
3501.61	0.604584	1.11694e-05
3502.11	0.605072	6.90002e-05
3502.57	-0.498596	-0.0138489
3503.05	0.605164	4.76074e-06
3503.55	0.60434	3.80554e-05
3504.03	0.000524902	0.00453644
3504.49	0.604919	6.62231e-06
3504.99	0.604797	2.37122e-05
3505.47	0.000820923	0.00256104
3505.93	0.604553	4.48608e-06
3506.43	0.604156	1.9165e-05
3506.93	0.60321	0.0172516
3507.37	0.605103	2.04468e-06
3507.87	0.604645	1.297e-05
3508.37	0.604584	0.00753479
3508.83	-0.498108	-0.0190674
3509.31	0.605347	7.47681e-06
3509.81	0.604034	7.64771e-05
3510.27	-0.498688	-0.0138611
3510.75	0.605255	4.39453e-06
3511.25	0.604034	4.01001e-05
3511.73	0.0006073	0.00452209
3512.19	0.604462	9.52148e-06
3512.69	0.605316	1.74561e-05
3513.17	0.000183105	0.00255615
3513.63	0.604034	1.06812e-05
3514.13	0.604706	1.57471e-05
3514.63	0.603943	0.0172455
3515.07	0.604584	6.40869e-06
3515.57	0.604401	1.33972e-05
3516.07	0.604004	0.00759583
3516.53	-0.499146	-0.0190552
3517.01	0.605255	5.5542e-06
3517.51	0.604248	7.58057e-05
3517.97	-0.499207	-0.0138489
3518.45	0.604584	9.64355e-06
3518.95	0.604156	3.87878e-05
3519.43	0.0006073	0.00451813
3519.89	0.605347	1.49536e-06
3520.39	0.60495	2.02637e-05
3520.87	-0.000372314	0.00256042
3521.33	0.604431	7.1106e-06
3521.83	0.604797	1.66626e-05
3522.33	0.60376	0.0172516
3522.77	0.605316	6.40869e-07
3523.27	0.604034	1.81274e-05
3523.77	0.603851	0.0076355
3524.23	-0.498047	-0.0190582
3524.71	0.604645	9.79614e-06
3525.21	0.605164	7.08313e-05
3525.67	-0.498322	-0.0138733
3526.15	0.604095	1.27869e-05
3526.65	0.604401	4.01917e-05
3527.13	0.00032959	0.00450958
3527.59	0.604767	5.67627e-06
3528.09	0.605286	1.92261e-05
3528.57	-0.00038147	0.00255768
3529.03	0.604858	4.27246e-06
3529.53	0.604767	1.64185e-05
3530.03	0.604492	0.0172485
3530.47	0.605286	1.34277e-06
3530.97	0.604431	1.34583e-05
3531.47	0.604919	0.00765686
3531.93	-0.498962	-0.0190521
3532.41	0.60434	1.23596e-05
3532.91	0.605225	6.96106e-05
3533.37	-0.498383	-0.0138733
3533.85	0.605133	3.60107e-06
3534.35	0.604187	3.94897e-05
3534.83	0.000592041	0.00450714
3535.29	0.604919	2.68555e-06
3535.79	0.605042	2.09045e-05
3536.27	0.000741577	0.00254639
3536.73	0.60498	3.9978e-06
3537.23	0.60498	1.58691e-05
3537.73	0.60379	0.0172455
3538.17	0.604919	5.37109e-06
3538.67	0.605164	7.93457e-06
3539.17	0.604492	0.00771484
3539.63	-0.497955	-0.0190704
3540.11	0.605347	5.31006e-06
3540.61	0.605377	6.83594e-05
3541.07	-0.499451	-0.0138794
3541.55	0.604431	1.06201e-05
3542.05	0.604462	3.85132e-05
3542.53	0.000778198	0.00449768
3542.99	0.604065	1.13831e-05
3543.49	0.60437	2.5177e-05
3543.97	0.00038147	0.00254303
3544.43	0.605225	2.19727e-06
3544.93	0.604034	2.18506e-05
3545.43	0.603088	0.0172577
3545.87	0.603943	9.73511e-06
3546.37	0.604218	1.52588e-05
3546.87	0.60498	0.00779114
3547.33	-0.497925	-0.0190857
3547.81	0.605042	6.56128e-06
3548.31	0.60498	7.25403e-05
3548.77	-0.498962	-0.0138977
3549.25	0.605103	4.02832e-06
3549.75	0.605316	3.11584e-05
3550.23	0.000537109	0.00448792
3550.69	0.605347	2.53296e-06
3551.19	0.605103	1.98364e-05
3551.67	0.00010376	0.00254517
3552.13	0.604584	7.01904e-06
3552.63	0.603973	2.24609e-05
3553.13	0.603638	0.0172516
3553.57	0.605225	1.86157e-06
3554.07	0.604065	1.74866e-05
3554.57	0.604553	0.0078064
3555.03	-0.497864	-0.0190765
3555.51	0.604523	1.12e-05
3556.01	0.604553	7.62024e-05
3556.47	-0.498535	-0.0138977
3556.95	0.604584	8.23975e-06
3557.45	0.604492	3.68958e-05
3557.93	0.000390625	0.0044873
3558.39	0.605225	1.7395e-06
3558.89	0.605286	1.97144e-05
3559.37	0.000164795	0.00253967
3559.83	0.60434	9.27734e-06
3560.33	0.605408	1.19019e-05
3560.83	0.604126	0.0172607
3561.27	0.605377	6.10352e-07
3561.77	0.60437	1.43738e-05
3562.27	0.604095	0.00783081
3562.73	-0.498901	-0.0190704
3563.21	0.605011	6.2561e-06
3563.71	0.60437	7.5592e-05
3564.17	-0.498474	-0.0139008
3564.65	0.605164	4.27246e-06
3565.15	0.605286	3.15552e-05
3565.63	-0.000372314	0.00450226
3566.09	0.604156	1.02539e-05
3566.59	0.604156	2.91748e-05
3567.07	0.00093689	0.00254211
3567.53	0.604523	7.78198e-06
3568.03	0.604675	1.74255e-05
3568.53	0.603149	0.0172729
3568.97	0.604492	6.19507e-06
3569.47	0.604492	1.33972e-05
3569.97	0.603729	0.00785217
3570.43	-0.498718	-0.0190918
3570.91	0.605377	6.01196e-06
3571.41	0.604004	7.80334e-05
3571.87	-0.498505	-0.0139221
3572.35	0.604462	9.30786e-06
3572.85	0.604065	4.04968e-05
3573.33	-0.000442505	0.00449524
3573.79	0.604279	8.91113e-06
3574.29	0.604065	2.76794e-05
3574.77	6.71387e-05	0.00254181
3575.23	0.603912	9.8877e-06
3575.73	0.605194	1.45264e-05
3576.23	0.604492	0.0172729
3576.67	0.604034	1.02539e-05
3577.17	0.604095	1.64795e-05
3577.67	0.604736	0.00787964
3578.13	-0.49826	-0.0190887
3578.61	0.604248	1.53198e-05
3579.11	0.604034	7.76062e-05
3579.57	-0.499207	-0.013916
3580.05	0.604034	1.26953e-05
3580.55	0.605469	3.18909e-05
3581.03	0.000421143	0.00448761
3581.49	0.604095	1.09558e-05
3581.99	0.605011	2.36816e-05
3582.47	-0.000314331	0.00254852
3582.93	0.604095	1.06506e-05
3583.43	0.604858	1.45569e-05
3583.93	0.603699	0.0172852
3584.37	0.605103	1.89209e-06
3584.87	0.604187	1.58081e-05
3585.37	0.60376	0.00791626
3585.83	-0.499023	-0.0191223
3586.31	0.604187	1.49231e-05
3586.81	0.604034	7.74841e-05
3587.27	-0.498444	-0.0139465
3587.75	0.604187	1.26038e-05
3588.25	0.604645	3.66516e-05
3588.73	0.000363159	0.00449371
3589.19	0.604614	6.74438e-06
3589.69	0.604431	2.4292e-05
3590.17	0.00027771	0.00253754
3590.63	0.604156	8.97217e-06
3591.13	0.604065	2.18201e-05
3591.63	0.60376	0.0173004
3592.07	0.60437	6.83594e-06
3592.57	0.604065	1.74866e-05
3593.07	0.603851	0.00794373
3593.53	-0.499146	-0.0191223
3594.01	0.604065	1.45874e-05
3594.51	0.604095	7.83386e-05
3594.97	-0.499451	-0.0139404
3595.45	0.60498	5.98145e-06
3595.95	0.603912	4.03137e-05
3596.43	-0.000192261	0.00449341
3596.89	0.605194	2.74658e-06
3597.39	0.604523	2.49634e-05
3597.87	-5.79834e-05	0.00253723
3598.33	0.605316	8.23975e-07
3598.83	0.604401	1.96533e-05
3599.33	0.603058	0.0172974
3599.77	0.605377	8.54492e-07
3600.27	0.604095	1.7334e-05
3600.77	0.604309	0.00800171
3601.23	-0.49881	-0.0191345
3601.71	0.604248	1.3031e-05
3602.21	0.604858	7.35168e-05
3602.67	-0.498718	-0.0139496
3603.15	0.603973	1.23291e-05
3603.65	0.604584	3.60413e-05
3604.13	0.000790405	0.00447693
3604.59	0.604584	8.20923e-06
3605.09	0.604584	2.35291e-05
3605.57	0.000790405	0.00253082
3606.03	0.605316	2.19727e-06
3606.53	0.604889	1.34888e-05
3607.03	0.60318	0.0173096
3607.47	0.604553	4.24194e-06
3607.97	0.604065	1.80359e-05
3608.47	0.60379	0.00803223
3608.93	-0.499176	-0.0191345
3609.41	0.604218	1.42822e-05
3609.91	0.605377	6.8634e-05
3610.37	-0.499481	-0.0139587
3610.85	0.605255	4.76074e-06
3611.35	0.604858	3.58582e-05
3611.83	0.000796509	0.00446594
3612.29	0.605194	3.479e-06
3612.79	0.604126	2.72827e-05
3613.27	-0.000360107	0.00253204
3613.73	0.604187	7.2937e-06
3614.23	0.605164	1.32141e-05
3614.73	0.604065	0.0173035
3615.17	0.605011	1.43433e-06
3615.67	0.604706	1.27869e-05
3616.17	0.603973	0.00808411
3616.63	-0.498444	-0.0191315
3617.11	0.604431	1.02234e-05
3617.61	0.605225	7.12585e-05
3618.07	-0.498291	-0.013974
3618.55	0.605255	4.97437e-06
3619.05	0.604401	3.80554e-05
3619.53	-0.000338745	0.00446564
3619.99	0.605225	3.479e-06
3620.49	0.603943	2.70081e-05
3620.97	-0.000350952	0.00252899
3621.43	0.604584	7.75146e-06
3621.93	0.60498	1.4801e-05
3622.43	0.603668	0.0172974
3622.87	0.605164	3.35693e-07
3623.37	0.604279	1.58081e-05
3623.87	0.604919	0.00810852
3624.33	-0.497986	-0.0191528
3624.81	0.605194	6.89697e-06
3625.31	0.604034	7.98035e-05
3625.77	-0.499207	-0.0139801
3626.25	0.604858	7.84302e-06
3626.75	0.60495	3.3844e-05
3627.23	0.000454712	0.004453125
3627.69	0.604034	9.24683e-06
3628.19	0.605347	1.83105e-05
3628.67	0.000814819	0.00251953
3629.13	0.604309	7.44629e-06
3629.63	0.604523	1.87378e-05
3630.13	0.603729	0.0173035
3630.57	0.604889	2.68555e-06
3631.07	0.605469	7.38525e-06
3631.57	0.604614	0.00804749
3632.03	-0.498932	-0.0191193
3632.51	0.605286	6.13403e-06
3633.01	0.60437	7.75146e-05
3633.47	-0.499359	-0.0139587
3633.95	0.605072	7.17163e-06
3634.45	0.604309	3.69873e-05
3634.93	0.000460815	0.00446228
3635.39	0.604187	1.0437e-05
3635.89	0.605133	1.94397e-05
3636.37	0.000708008	0.0025235
3636.83	0.604492	6.01196e-06
3637.33	0.605042	1.4801e-05
3637.83	0.60437	0.0173096
3638.27	0.605286	-3.05176e-07
3638.77	0.605194	9.27734e-06
3639.27	0.604889	0.00801392
3639.73	-0.498138	-0.0191101
3640.21	0.605225	5.58472e-06
3640.71	0.604584	7.55005e-05
3641.17	-0.49942	-0.0139557
3641.65	0.604828	5.79834e-06
3642.15	0.604095	4.12292e-05
3642.63	0.000274658	0.00445282
3643.09	0.604919	6.68335e-06
3643.59	0.604523	2.52686e-05
3644.07	0.000476074	0.00252838
3644.53	0.605194	2.62451e-06
3645.03	0.604004	2.15149e-05
3645.53	0.603424	0.0173157
3645.97	0.605042	2.53296e-06
3646.47	0.604156	1.61743e-05
3646.97	0.60379	0.00801697
3647.43	-0.498474	-0.0191071
3647.91	0.604034	1.45264e-05
3648.41	0.604553	7.55615e-05
3648.87	-0.49942	-0.0139648
3649.35	0.60495	5.15747e-06
3649.85	0.604828	3.62549e-05
3650.33	0.000759888	0.00444702
3650.79	0.604065	1.04675e-05
3651.29	0.604553	2.2522e-05
3651.77	-2.44141e-05	0.00252289
3652.23	0.605316	2.56348e-06
3652.73	0.604919	1.37939e-05
3653.23	0.603424	0.0173218
3653.67	0.604065	9.21631e-06
3654.17	0.603973	1.55945e-05
3654.67	0.605103	0.00799561
3655.13	-0.499176	-0.0190887
3655.61	0.604126	1.48315e-05
3656.11	0.604218	7.94373e-05
3656.57	-0.498993	-0.0139679
3657.05	0.604279	1.06201e-05
3657.55	0.605438	3.25317e-05
3658.03	0.000891113	0.00444489
3658.49	0.604767	7.38525e-06
3658.99	0.604187	2.67639e-05
3659.47	7.93457e-05	0.00252197
3659.93	0.60434	8.08716e-06
3660.43	0.604706	1.66626e-05
3660.93	0.604279	0.0173309
3661.37	0.60495	4.76074e-06
3661.87	0.605347	8.97217e-06
3662.37	0.603821	0.00802002
3662.83	-0.497955	-0.0190979
3663.31	0.604034	1.45874e-05
3663.81	0.604675	7.74536e-05
3664.27	-0.499512	-0.0139618
3664.75	0.605255	2.92969e-06
3665.25	0.604736	3.48816e-05
3665.73	0.000613403	0.00443756
3666.19	0.605103	3.78418e-06
3666.69	0.605225	2.02637e-05
3667.17	0.000860596	0.00251587
3667.63	0.605225	2.10571e-06
3668.13	0.604095	1.87073e-05
3668.63	0.603271	0.0173279
3669.07	0.605286	7.32422e-07
3669.57	0.604767	1.26038e-05
3670.07	0.603943	0.00805359
3670.53	-0.499084	-0.0190918
3671.01	0.604523	1.16272e-05
3671.51	0.604584	7.41882e-05
3671.97	-0.499115	-0.0139709
3672.45	0.605133	5.15747e-06
3672.95	0.605194	3.33862e-05
3673.43	0.000619507	0.00443115
3673.89	0.604736	5.15747e-06
3674.39	0.604614	2.40479e-05
3674.87	-0.000424194	0.00251862
3675.33	0.604004	1.10779e-05
3675.83	0.604156	2.09351e-05
3676.33	0.60321	0.0173279
3676.77	0.604309	7.93457e-06
3677.27	0.605133	9.91821e-06
3677.77	0.603973	0.0080719
3678.23	-0.498016	-0.0190948
3678.71	0.604034	1.55945e-05
3679.21	0.605011	7.45239e-05
3679.67	-0.499512	-0.0139709
3680.15	0.605316	3.66211e-06
3680.65	0.604034	4.16565e-05
3681.13	-0.000259399	0.00442932
3681.59	0.604187	1.01929e-05
3682.09	0.604187	2.4231e-05
3682.57	-3.05176e-05	0.00250977
3683.03	0.604065	9.73511e-06
3683.53	0.605103	1.36719e-05
3684.03	0.60321	0.0173309
3684.47	0.605225	2.16675e-06
3684.97	0.604828	1.19324e-05
3685.47	0.604095	0.00809631
3685.93	-0.499115	-0.0190918
3686.41	0.604645	9.42993e-06
3686.91	0.605225	7.16858e-05
3687.37	-0.498199	-0.0139923
3687.85	0.604889	6.95801e-06
3688.35	0.604126	4.09241e-05
3688.83	-0.000292969	0.00442657
3689.29	0.605377	1.49536e-06
3689.79	0.605286	2.03552e-05
3690.27	-0.000408936	0.00251251
3690.73	0.604401	7.26318e-06
3691.23	0.605377	1.30005e-05
3691.73	0.60321	0.0173309
3692.17	0.60498	3.90625e-06
3692.67	0.604858	1.36719e-05
3693.17	0.604218	0.00812988
3693.63	-0.498169	-0.019104
3694.11	0.604187	1.42517e-05
3694.61	0.604034	8.01392e-05
3695.07	-0.49939	-0.0139984
3695.55	0.604065	1.18713e-05
3696.05	0.603973	4.00696e-05
3696.53	-0.000274658	0.00441895
3696.99	0.604431	7.78198e-06
3697.49	0.605225	2.02332e-05
3697.97	-0.000119019	0.00250916
3698.43	0.604034	1.02234e-05
3698.93	0.605347	1.25122e-05
3699.43	0.604431	0.017334
3699.87	0.605286	2.68555e-06
3700.37	0.605164	1.01929e-05
3700.87	0.603882	0.00815125
3701.33	-0.499084	-0.0190857
3701.81	0.604126	1.43127e-05
3702.31	0.605316	7.26013e-05
3702.77	-0.498138	-0.0140045
3703.25	0.603882	1.28174e-05
3703.75	0.605286	3.27759e-05
3704.23	0.000579834	0.0044104
3704.69	0.605164	2.96021e-06
3705.19	0.604919	2.3468e-05
3705.67	0.00088501	0.00250061
3706.13	0.604614	6.40869e-06
3706.63	0.605316	1.32141e-05
3707.13	0.604126	0.017334
3707.57	0.604187	8.81958e-06
3708.07	0.605011	1.08948e-05
3708.57	0.604431	0.0081665
3709.03	-0.499176	-0.0190948
3709.51	0.605286	6.43921e-06
3710.01	0.604187	7.94983e-05
3710.47	-0.49942	-0.0139984
3710.95	0.605164	4.05884e-06
3711.45	0.604065	4.14124e-05
3711.93	0.000543213	0.0043985
3712.39	0.604492	9.42993e-06
3712.89	0.604706	2.35901e-05
3713.37	0.00072937	0.00249908
3713.83	0.604004	1.03455e-05
3714.33	0.605347	1.22986e-05
3714.83	0.603241	0.0173431
3715.27	0.604218	7.69043e-06
3715.77	0.605408	8.66699e-06
3716.27	0.604492	0.00820007
3716.73	-0.499146	-0.0190948
3717.21	0.605377	5.43213e-06
3717.71	0.605042	7.45544e-05
3718.17	-0.498413	-0.0140198
3718.65	0.60498	6.5918e-06
3719.15	0.604584	3.94287e-05
3719.63	0.000827026	0.00439484
3720.09	0.604797	4.82178e-06
3720.59	0.604095	2.78625e-05
3721.07	-0.000131226	0.00250061
3721.53	0.604034	1.05591e-05
3722.03	0.605194	1.3855e-05
3722.53	0.603149	0.017337
3722.97	0.604889	3.32642e-06
3723.47	0.604126	1.74255e-05
3723.97	0.60498	0.0082489
3724.43	-0.498993	-0.0190948
3724.91	0.605347	6.43921e-06
3725.41	0.604065	8.15735e-05
3725.87	-0.498474	-0.0140198
3726.35	0.603973	1.33362e-05
3726.85	0.605316	3.10669e-05
3727.33	-0.000405884	0.0043924
3727.79	0.605347	2.83813e-06
3728.29	0.605316	1.94092e-05
3728.77	-0.000100708	0.00249359
3729.23	0.605316	6.71387e-07
3729.73	0.605011	1.6449e-05
3730.23	0.60318	0.0173401
3730.67	0.60495	2.65503e-06
3731.17	0.604218	1.45874e-05
3731.39	0.605377	1.12915e-06