File: Edgar/20240605/20240605/electrodeposition_pulsed_potential_20240605_A/pulses_2000_to_3000.txt
Time (s)	WE(1).Potential (V)	WE(1).Current (A)
1606.54	-0.498383	-0.0174683
1607.02	0.604401	9.30786e-06
1607.52	0.604431	3.77197e-05
1607.98	-0.498657	-0.0107147
1608.46	0.604706	3.08228e-06
1608.96	0.605316	1.70288e-05
1609.44	0.000292969	0.00632721
1609.9	0.604095	9.27734e-06
1610.4	0.604523	1.51062e-05
1610.88	0.00032959	0.00298523
1611.34	0.604797	3.11279e-06
1611.84	0.604218	1.41907e-05
1612.34	0.603241	0.0151367
1612.78	0.604858	1.83105e-06
1613.28	0.604065	1.23291e-05
1613.78	0.604095	9.6405e-05
1614.24	-0.499237	-0.0174561
1614.72	0.605316	1.15967e-06
1615.22	0.604706	3.58887e-05
1615.68	-0.499115	-0.0107086
1616.16	0.604492	8.94165e-06
1616.66	0.605286	1.68762e-05
1617.14	0.000704956	0.00635254
1617.6	0.604187	9.39941e-06
1618.1	0.604523	1.61743e-05
1618.58	-0.000384521	0.00301208
1619.04	0.604675	3.32642e-06
1619.54	0.60434	1.40076e-05
1620.04	0.604553	0.0151581
1620.48	0.604187	7.50732e-06
1620.98	0.605164	6.04248e-06
1621.48	0.605103	8.88977e-05
1621.94	-0.498535	-0.0174744
1622.42	0.60434	8.5144e-06
1622.92	0.60498	3.43628e-05
1623.38	-0.499573	-0.0107147
1623.86	0.603912	1.02844e-05
1624.36	0.604645	2.32544e-05
1624.84	-0.000140381	0.00636108
1625.3	0.604004	9.3689e-06
1625.8	0.604706	1.42822e-05
1626.28	-0.00010376	0.00302368
1626.74	0.604004	8.23975e-06
1627.24	0.605316	7.62939e-06
1627.74	0.604156	0.0151733
1628.18	0.605164	-1.15967e-06
1628.68	0.604584	9.52148e-06
1629.18	0.604187	9.67712e-05
1629.64	-0.498474	-0.0174683
1630.12	0.605011	3.35693e-06
1630.62	0.605377	3.23792e-05
1631.08	-0.498566	-0.0107422
1631.56	0.605377	4.27246e-07
1632.06	0.604248	2.57263e-05
1632.54	-0.000241089	0.00636932
1633	0.604034	8.97217e-06
1633.5	0.604279	1.73645e-05
1633.98	5.49316e-05	0.00303162
1634.44	0.604462	2.38037e-06
1634.94	0.604553	1.15967e-05
1635.44	0.604523	0.0152069
1635.88	0.60553	-1.98364e-06
1636.38	0.604095	1.28174e-05
1636.88	0.604492	9.47571e-05
1637.34	-0.498749	-0.0174713
1637.82	0.604095	1.05286e-05
1638.32	0.604645	3.77502e-05
1638.78	-0.499054	-0.0107544
1639.26	0.604187	8.69751e-06
1639.76	0.604126	2.55737e-05
1640.24	-0.000497437	0.00636566
1640.7	0.604645	4.18091e-06
1641.2	0.60434	1.7395e-05
1641.68	-0.000457764	0.00303802
1642.14	0.605408	-2.74658e-07
1642.64	0.603973	1.61133e-05
1643.14	0.604675	0.0152313
1643.58	0.604248	7.53784e-06
1644.08	0.605408	3.93677e-06
1644.58	0.605072	8.91113e-05
1645.04	-0.498657	-0.0174774
1645.52	0.604614	7.96509e-06
1646.02	0.604218	4.04968e-05
1646.48	-0.499268	-0.0107574
1646.96	0.605194	1.86157e-06
1647.46	0.605347	1.74561e-05
1647.94	0.000186157	0.00635803
1648.4	0.604462	5.15747e-06
1648.9	0.604889	1.33667e-05
1649.38	-0.000161743	0.00304321
1649.84	0.604401	4.21143e-06
1650.34	0.605347	6.7749e-06
1650.84	0.603363	0.0152557
1651.28	0.604065	8.69751e-06
1651.78	0.605103	6.16455e-06
1652.28	0.605316	8.90503e-05
1652.74	-0.499298	-0.0174927
1653.22	0.604523	8.5144e-06
1653.72	0.605194	3.28979e-05
1654.18	-0.498932	-0.0107788
1654.66	0.603973	1.00098e-05
1655.16	0.605347	1.7334e-05
1655.64	0.000585937	0.0063501
1656.1	0.604004	9.52148e-06
1656.6	0.604065	2.02332e-05
1657.08	-0.000335693	0.00304596
1657.54	0.604919	2.56348e-06
1658.04	0.604034	1.66016e-05
1658.54	0.603851	0.0152802
1658.98	0.605072	7.93457e-07
1659.48	0.604401	1.0376e-05
1659.98	0.605377	8.90198e-05
1660.44	-0.498016	-0.017514
1660.92	0.604553	7.72095e-06
1661.42	0.604065	4.14124e-05
1661.88	-0.498413	-0.0108063
1662.36	0.604187	9.24683e-06
1662.86	0.605316	1.7334e-05
1663.34	0.000650024	0.00634369
1663.8	0.605103	2.31934e-06
1664.3	0.605164	1.1322e-05
1664.78	0.000765991	0.00303864
1665.24	0.60434	6.10352e-06
1665.74	0.604156	1.5625e-05
1666.24	0.603302	0.0152985
1666.68	0.605316	-1.7395e-06
1667.18	0.604614	8.42285e-06
1667.68	0.604736	9.20715e-05
1668.14	-0.499268	-0.0175232
1668.62	0.604279	9.73511e-06
1669.12	0.604797	3.65906e-05
1669.58	-0.499237	-0.0108276
1670.06	0.605103	3.08228e-06
1670.56	0.605316	1.78223e-05
1671.04	-0.000430298	0.00634033
1671.5	0.605133	1.19019e-06
1672	0.605194	1.16577e-05
1672.48	0.000619507	0.00304077
1672.94	0.605225	-4.57764e-07
1673.44	0.604065	1.54724e-05
1673.94	0.60379	0.0153198
1674.38	0.605103	6.10352e-08
1674.88	0.605316	4.21143e-06
1675.38	0.605469	8.96606e-05
1675.84	-0.499359	-0.0175323
1676.32	0.604156	1.01318e-05
1676.82	0.604523	3.59802e-05
1677.28	-0.499451	-0.0108459
1677.76	0.604218	9.00269e-06
1678.26	0.605286	1.73645e-05
1678.74	-0.000445557	0.00633484
1679.2	0.604248	6.83594e-06
1679.7	0.605103	1.31836e-05
1680.18	0.000869751	0.00304169
1680.64	0.603973	7.47681e-06
1681.14	0.604523	1.23291e-05
1681.64	0.604401	0.015329
1682.08	0.604095	6.98853e-06
1682.58	0.604553	8.94165e-06
1683.08	0.604401	9.87244e-05
1683.54	-0.498444	-0.0175629
1684.02	0.605133	3.14331e-06
1684.52	0.604004	4.31824e-05
1684.98	-0.499634	-0.0108673
1685.46	0.605225	2.50244e-06
1685.96	0.604004	2.74353e-05
1686.44	-0.00055542	0.00632355
1686.9	0.604736	3.87573e-06
1687.4	0.604004	1.99585e-05
1687.88	0.000115967	0.00304352
1688.34	0.604919	2.04468e-06
1688.84	0.605255	6.86646e-06
1689.34	0.604095	0.0153442
1689.78	0.605347	-1.86157e-06
1690.28	0.604248	1.20239e-05
1690.78	0.604187	9.98535e-05
1691.24	-0.498047	-0.0175659
1691.72	0.604156	1.04675e-05
1692.22	0.604095	4.16565e-05
1692.68	-0.499695	-0.0108917
1693.16	0.604004	1.01013e-05
1693.66	0.604736	2.39258e-05
1694.14	0.000439453	0.00630493
1694.6	0.604034	9.0332e-06
1695.1	0.605408	1.10779e-05
1695.58	0.0009552	0.00304199
1696.04	0.604645	2.86865e-06
1696.54	0.605377	6.71387e-06
1697.04	0.604523	0.0153625
1697.48	0.604095	7.41577e-06
1697.98	0.604095	1.35803e-05
1698.48	0.604065	0.000102386
1698.94	-0.499084	-0.0175781
1699.42	0.60437	1.00098e-05
1699.92	0.604248	4.15649e-05
1700.38	-0.499054	-0.01091
1700.86	0.605316	1.12915e-06
1701.36	0.60437	2.5177e-05
1701.84	0.000640869	0.00629791
1702.3	0.604645	3.87573e-06
1702.8	0.60434	1.67236e-05
1703.28	-0.000473022	0.00305054
1703.74	0.604858	3.93677e-06
1704.24	0.604767	8.63647e-06
1704.74	0.603821	0.0153839
1705.18	0.605347	-1.12915e-06
1705.68	0.605377	4.57764e-06
1706.18	0.605377	9.41467e-05
1706.64	-0.499115	-0.0176056
1707.12	0.603973	1.07117e-05
1707.62	0.604553	3.79944e-05
1708.08	-0.498413	-0.0109375
1708.56	0.604004	1.15356e-05
1709.06	0.604004	2.63367e-05
1709.54	-0.000491333	0.00629639
1710	0.60495	2.80762e-06
1710.5	0.60498	1.36414e-05
1710.98	0.000271606	0.00304474
1711.44	0.605347	-1.19019e-06
1711.94	0.605255	7.17163e-06
1712.44	0.60318	0.0154053
1712.88	0.605042	1.46484e-06
1713.38	0.60437	9.91821e-06
1713.88	0.604248	0.000100861
1714.34	-0.497925	-0.0176086
1714.82	0.604004	9.94873e-06
1715.32	0.604492	4.10767e-05
1715.78	-0.499664	-0.010968
1716.26	0.604004	1.18408e-05
1716.76	0.604584	2.32849e-05
1717.24	0.000170898	0.0062793
1717.7	0.604126	8.57544e-06
1718.2	0.604187	1.90735e-05
1718.68	0.000241089	0.00304382
1719.14	0.604034	8.97217e-06
1719.64	0.604584	1.13831e-05
1720.14	0.603271	0.0154236
1720.58	0.604065	8.14819e-06
1721.08	0.605103	5.43213e-06
1721.58	0.605286	9.56726e-05
1722.04	-0.498199	-0.01763
1722.52	0.604095	1.17493e-05
1723.02	0.604858	3.8269e-05
1723.48	-0.498413	-0.0109924
1723.96	0.605255	2.99072e-06
1724.46	0.604065	2.73743e-05
1724.94	-0.000488281	0.00627441
1725.4	0.60498	3.75366e-06
1725.9	0.604675	1.58997e-05
1726.38	0.000177002	0.00304352
1726.84	0.604004	9.82666e-06
1727.34	0.605225	7.01904e-06
1727.84	0.603607	0.0154419
1728.28	0.604126	7.17163e-06
1728.78	0.605255	4.97437e-06
1729.28	0.604645	0.000100128
1729.74	-0.499268	-0.0176361
1730.22	0.605042	2.2583e-06
1730.72	0.605103	3.67432e-05
1731.18	-0.498322	-0.0110077
1731.66	0.604614	2.89917e-06
1732.16	0.604614	2.29797e-05
1732.64	0.000479126	0.00625916
1733.1	0.60434	8.69751e-06
1733.6	0.605072	1.27258e-05
1734.08	0.000805664	0.0030426
1734.54	0.605133	-2.13623e-07
1735.04	0.605316	6.65283e-06
1735.54	0.60437	0.0154572
1735.98	0.604858	1.80054e-06
1736.48	0.605377	4.3335e-06
1736.98	0.605225	9.62524e-05
1737.44	-0.498627	-0.0176575
1737.92	0.605194	3.78418e-06
1738.42	0.605103	3.6499e-05
1738.88	-0.499512	-0.0110291
1739.36	0.60498	5.27954e-06
1739.86	0.604034	2.78015e-05
1740.34	2.74658e-05	0.0062561
1740.8	0.604279	4.91333e-06
1741.3	0.605164	1.14746e-05
1741.78	0.000845337	0.0030426
1742.24	0.605255	-2.28882e-06
1742.74	0.604309	1.44043e-05
1743.24	0.603241	0.0154785
1743.68	0.604004	8.60596e-06
1744.18	0.604034	1.31531e-05
1744.68	0.604095	0.000104919
1745.14	-0.499115	-0.0176575
1745.62	0.604584	7.26318e-06
1746.12	0.604126	4.26331e-05
1746.58	-0.499664	-0.0110443
1747.06	0.60498	3.84521e-06
1747.56	0.604095	2.60315e-05
1748.04	-5.18799e-05	0.00624481
1748.5	0.604034	8.69751e-06
1749	0.604065	2.05078e-05
1749.48	-0.000375366	0.00305084
1749.94	0.605438	-1.06812e-06
1750.44	0.60437	1.35498e-05
1750.94	0.604218	0.0154938
1751.38	0.604614	5.82886e-06
1751.88	0.604523	8.72803e-06
1752.38	0.605103	9.82056e-05
1752.84	-0.498871	-0.0176788
1753.32	0.605133	3.87573e-06
1753.82	0.605377	3.42712e-05
1754.28	-0.49881	-0.0110687
1754.76	0.604614	6.83594e-06
1755.26	0.605408	1.81274e-05
1755.74	0.000616455	0.00623138
1756.2	0.605316	-2.44141e-07
1756.7	0.604095	1.9928e-05
1757.18	-0.000253296	0.00304596
1757.64	0.604645	4.85229e-06
1758.14	0.605347	7.69043e-06
1758.64	0.60321	0.0155121
1759.08	0.604492	4.88281e-06
1759.58	0.604156	1.26953e-05
1760.08	0.604462	0.000102325
1760.54	-0.498901	-0.0176941
1761.02	0.604095	1.19934e-05
1761.52	0.604218	4.27246e-05
1761.98	-0.499359	-0.011087
1762.46	0.604004	1.01013e-05
1762.96	0.604858	2.24304e-05
1763.44	-0.000460815	0.00622406
1763.9	0.605316	-5.18799e-07
1764.4	0.605103	1.28479e-05
1764.88	0.000839233	0.00303894
1765.34	0.605194	-3.05176e-08
1765.84	0.604645	1.22681e-05
1766.34	0.603973	0.0155365
1766.78	0.604187	6.80542e-06
1767.28	0.604248	1.12915e-05
1767.78	0.604767	0.000100922
1768.24	-0.499298	-0.0177063
1768.72	0.604156	1.15662e-05
1769.22	0.605316	3.40271e-05
1769.68	-0.498566	-0.0111176
1770.16	0.604218	9.30786e-06
1770.66	0.604248	2.58789e-05
1771.14	0.000146484	0.00621246
1771.6	0.60495	3.2959e-06
1772.1	0.604126	1.97144e-05
1772.58	-0.000314331	0.00304626
1773.04	0.604034	7.44629e-06
1773.54	0.604065	1.62354e-05
1774.04	0.603149	0.0155487
1774.48	0.605225	-9.46045e-07
1774.98	0.604706	9.42993e-06
1775.48	0.604126	0.000107605
1775.94	-0.498688	-0.0177185
1776.42	0.60498	3.96729e-06
1776.92	0.604095	4.29077e-05
1777.38	-0.499634	-0.0111328
1777.86	0.604462	8.08716e-06
1778.36	0.604767	2.33154e-05
1778.84	0.000189209	0.00620056
1779.3	0.605072	1.25122e-06
1779.8	0.605103	1.29089e-05
1780.28	-0.000210571	0.00304413
1780.74	0.604767	3.93677e-06
1781.24	0.605316	6.56128e-06
1781.74	0.604645	0.0155609
1782.18	0.605011	1.77002e-06
1782.68	0.604614	9.58252e-06
1783.18	0.605438	0.000100647
1783.64	-0.498901	-0.0177277
1784.12	0.60495	4.69971e-06
1784.62	0.605103	3.65295e-05
1785.08	-0.499542	-0.0111481
1785.56	0.604279	8.27026e-06
1786.06	0.604218	2.59705e-05
1786.54	-0.000183105	0.00619812
1787	0.604095	9.39941e-06
1787.5	0.604156	1.91956e-05
1787.98	0.000717163	0.00304108
1788.44	0.604004	7.96509e-06
1788.94	0.605255	7.93457e-06
1789.44	0.603271	0.0155823
1789.88	0.605347	-2.31934e-06
1790.38	0.60498	7.04956e-06
1790.88	0.60498	9.99146e-05
1791.34	-0.498047	-0.0177521
1791.82	0.605286	3.11279e-06
1792.32	0.604126	4.43115e-05
1792.78	-0.498444	-0.0111816
1793.26	0.604767	6.7749e-06
1793.76	0.604309	2.5177e-05
1794.24	-0.000317383	0.00618561
1794.7	0.604797	3.23486e-06
1795.2	0.605286	1.2146e-05
1795.68	0.00057373	0.00304077
1796.14	0.605377	-5.49316e-07
1796.64	0.604919	1.1322e-05
1797.14	0.604126	0.0155975
1797.58	0.604004	7.65991e-06
1798.08	0.605011	5.85937e-06
1798.58	0.605225	0.00010083
1799.04	-0.498108	-0.0177582
1799.52	0.604248	9.64355e-06
1800.02	0.604492	4.3396e-05
1800.48	-0.498718	-0.0111969
1800.96	0.604187	8.91113e-06
1801.46	0.604065	2.65503e-05
1801.94	0.000802612	0.0061731
1802.4	0.604797	4.15039e-06
1802.9	0.605194	1.11694e-05
1803.38	-0.00020752	0.0030484
1803.84	0.604736	2.99072e-06
1804.34	0.604065	1.61133e-05
1804.84	0.60434	0.0156036
1805.28	0.604797	3.08228e-06
1805.78	0.604462	1.07422e-05
1806.28	0.605316	0.000100952
1806.74	-0.499023	-0.0177673
1807.22	0.604858	5.37109e-06
1807.72	0.604248	4.43726e-05
1808.18	-0.498993	-0.0112274
1808.66	0.605133	2.89917e-06
1809.16	0.604218	2.5177e-05
1809.64	0.000747681	0.00616638
1810.1	0.604065	9.39941e-06
1810.6	0.605103	1.26343e-05
1811.08	0.000787354	0.00304108
1811.54	0.604919	2.10571e-06
1812.04	0.604065	1.61438e-05
1812.54	0.604187	0.0156281
1812.98	0.605072	-4.88281e-07
1813.48	0.605377	3.93677e-06
1813.98	0.605225	0.000101471
1814.44	-0.499054	-0.0177887
1814.92	0.604645	7.47681e-06
1815.42	0.605286	3.80249e-05
1815.88	-0.49942	-0.0112457
1816.36	0.604034	1.0437e-05
1816.86	0.605316	1.87073e-05
1817.34	-0.000494385	0.00616455
1817.8	0.60437	6.34766e-06
1818.3	0.605042	1.27258e-05
1818.78	-0.000415039	0.00304718
1819.24	0.604584	4.54712e-06
1819.74	0.604736	1.04065e-05
1820.24	0.603363	0.0156433
1820.68	0.604584	3.17383e-06
1821.18	0.605194	5.34058e-06
1821.68	0.605469	0.000102478
1822.14	-0.498352	-0.017807
1822.62	0.604065	1.17493e-05
1823.12	0.603943	4.48608e-05
1823.58	-0.49884	-0.011261
1824.06	0.604736	6.10352e-06
1824.56	0.603943	2.80151e-05
1825.04	-0.000479126	0.00615295
1825.5	0.604248	7.72095e-06
1826	0.605316	1.15662e-05
1826.48	0.000579834	0.00303741
1826.94	0.604919	2.50244e-06
1827.44	0.604431	1.41907e-05
1827.94	0.603302	0.0156677
1828.38	0.604156	7.38525e-06
1828.88	0.605225	4.94385e-06
1829.38	0.605011	0.000107269
1829.84	-0.49881	-0.017807
1830.32	0.604736	6.19507e-06
1830.82	0.605133	3.59497e-05
1831.28	-0.499573	-0.0112823
1831.76	0.604584	7.62939e-06
1832.26	0.604706	2.37122e-05
1832.74	-0.000445557	0.00614563
1833.2	0.604248	8.05664e-06
1833.7	0.604187	2.02026e-05
1834.18	0.000820923	0.00304016
1834.64	0.604492	4.79126e-06
1835.14	0.604004	1.69373e-05
1835.64	0.604309	0.0156708
1836.08	0.60495	6.40869e-07
1836.58	0.605286	3.96729e-06
1837.08	0.604919	0.00010434
1837.54	-0.498444	-0.0178162
1838.02	0.604553	7.87354e-06
1838.52	0.605286	3.9032e-05
1838.98	-0.498352	-0.0112976
1839.46	0.605377	1.28174e-06
1839.96	0.605408	1.94702e-05
1840.44	-5.49316e-05	0.00613403
1840.9	0.604431	6.13403e-06
1841.4	0.604126	1.93176e-05
1841.88	0.000610352	0.00303741
1842.34	0.604523	4.69971e-06
1842.84	0.605347	7.08008e-06
1843.34	0.603424	0.015683
1843.78	0.604858	2.04468e-06
1844.28	0.605316	3.96729e-06
1844.78	0.604309	0.00010968
1845.24	-0.498108	-0.0178375
1845.72	0.605347	3.50952e-06
1846.22	0.604584	3.86047e-05
1846.68	-0.498871	-0.0113251
1847.16	0.60498	4.30298e-06
1847.66	0.605438	1.95007e-05
1848.14	0.000698853	0.00611572
1848.6	0.604095	9.61304e-06
1849.1	0.604248	2.05078e-05
1849.58	0.000387573	0.00303436
1850.04	0.604004	8.39233e-06
1850.54	0.604218	1.5625e-05
1851.04	0.603241	0.0157074
1851.48	0.604248	5.98145e-06
1851.98	0.60498	6.71387e-06
1852.48	0.605377	0.000105103
1852.94	-0.498047	-0.0178436
1853.42	0.604065	1.07117e-05
1853.92	0.604523	4.41589e-05
1854.38	-0.49881	-0.0113373
1854.86	0.605286	1.12915e-06
1855.36	0.605316	1.87988e-05
1855.84	0.000274658	0.00611023
1856.3	0.60495	3.23486e-06
1856.8	0.604309	1.828e-05
1857.28	0.000762939	0.00303162
1857.74	0.604858	2.34985e-06
1858.24	0.604431	1.41296e-05
1858.74	0.604675	0.0157135
1859.18	0.604767	2.44141e-06
1859.68	0.604553	1.09863e-05
1860.18	0.604248	0.000114563
1860.64	-0.498505	-0.0178436
1861.12	0.604858	6.80542e-06
1861.62	0.604858	4.11072e-05
1862.08	-0.499329	-0.0113647
1862.56	0.604034	9.79614e-06
1863.06	0.603912	2.75269e-05
1863.54	-0.000491333	0.00610229
1864	0.604523	3.90625e-06
1864.5	0.604645	1.68457e-05
1864.98	0.000271606	0.00303253
1865.44	0.604034	8.20923e-06
1865.94	0.604401	1.4679e-05
1866.44	0.603943	0.0157288
1866.88	0.60434	5.85937e-06
1867.38	0.605225	5.46265e-06
1867.88	0.60495	0.000107819
1868.34	-0.498047	-0.017865
1868.82	0.604126	1.1261e-05
1869.32	0.605225	3.93982e-05
1869.78	-0.499329	-0.0113739
1870.26	0.605347	7.62939e-07
1870.76	0.604553	2.59705e-05
1871.24	-0.00012207	0.00609314
1871.7	0.604187	7.75146e-06
1872.2	0.604675	1.60522e-05
1872.68	0.000601196	0.0030307
1873.14	0.605255	-3.96729e-07
1873.64	0.604492	1.54724e-05
1874.14	0.603943	0.0157532
1874.58	0.604095	7.2937e-06
1875.08	0.605347	4.39453e-06
1875.58	0.605408	0.000106567
1876.04	-0.498291	-0.0178802
1876.52	0.604431	8.72803e-06
1877.02	0.604004	4.52271e-05
1877.48	-0.498352	-0.0114044
1877.96	0.605194	1.92261e-06
1878.46	0.605316	2.06909e-05
1878.94	0.000741577	0.00607697
1879.4	0.604034	9.30786e-06
1879.9	0.604523	1.69373e-05
1880.38	-0.00027771	0.0030365
1880.84	0.605011	1.58691e-06
1881.34	0.604858	1.09558e-05
1881.84	0.604187	0.0157562
1882.28	0.60498	6.71387e-07
1882.78	0.60434	1.22375e-05
1883.28	0.605255	0.00010968
1883.74	-0.498657	-0.0178802
1884.22	0.605286	3.57056e-06
1884.72	0.604004	4.41895e-05
1885.18	-0.499451	-0.0114166
1885.66	0.60437	7.78198e-06
1886.16	0.604065	2.94495e-05
1886.64	0.000524902	0.00606232
1887.1	0.605042	1.89209e-06
1887.6	0.604614	1.60217e-05
1888.08	0.000720215	0.0030304
1888.54	0.604034	8.05664e-06
1889.04	0.604004	1.68457e-05
1889.54	0.604065	0.0157776
1889.98	0.605072	1.83105e-07
1890.48	0.604279	1.22986e-05
1890.98	0.605133	0.000109039
1891.44	-0.498352	-0.0179047
1891.92	0.604736	6.65283e-06
1892.42	0.605469	3.61328e-05
1892.88	-0.499603	-0.0114349
1893.36	0.605347	1.49536e-06
1893.86	0.605347	2.15454e-05
1894.34	0.000665283	0.00605652
1894.8	0.604126	8.27026e-06
1895.3	0.604523	1.86157e-05
1895.78	0.000369263	0.00302887
1896.24	0.605103	1.89209e-06
1896.74	0.604065	1.54419e-05
1897.24	0.60434	0.0157898
1897.68	0.605286	-5.49316e-07
1898.18	0.605133	7.41577e-06
1898.68	0.604858	0.000112091
1899.14	-0.499237	-0.0179016
1899.62	0.604095	1.14136e-05
1900.12	0.604126	4.65393e-05
1900.58	-0.498596	-0.0114624
1901.06	0.605042	4.45557e-06
1901.56	0.603943	2.83508e-05
1902.04	0.000384521	0.00604523
1902.5	0.605347	6.71387e-07
1903	0.605286	1.28174e-05
1903.48	-0.000143433	0.00303619
1903.94	0.604675	4.15039e-06
1904.44	0.604401	1.33057e-05
1904.94	0.603271	0.0158081
1905.38	0.605286	-7.01904e-07
1905.88	0.60498	7.50732e-06
1906.38	0.605316	0.000111389
1906.84	-0.499268	-0.0179047
1907.32	0.605347	3.57056e-06
1907.82	0.605225	3.65601e-05
1908.28	-0.49884	-0.0114838
1908.76	0.604279	9.70459e-06
1909.26	0.604706	2.57568e-05
1909.74	0.000888062	0.00603638
1910.2	0.605316	1.0376e-06
1910.7	0.605042	1.27258e-05
1911.18	0.00088501	0.00302582
1911.64	0.604218	7.69043e-06
1912.14	0.604065	1.62964e-05
1912.64	0.603607	0.0158173
1913.08	0.604095	7.87354e-06
1913.58	0.604279	1.08032e-05
1914.08	0.604767	0.000116394
1914.54	-0.498932	-0.0179199
1915.02	0.605316	3.78418e-06
1915.52	0.604889	4.10767e-05
1915.98	-0.499268	-0.0114929
1916.46	0.604584	7.26318e-06
1916.96	0.604584	2.22778e-05
1917.44	0.000531006	0.00602905
1917.9	0.605225	1.86157e-06
1918.4	0.605255	1.40381e-05
1918.88	-0.000296021	0.00302704
1919.34	0.604095	8.48389e-06
1919.84	0.604553	1.15662e-05
1920.34	0.60437	0.0158325
1920.78	0.605194	2.44141e-07
1921.28	0.605316	5.09644e-06
1921.78	0.604675	0.000117584
1922.24	-0.499207	-0.0179443
1922.72	0.604523	8.11768e-06
1923.22	0.605133	3.8269e-05
1923.68	-0.498596	-0.0115295
1924.16	0.604065	1.01929e-05
1924.66	0.603973	2.97852e-05
1925.14	0.000784302	0.00601379
1925.6	0.605042	3.69263e-06
1926.1	0.605225	1.17493e-05
1926.58	-0.000454712	0.00302765
1927.04	0.604828	3.66211e-06
1927.54	0.604156	1.47095e-05
1928.04	0.604462	0.0158386
1928.48	0.604614	4.91333e-06
1928.98	0.605133	6.2561e-06
1929.48	0.604492	0.000118561
1929.94	-0.498352	-0.01796875
1930.42	0.605072	5.40161e-06
1930.92	0.604767	4.26636e-05
1931.38	-0.498383	-0.0115479
1931.86	0.604492	8.60596e-06
1932.36	0.605316	2.17896e-05
1932.84	-0.000442505	0.0060083
1933.3	0.605316	4.27246e-07
1933.8	0.604065	1.84021e-05
1934.28	0.000311279	0.0030246
1934.74	0.604645	2.74658e-06
1935.24	0.604309	1.42212e-05
1935.74	0.604126	0.0158478
1936.18	0.604919	1.2207e-06
1936.68	0.605347	5.27954e-06
1937.18	0.604065	0.000124298
1937.64	-0.498138	-0.0179626
1938.12	0.605255	2.83813e-06
1938.62	0.605438	3.73535e-05
1939.08	-0.499664	-0.011557
1939.56	0.604004	1.01318e-05
1940.06	0.604584	2.31018e-05
1940.54	-0.000354004	0.00599243
1941	0.604706	4.18091e-06
1941.5	0.604004	2.04468e-05
1941.98	-0.000494385	0.00302246
1942.44	0.605011	2.86865e-06
1942.94	0.604492	1.24207e-05
1943.44	0.604156	0.0158722
1943.88	0.604553	4.5166e-06
1944.38	0.604187	1.31836e-05
1944.88	0.605072	0.000116638
1945.34	-0.497955	-0.017984
1945.82	0.604065	1.20544e-05
1946.32	0.604767	4.18701e-05
1946.78	-0.499115	-0.0115753
1947.26	0.604156	1.05286e-05
1947.76	0.605438	1.91956e-05
1948.24	0.000100708	0.00598175
1948.7	0.604156	8.42285e-06
1949.2	0.603912	2.16064e-05
1949.68	0.000622559	0.00301575
1950.14	0.604248	6.40869e-06
1950.64	0.605164	8.42285e-06
1951.14	0.604309	0.0158905
1951.58	0.605438	-8.54492e-07
1952.08	0.604767	7.99561e-06
1952.58	0.604919	0.000120422
1953.04	-0.499054	-0.017984
1953.52	0.604645	6.19507e-06
1954.02	0.604828	4.10767e-05
1954.48	-0.499451	-0.0115967
1954.96	0.604431	7.32422e-06
1955.46	0.605469	2.12097e-05
1955.94	-0.000448608	0.00598022
1956.4	0.605316	7.01904e-07
1956.9	0.605225	1.14746e-05
1957.38	-0.000473022	0.00302429
1957.84	0.605377	2.44141e-07
1958.34	0.605042	1.02844e-05
1958.84	0.603424	0.0159027
1959.28	0.605347	-1.83105e-07
1959.78	0.604797	8.66699e-06
1960.28	0.604187	0.000123779
1960.74	-0.498016	-0.0179962
1961.22	0.604187	1.10168e-05
1961.72	0.604248	4.56238e-05
1962.18	-0.49884	-0.0116028
1962.66	0.604553	5.40161e-06
1963.16	0.604065	3.07617e-05
1963.64	-0.000497437	0.00597229
1964.1	0.605225	5.18799e-07
1964.6	0.604462	1.56555e-05
1965.08	0.00022583	0.0030127
1965.54	0.604126	8.5144e-06
1966.04	0.605164	9.0332e-06
1966.54	0.604523	0.0159058
1966.98	0.604858	2.31934e-06
1967.48	0.60437	1.21155e-05
1967.98	0.605377	0.000117371
1968.44	-0.498749	-0.0179962
1968.92	0.605286	3.84521e-06
1969.42	0.605072	3.88489e-05
1969.88	-0.499512	-0.0116272
1970.36	0.604919	5.24902e-06
1970.86	0.605164	2.38953e-05
1971.34	0.000195313	0.00595337
1971.8	0.604095	8.45337e-06
1972.3	0.604095	2.21863e-05
1972.78	6.10352e-05	0.00301239
1973.24	0.604034	8.75854e-06
1973.74	0.604034	1.68762e-05
1974.24	0.604584	0.0159149
1974.68	0.604553	5.52368e-06
1975.18	0.603973	1.41602e-05
1975.68	0.604584	0.000123688
1976.14	-0.497955	-0.0180115
1976.62	0.604126	1.17798e-05
1977.12	0.60495	4.10461e-05
1977.58	-0.499634	-0.0116364
1978.06	0.605103	2.74658e-06
1978.56	0.604218	2.92053e-05
1979.04	0.000857544	0.00594299
1979.5	0.604309	8.30078e-06
1980	0.60495	1.72424e-05
1980.48	0.000598145	0.00300781
1980.94	0.604004	8.30078e-06
1981.44	0.605225	7.84302e-06
1981.94	0.603424	0.0159302
1982.38	0.605164	3.20435e-06
1982.88	0.604248	1.24817e-05
1983.38	0.60437	0.000126953
1983.84	-0.498169	-0.0180298
1984.32	0.604858	6.92749e-06
1984.82	0.605286	3.93066e-05
1985.28	-0.499664	-0.0116699
1985.76	0.605347	1.09863e-06
1986.26	0.604309	2.57874e-05
1986.74	3.35693e-05	0.00593048
1987.2	0.605377	3.66211e-07
1987.7	0.605408	1.34277e-05
1988.18	-0.000485229	0.00301239
1988.64	0.60495	1.64795e-06
1989.14	0.603973	1.82495e-05
1989.64	0.60379	0.0159424
1990.08	0.604889	2.2583e-06
1990.58	0.605316	4.97437e-06
1991.08	0.604248	0.000127838
1991.54	-0.498749	-0.0180328
1992.02	0.604797	6.83594e-06
1992.52	0.604889	4.0863e-05
1992.98	-0.498871	-0.0117004
1993.46	0.604095	9.58252e-06
1993.96	0.604553	2.75269e-05
1994.44	0.000283813	0.00592041
1994.9	0.605286	1.52588e-07
1995.4	0.604218	1.77917e-05
1995.88	-0.0003479	0.00300873
1996.34	0.604065	8.48389e-06
1996.84	0.604919	9.39941e-06
1997.34	0.60321	0.0159607
1997.78	0.604309	6.5918e-06
1998.28	0.605347	5.64575e-06
1998.78	0.605347	0.000121216
1999.24	-0.49823	-0.0180573
1999.72	0.605316	3.9978e-06
2000.22	0.604034	4.77295e-05
2000.68	-0.499146	-0.0117004
2001.16	0.605042	4.42505e-06
2001.66	0.60495	2.13928e-05
2002.14	0.0006073	0.00591583
2002.6	0.605042	5.79834e-07
2003.1	0.604736	1.92871e-05
2003.58	0.000558472	0.0030069
2004.04	0.605194	6.71387e-07
2004.54	0.605377	8.08716e-06
2005.04	0.603271	0.0159729
2005.48	0.604126	7.14111e-06
2005.98	0.605072	6.56128e-06
2006.48	0.604401	0.000128967
2006.94	-0.498169	-0.0180573
2007.42	0.605164	3.90625e-06
2007.92	0.605286	4.00085e-05
2008.38	-0.49942	-0.0117249
2008.86	0.604797	5.46265e-06
2009.36	0.603973	2.96631e-05
2009.84	0.000421143	0.0059082
2010.3	0.604767	5.06592e-06
2010.8	0.605408	1.28174e-05
2011.28	-0.000268555	0.00300446
2011.74	0.604004	8.72803e-06
2012.24	0.605255	8.54492e-06
2012.74	0.603363	0.0159882
2013.18	0.605347	-1.58691e-06
2013.68	0.605286	6.65283e-06
2014.18	0.604095	0.000132263
2014.64	-0.498779	-0.0180542
2015.12	0.604919	6.98853e-06
2015.62	0.604797	4.0741e-05
2016.08	-0.499176	-0.0117371
2016.56	0.604553	9.00269e-06
2017.06	0.605438	2.03247e-05
2017.54	-0.000195313	0.00590302
2018	0.604034	1.01318e-05
2018.5	0.604034	2.08435e-05
2018.98	0.000762939	0.00299835
2019.44	0.604065	8.30078e-06
2019.94	0.604095	1.69678e-05
2020.44	0.603333	0.0159943
2020.88	0.605164	-4.57764e-07
2021.38	0.604309	1.25122e-05
2021.88	0.605255	0.000125366
2022.34	-0.499207	-0.0180634
2022.82	0.605316	2.89917e-06
2023.32	0.605225	4.0741e-05
2023.78	-0.498352	-0.0117615
2024.26	0.605286	1.31226e-06
2024.76	0.604248	2.97546e-05
2025.24	-0.000439453	0.00589172
2025.7	0.604248	7.41577e-06
2026.2	0.605072	1.41907e-05
2026.68	0.000845337	0.00299713
2027.14	0.605194	-4.27246e-07
2027.64	0.604401	1.4801e-05
2028.14	0.604462	0.0160034
2028.58	0.604187	7.17163e-06
2029.08	0.604156	1.33972e-05
2029.58	0.604187	0.000135986
2030.04	-0.498016	-0.0180847
2030.52	0.604187	1.2207e-05
2031.02	0.605438	3.85437e-05
2031.48	-0.499329	-0.0117798
2031.96	0.60434	9.06372e-06
2032.46	0.604797	2.17896e-05
2032.94	0.000201416	0.00587799
2033.4	0.605347	8.8501e-07
2033.9	0.604309	1.94702e-05
2034.38	-7.32422e-05	0.00300415
2034.84	0.605103	1.43433e-06
2035.34	0.605347	7.59888e-06
2035.84	0.604034	0.0160126
2036.28	0.604065	7.56836e-06
2036.78	0.604767	9.97925e-06
2037.28	0.605438	0.000127197
2037.74	-0.49881	-0.0180969
2038.22	0.604065	1.23596e-05
2038.72	0.605225	3.86963e-05
2039.18	-0.499451	-0.0117859
2039.66	0.604645	5.61523e-06
2040.16	0.605164	2.21252e-05
2040.64	-0.00017395	0.00586334
2041.1	0.604065	1.01929e-05
2041.6	0.604401	1.76392e-05
2042.08	-0.000137329	0.00299561
2042.54	0.604065	8.60596e-06
2043.04	0.605042	1.01624e-05
2043.54	0.603821	0.0160248
2043.98	0.605072	4.57764e-07
2044.48	0.605194	5.92041e-06
2044.98	0.604309	0.000135284
2045.44	-0.498718	-0.0181
2045.92	0.604492	7.72095e-06
2046.42	0.604095	4.80652e-05
2046.88	-0.499451	-0.0118134
2047.36	0.605377	1.40381e-06
2047.86	0.604492	2.54517e-05
2048.34	0.000762939	0.00584778
2048.8	0.604248	9.12476e-06
2049.3	0.604126	2.07214e-05
2049.78	-0.000363159	0.00299713
2050.24	0.604065	9.21631e-06
2050.74	0.604187	1.49536e-05
2051.24	0.603271	0.016037
2051.68	0.605286	-3.35693e-07
2052.18	0.605377	5.52368e-06
2052.68	0.604034	0.000140259
2053.14	-0.49823	-0.0181152
2053.62	0.605103	5.88989e-06
2054.12	0.604279	4.75159e-05
2054.58	-0.499359	-0.0118286
2055.06	0.60498	3.9978e-06
2055.56	0.60434	2.79846e-05
2056.04	0.000219727	0.00584045
2056.5	0.604034	9.21631e-06
2057	0.604156	2.14844e-05
2057.48	0.000839233	0.00298767
2057.94	0.604736	2.47192e-06
2058.44	0.604553	1.3916e-05
2058.94	0.604614	0.0160583
2059.38	0.604034	7.78198e-06
2059.88	0.604401	1.09558e-05
2060.38	0.604675	0.000136841
2060.84	-0.498016	-0.0181183
2061.32	0.604462	8.81958e-06
2061.82	0.604279	4.71191e-05
2062.28	-0.498688	-0.01185
2062.76	0.604431	8.48389e-06
2063.26	0.605316	2.17896e-05
2063.74	0.000753784	0.00582733
2064.2	0.604065	1.02539e-05
2064.7	0.604279	1.96838e-05
2065.18	0.000759888	0.00298492
2065.64	0.604584	3.14331e-06
2066.14	0.604492	1.38245e-05
2066.64	0.603485	0.0160553
2067.08	0.605347	-9.76562e-07
2067.58	0.604553	1.09253e-05
2068.08	0.605255	0.000134338
2068.54	-0.498962	-0.0181274
2069.02	0.604614	8.08716e-06
2069.52	0.604248	4.7821e-05
2069.98	-0.499054	-0.0118622
2070.46	0.604828	4.91333e-06
2070.96	0.604187	2.84729e-05
2071.44	0.000357056	0.00581635
2071.9	0.604309	9.09424e-06
2072.4	0.605225	1.35803e-05
2072.88	-0.000375366	0.0029895
2073.34	0.605408	-7.62939e-07
2073.84	0.604156	1.63574e-05
2074.34	0.603485	0.0160736
2074.78	0.604126	8.8501e-06
2075.28	0.604248	1.3092e-05
2075.78	0.604828	0.000137238
2076.24	-0.498779	-0.0181519
2076.72	0.605225	3.63159e-06
2077.22	0.604309	4.74548e-05
2077.68	-0.498474	-0.0118866
2078.16	0.605286	2.04468e-06
2078.66	0.604126	3.07922e-05
2079.14	0.000576782	0.00580658
2079.6	0.604523	4.27246e-06
2080.1	0.604004	2.17285e-05
2080.58	-0.000259399	0.00298584
2081.04	0.603943	1.13831e-05
2081.54	0.604523	1.48926e-05
2082.04	0.60437	0.0160797
2082.48	0.605347	1.15967e-06
2082.98	0.604706	1.05591e-05
2083.48	0.604401	0.000141113
2083.94	-0.498352	-0.0181519
2084.42	0.604065	1.21765e-05
2084.92	0.605377	4.06494e-05
2085.38	-0.499512	-0.0118866
2085.86	0.605408	9.46045e-07
2086.36	0.603973	3.02734e-05
2086.84	0.000790405	0.00580475
2087.3	0.605377	2.16675e-06
2087.8	0.605255	1.37939e-05
2088.28	0.000839233	0.00298218
2088.74	0.604034	8.97217e-06
2089.24	0.604614	1.32751e-05
2089.74	0.604462	0.016098
2090.18	0.604004	8.45337e-06
2090.68	0.604126	1.37634e-05
2091.18	0.605072	0.000135986
2091.64	-0.497925	-0.018158
2092.12	0.604156	1.18713e-05
2092.62	0.604279	4.77905e-05
2093.08	-0.499359	-0.0119141
2093.56	0.604828	2.50244e-06
2094.06	0.605377	2.21252e-05
2094.54	0.000662231	0.00579559
2095	0.605408	5.49316e-07
2095.5	0.605347	1.27258e-05
2095.98	0.000540161	0.00298218
2096.44	0.605347	9.76562e-07
2096.94	0.604889	1.21765e-05
2097.44	0.603851	0.0161011
2097.88	0.60434	6.80542e-06
2098.38	0.605377	4.66919e-06
2098.88	0.605377	0.000137054
2099.34	-0.498718	-0.0181671
2099.82	0.605072	3.60107e-06
2100.32	0.604187	4.87976e-05
2100.78	-0.49823	-0.0119293
2101.26	0.604218	7.14111e-06
2101.76	0.605347	2.10876e-05
2102.24	0.000299072	0.00578674
2102.7	0.604584	5.76782e-06
2103.2	0.60434	1.97754e-05
2103.68	-0.00038147	0.00298401
2104.14	0.60434	6.34766e-06
2104.64	0.604248	1.49841e-05
2105.14	0.604218	0.0161133
2105.58	0.605408	-7.01904e-07
2106.08	0.605469	5.18799e-06
2106.58	0.605042	0.000140808
2107.04	-0.499054	-0.0181793
2107.52	0.604492	1.10168e-05
2108.02	0.604065	4.96826e-05
2108.48	-0.49942	-0.0119476
2108.96	0.604309	7.44629e-06
2109.46	0.604645	2.52991e-05
2109.94	2.74658e-05	0.00577667
2110.4	0.605011	3.14331e-06
2110.9	0.605042	1.59302e-05
2111.38	-0.000421143	0.00297638
2111.84	0.604645	3.9978e-06
2112.34	0.605408	7.78198e-06
2112.84	0.603333	0.0161285
2113.28	0.605286	-7.32422e-07
2113.78	0.603973	1.30615e-05
2114.28	0.604126	0.000147827
2114.74	-0.498688	-0.0181763
2115.22	0.604065	1.31531e-05
2115.72	0.604889	4.47998e-05
2116.18	-0.498596	-0.0119629
2116.66	0.604309	9.49097e-06
2117.16	0.60434	2.99072e-05
2117.64	-0.000280762	0.00576263
2118.1	0.605011	1.77002e-06
2118.6	0.605408	1.26953e-05
2119.08	0.000689697	0.00296417
2119.54	0.604462	3.75366e-06
2120.04	0.604828	1.14441e-05
2120.54	0.604187	0.0161438
2120.98	0.604187	7.26318e-06
2121.48	0.605011	8.97217e-06
2121.98	0.604797	0.000145844
2122.44	-0.499176	-0.0181885
2122.92	0.604034	1.25122e-05
2123.42	0.604004	5.05066e-05
2123.88	-0.499207	-0.0119873
2124.36	0.605133	3.02124e-06
2124.86	0.605011	2.49939e-05
2125.34	0.000808716	0.00574982
2125.8	0.604523	6.62231e-06
2126.3	0.60434	2.20337e-05
2126.78	0.00045166	0.00297302
2127.24	0.60498	3.02124e-06
2127.74	0.604462	1.29395e-05
2128.24	0.604156	0.016153
2128.68	0.604462	4.30298e-06
2129.18	0.604523	1.15051e-05
2129.68	0.60498	0.000145905
2130.14	-0.498413	-0.0182098
2130.62	0.605286	4.45557e-06
2131.12	0.604767	4.32129e-05
2131.58	-0.498749	-0.0119904
2132.06	0.604492	7.93457e-06
2132.56	0.605286	2.41699e-05
2133.04	-0.000479126	0.00574493
2133.5	0.604156	8.88062e-06
2134	0.604584	1.9043e-05
2134.48	0.00065918	0.002966
2134.94	0.605103	1.49536e-06
2135.44	0.605164	8.63647e-06
2135.94	0.60434	0.0161652
2136.38	0.605316	-3.35693e-07
2136.88	0.604584	1.04065e-05
2137.38	0.604004	0.000152008
2137.84	-0.498779	-0.0182037
2138.32	0.605194	4.76074e-06
2138.82	0.605408	4.10156e-05
2139.28	-0.499573	-0.0120148
2139.76	0.60495	3.87573e-06
2140.26	0.605286	2.14844e-05
2140.74	0.000338745	0.00574768
2141.2	0.604858	4.88281e-06
2141.7	0.605286	1.43127e-05
2142.18	-0.000274658	0.00297607
2142.64	0.605225	-5.79834e-07
2143.14	0.604462	1.42212e-05
2143.64	0.604034	0.0161652
2144.08	0.604004	7.8125e-06
2144.58	0.605042	7.2937e-06
2145.08	0.604065	0.000152924
2145.54	-0.498688	-0.0182129
2146.02	0.605347	3.11279e-06
2146.52	0.605316	4.13818e-05
2146.98	-0.498993	-0.01203
2147.46	0.605347	1.70898e-06
2147.96	0.604156	2.95105e-05
2148.44	0.000271606	0.00574005
2148.9	0.605103	2.59399e-06
2149.4	0.604889	1.59607e-05
2149.88	0.000848389	0.00296265
2150.34	0.604523	6.2561e-06
2150.84	0.605164	9.00269e-06
2151.34	0.604218	0.0161774
2151.78	0.604706	4.57764e-06
2152.28	0.604065	1.44043e-05
2152.78	0.605316	0.000147339
2153.24	-0.498535	-0.0182251
2153.72	0.604584	1.06201e-05
2154.22	0.605255	4.15649e-05
2154.68	-0.499481	-0.0120514
2155.16	0.605286	2.28882e-06
2155.66	0.604248	2.78625e-05
2156.14	0.000588989	0.0057254
2156.6	0.60434	6.43921e-06
2157.1	0.604736	1.77307e-05
2157.58	0.000857544	0.00295929
2158.04	0.604889	3.57056e-06
2158.54	0.605347	8.42285e-06
2159.04	0.60379	0.0161896
2159.48	0.605164	-2.01416e-06
2159.98	0.604492	9.79614e-06
2160.48	0.604034	0.000157745
2160.94	-0.498779	-0.0182343
2161.42	0.604309	1.12e-05
2161.92	0.605225	4.19617e-05
2162.38	-0.49881	-0.0120789
2162.86	0.605011	3.96729e-06
2163.36	0.604828	2.45972e-05
2163.84	0.000491333	0.00571472
2164.3	0.604797	3.14331e-06
2164.8	0.605072	1.47095e-05
2165.28	0.00015564	0.00295807
2165.74	0.605164	2.7771e-06
2166.24	0.605225	9.52148e-06
2166.74	0.603394	0.0162018
2167.18	0.604156	8.05664e-06
2167.68	0.604126	1.33667e-05
2168.18	0.604675	0.000155396
2168.64	-0.499176	-0.0182556
2169.12	0.604767	6.46973e-06
2169.62	0.605194	4.29688e-05
2170.08	-0.498413	-0.0121002
2170.56	0.60437	6.92749e-06
2171.06	0.604645	2.60315e-05
2171.54	-0.000515747	0.00571289
2172	0.603943	9.8877e-06
2172.5	0.604492	1.84937e-05
2172.98	0.000881958	0.00295593
2173.44	0.604584	5.27954e-06
2173.94	0.605255	8.88062e-06
2174.44	0.603455	0.016214
2174.88	0.605347	-3.66211e-07
2175.38	0.604095	1.39465e-05
2175.88	0.605164	0.000154663
2176.34	-0.499298	-0.0182709
2176.82	0.604095	1.3092e-05
2177.32	0.604706	4.67834e-05
2177.78	-0.49942	-0.0121246
2178.26	0.605377	3.26538e-06
2178.76	0.604797	2.49023e-05
2179.24	0.000213623	0.00569977
2179.7	0.605194	2.99072e-06
2180.2	0.605347	1.30005e-05
2180.68	0.000527954	0.00295166
2181.14	0.604248	6.5918e-06
2181.64	0.604645	1.26343e-05
2182.14	0.603821	0.0162323
2182.58	0.604126	7.08008e-06
2183.08	0.604309	1.42212e-05
2183.58	0.604126	0.000164154
2184.04	-0.499298	-0.0182831
2184.52	0.604401	1.19019e-05
2185.02	0.605164	4.27246e-05
2185.48	-0.499054	-0.0121338
2185.96	0.604034	1.13831e-05
2186.46	0.604034	3.13416e-05
2186.94	-0.000491333	0.00569458
2187.4	0.604248	8.27026e-06
2187.9	0.604065	2.27661e-05
2188.38	0.000241089	0.00294891
2188.84	0.604614	4.30298e-06
2189.34	0.60495	1.31531e-05
2189.84	0.603302	0.0162354
2190.28	0.604095	8.45337e-06
2190.78	0.605103	6.01196e-06
2191.28	0.605347	0.000158539
2191.74	-0.498108	-0.0182983
2192.22	0.605225	4.18091e-06
2192.72	0.604614	4.8645e-05
2193.18	-0.499268	-0.0121399
2193.66	0.604919	4.39453e-06
2194.16	0.604126	2.83508e-05
2194.64	0.000689697	0.00568329
2195.1	0.604431	7.72095e-06
2195.6	0.604706	1.92871e-05
2196.08	0.000637817	0.00294464
2196.54	0.604919	3.66211e-06
2197.04	0.604492	1.46179e-05
2197.54	0.604431	0.0162354
2197.98	0.604187	7.41577e-06
2198.48	0.604034	1.32446e-05
2198.98	0.604309	0.000166748
2199.44	-0.498322	-0.0183044
2199.92	0.604919	6.01196e-06
2200.42	0.604095	5.20325e-05
2200.88	-0.499359	-0.0121704
2201.36	0.604309	8.17871e-06
2201.86	0.605042	2.16675e-05
2202.34	0.000546265	0.0056665
2202.8	0.604034	1.00403e-05
2203.3	0.604523	1.95923e-05
2203.78	0.000845337	0.00294861
2204.24	0.605408	6.40869e-07
2204.74	0.604156	1.63269e-05
2205.24	0.603271	0.0162567
2205.68	0.604126	8.14819e-06
2206.18	0.605377	4.45557e-06
2206.68	0.605408	0.000160248
2207.14	-0.499084	-0.0183044
2207.62	0.604553	8.23975e-06
2208.12	0.604736	4.89807e-05
2208.58	-0.499481	-0.0121796
2209.06	0.604095	1.04065e-05
2209.56	0.605408	2.14539e-05
2210.04	-0.000442505	0.00567749
2210.5	0.605316	3.96729e-07
2211	0.605347	1.34888e-05
2211.48	-8.8501e-05	0.00295715
2211.94	0.60434	8.27026e-06
2212.44	0.604218	1.55029e-05
2212.94	0.604462	0.0162598
2213.38	0.60495	1.98364e-06
2213.88	0.604584	1.10779e-05
2214.38	0.605133	0.000166718
2214.84	-0.499146	-0.0183167
2215.32	0.604095	1.22986e-05
2215.82	0.604004	5.1239e-05
2216.28	-0.498291	-0.0122009
2216.76	0.605377	1.7395e-06
2217.26	0.605316	2.22473e-05
2217.74	-0.000357056	0.00566437
2218.2	0.604095	1.0498e-05
2218.7	0.604614	1.87073e-05
2219.18	0.000283813	0.00294464
2219.64	0.604187	8.27026e-06
2220.14	0.605286	9.00269e-06
2220.64	0.604614	0.016275
2221.08	0.605347	0
2221.58	0.604248	1.18103e-05
2222.08	0.604492	0.00017395
2222.54	-0.499298	-0.0183228
2223.02	0.604889	5.76782e-06
2223.52	0.60434	4.94385e-05
2223.98	-0.498322	-0.0122162
2224.46	0.604492	7.23267e-06
2224.96	0.605255	2.33459e-05
2225.44	-0.000363159	0.00565552
2225.9	0.604797	3.93677e-06
2226.4	0.604034	2.19116e-05
2226.88	0.000192261	0.00294861
2227.34	0.604614	5.88989e-06
2227.84	0.604156	1.67542e-05
2228.34	0.603363	0.0162964
2228.78	0.603973	9.09424e-06
2229.28	0.60495	7.84302e-06
2229.78	0.605286	0.000168243
2230.24	-0.499084	-0.0183289
2230.72	0.605286	4.02832e-06
2231.22	0.604034	5.13611e-05
2231.68	-0.499512	-0.0122131
2232.16	0.604462	8.02612e-06
2232.66	0.605133	2.49329e-05
2233.14	-5.18799e-05	0.00564728
2233.6	0.605347	-1.83105e-07
2234.1	0.604645	1.92566e-05
2234.58	0.000473022	0.0029483
2235.04	0.604187	4.91333e-06
2235.54	0.604034	1.72424e-05
2236.04	0.603882	0.0163055
2236.48	0.605194	2.68555e-06
2236.98	0.605011	7.17163e-06
2237.48	0.604401	0.000173309
2237.94	-0.498077	-0.0183167
2238.42	0.60498	6.53076e-06
2238.92	0.605255	4.24805e-05
2239.38	-0.499603	-0.012207
2239.86	0.604523	7.62939e-06
2240.36	0.605286	2.19116e-05
2240.84	-0.000143433	0.0056488
2241.3	0.605255	3.479e-06
2241.8	0.605316	1.38855e-05
2242.28	0.00038147	0.00294922
2242.74	0.605377	9.46045e-07
2243.24	0.604248	1.62354e-05
2243.74	0.603241	0.0163116
2244.18	0.604065	7.78198e-06
2244.68	0.604492	1.14746e-05
2245.18	0.60437	0.000175812
2245.64	-0.499237	-0.0183136
2246.12	0.60437	9.24683e-06
2246.62	0.604309	4.84619e-05
2247.08	-0.498566	-0.0122253
2247.56	0.604736	4.45557e-06
2248.06	0.605255	2.28882e-05
2248.54	-0.000183105	0.00563538
2249	0.605164	2.86865e-06
2249.5	0.604095	2.20337e-05
2249.98	-0.000320435	0.00294678
2250.44	0.604034	8.42285e-06
2250.94	0.605072	1.15051e-05
2251.44	0.604065	0.0163208
2251.88	0.604462	4.69971e-06
2252.38	0.604645	9.79614e-06
2252.88	0.605347	0.000172882
2253.34	-0.49823	-0.0183228
2253.82	0.604767	9.67407e-06
2254.32	0.604797	4.60205e-05
2254.78	-0.499481	-0.0122375
2255.26	0.605347	1.34277e-06
2255.76	0.604034	3.15552e-05
2256.24	9.15527e-05	0.00562408
2256.7	0.604218	8.54492e-06
2257.2	0.604828	1.77917e-05
2257.68	0.000442505	0.00294189
2258.14	0.604095	8.30078e-06
2258.64	0.604004	1.828e-05
2259.14	0.60434	0.01633
2259.58	0.604401	5.79834e-06
2260.08	0.603912	1.54724e-05
2260.58	0.604889	0.000177246
2261.04	-0.499359	-0.018335
2261.52	0.604004	1.37024e-05
2262.02	0.604187	5.09949e-05
2262.48	-0.498657	-0.012265
2262.96	0.604065	1.17493e-05
2263.46	0.60498	2.53601e-05
2263.94	0.000588989	0.0056076
2264.4	0.605072	2.0752e-06
2264.9	0.604309	2.12708e-05
2265.38	-0.000360107	0.00293671
2265.84	0.604736	5.64575e-06
2266.34	0.605286	7.26318e-06
2266.84	0.60437	0.0163391
2267.28	0.605194	1.06812e-06
2267.78	0.604126	1.33972e-05
2268.28	0.605316	0.00017981
2268.74	-0.498627	-0.0183563
2269.22	0.605347	4.82178e-06
2269.72	0.605133	4.48914e-05
2270.18	-0.499542	-0.0122833
2270.66	0.604034	1.24512e-05
2271.16	0.60434	2.99377e-05
2271.64	0.000701904	0.00559692
2272.1	0.604004	9.82666e-06
2272.6	0.605072	1.33972e-05
2273.08	0.000131226	0.00294067
2273.54	0.603973	9.27734e-06
2274.04	0.605225	9.00269e-06
2274.54	0.60318	0.0163544
2274.98	0.604034	8.30078e-06
2275.48	0.605286	6.01196e-06
2275.98	0.604065	0.000190826
2276.44	-0.498169	-0.0183533
2276.92	0.604218	1.14746e-05
2277.42	0.604919	4.50134e-05
2277.88	-0.499146	-0.0123047
2278.36	0.604065	1.19629e-05
2278.86	0.603912	3.05176e-05
2279.34	0.000897217	0.00559113
2279.8	0.604309	8.27026e-06
2280.3	0.604248	2.13623e-05
2280.78	0.000128174	0.00292999
2281.24	0.604187	7.23267e-06
2281.74	0.604645	1.35498e-05
2282.24	0.603638	0.0163666
2282.68	0.605316	0
2283.18	0.605286	6.2561e-06
2283.68	0.604187	0.000194641
2284.14	-0.498993	-0.0183594
2284.62	0.604034	1.23596e-05
2285.12	0.605469	4.28467e-05
2285.58	-0.498444	-0.0123169
2286.06	0.605316	1.92261e-06
2286.56	0.60498	2.46887e-05
2287.04	0.000585937	0.00558044
2287.5	0.60498	3.41797e-06
2288	0.604248	2.11182e-05
2288.48	0.000305176	0.00293152
2288.94	0.604279	7.1106e-06
2289.44	0.604889	1.32141e-05
2289.94	0.604279	0.0163666
2290.38	0.604187	6.46973e-06
2290.88	0.605286	5.61523e-06
2291.38	0.605377	0.000187531
2291.84	-0.498444	-0.0183807
2292.32	0.604248	1.05591e-05
2292.82	0.605042	4.64783e-05
2293.28	-0.498322	-0.0123322
2293.76	0.604126	1.02234e-05
2294.26	0.604797	2.57263e-05
2294.74	3.05176e-06	0.00558197
2295.2	0.604553	7.75146e-06
2295.7	0.604034	2.23083e-05
2296.18	0.000189209	0.00293121
2296.64	0.60495	2.22778e-06
2297.14	0.604034	1.80359e-05
2297.64	0.604156	0.0163849
2298.08	0.605377	-1.5564e-06
2298.58	0.60437	1.22986e-05
2299.08	0.605255	0.000190155
2299.54	-0.499207	-0.0183807
2300.02	0.604553	8.78906e-06
2300.52	0.604401	5.06592e-05
2300.98	-0.498291	-0.0123413
2301.46	0.605042	4.66919e-06
2301.96	0.605164	2.47498e-05
2302.44	0.000689697	0.00556946
2302.9	0.604645	8.17871e-06
2303.4	0.605225	1.43127e-05
2303.88	0.000726318	0.00292603
2304.34	0.605469	7.01904e-07
2304.84	0.604492	1.37634e-05
2305.34	0.60321	0.016394
2305.78	0.604034	7.78198e-06
2306.28	0.60437	1.2085e-05
2306.5	0.604218	7.2937e-06