File: Edgar/20240605/20240605/electrodeposition_pulsed_potential_20240605_A/pulses_5000_to_6000.txt
Time (s)	WE(1).Potential (V)	WE(1).Current (A)
3743.89	-0.497955	-0.019046
3744.37	0.605408	5.31006e-06
3744.87	0.605072	7.26624e-05
3745.33	-0.498901	-0.0140503
3745.81	0.604248	1.11084e-05
3746.31	0.604584	3.77197e-05
3746.79	0.000836182	0.00431213
3747.25	0.604279	9.3689e-06
3747.75	0.604065	2.83508e-05
3748.23	0.00093689	0.00243256
3748.69	0.605286	1.64795e-06
3749.19	0.605316	1.23901e-05
3749.69	0.604095	0.0173035
3750.13	0.605377	-2.44141e-07
3750.63	0.605255	9.552e-06
3751.13	0.604309	0.00810547
3751.59	-0.498077	-0.019101
3752.07	0.605133	7.56836e-06
3752.57	0.604797	7.75146e-05
3753.03	-0.498718	-0.014032
3753.51	0.604095	1.27258e-05
3754.01	0.605072	3.28064e-05
3754.49	-6.40869e-05	0.0043457
3754.95	0.605042	6.40869e-06
3755.45	0.604431	2.46582e-05
3755.93	0.000753784	0.002453
3756.39	0.605103	1.95313e-06
3756.89	0.604065	2.14539e-05
3757.39	0.603363	0.017334
3757.83	0.604889	3.78418e-06
3758.33	0.603973	1.67847e-05
3758.83	0.604614	0.00819702
3759.29	-0.497955	-0.019104
3759.77	0.604095	1.40381e-05
3760.27	0.605225	7.54395e-05
3760.73	-0.499207	-0.014032
3761.21	0.605316	5.00488e-06
3761.71	0.605438	3.20129e-05
3762.19	0.000738525	0.00434296
3762.65	0.604706	6.95801e-06
3763.15	0.605225	1.97144e-05
3763.63	0.000354004	0.00246094
3764.09	0.604584	6.56128e-06
3764.59	0.604584	1.71509e-05
3765.09	0.603333	0.017337
3765.53	0.604034	1.0437e-05
3766.03	0.604553	1.52283e-05
3766.53	0.60376	0.00826416
3766.99	-0.498779	-0.019104
3767.47	0.604248	1.27869e-05
3767.97	0.604279	8.13904e-05
3768.43	-0.498962	-0.0140533
3768.91	0.604156	1.31531e-05
3769.41	0.604248	3.91846e-05
3769.89	0.000448608	0.00434631
3770.35	0.604218	1.08948e-05
3770.85	0.605408	1.84937e-05
3771.33	0.000784302	0.00246429
3771.79	0.604034	1.05286e-05
3772.29	0.604065	2.05078e-05
3772.79	0.604401	0.017337
3773.23	0.604095	9.33838e-06
3773.73	0.605072	1.10779e-05
3774.23	0.603821	0.00830688
3774.69	-0.499207	-0.0190918
3775.17	0.604095	1.45569e-05
3775.67	0.604065	8.34961e-05
3776.13	-0.499451	-0.0140472
3776.61	0.605011	6.16455e-06
3777.11	0.605347	3.37219e-05
3777.59	0.000814819	0.00433899
3778.05	0.604492	1.03455e-05
3778.55	0.604492	2.58179e-05
3779.03	0.000741577	0.00246002
3779.49	0.604279	7.90405e-06
3779.99	0.605377	1.25732e-05
3780.49	0.604156	0.0173431
3780.93	0.604034	9.552e-06
3781.43	0.604492	1.14746e-05
3781.93	0.60437	0.00835266
3782.39	-0.498077	-0.0191101
3782.87	0.604095	1.44653e-05
3783.37	0.604034	8.44727e-05
3783.83	-0.498779	-0.0140533
3784.31	0.60495	7.14111e-06
3784.81	0.604126	4.27246e-05
3785.29	-6.71387e-05	0.00433472
3785.75	0.604675	7.87354e-06
3786.25	0.604034	2.84119e-05
3786.73	0.000595093	0.00245911
3787.19	0.605225	1.92261e-06
3787.69	0.604736	1.74866e-05
3788.19	0.603363	0.0173492
3788.63	0.604034	8.05664e-06
3789.13	0.604156	1.63879e-05
3789.63	0.603821	0.0084137
3790.09	-0.498688	-0.0191101
3790.57	0.604034	1.45569e-05
3791.07	0.604065	8.55713e-05
3791.53	-0.499237	-0.0140503
3792.01	0.605408	2.83813e-06
3792.51	0.605347	3.33862e-05
3792.99	-0.000427246	0.00433228
3793.45	0.605011	6.01196e-06
3793.95	0.604095	2.6825e-05
3794.43	-9.46045e-05	0.00245728
3794.89	0.604248	9.58252e-06
3795.39	0.605255	1.13525e-05
3795.89	0.603546	0.0173431
3796.33	0.605347	4.27246e-07
3796.83	0.605225	9.30786e-06
3797.33	0.603699	0.00844727
3797.79	-0.498596	-0.0191132
3798.27	0.605408	6.16455e-06
3798.77	0.604065	8.51746e-05
3799.23	-0.49942	-0.0140656
3799.71	0.604584	1.03455e-05
3800.21	0.604156	4.03748e-05
3800.69	-5.49316e-05	0.00432678
3801.15	0.604675	7.23267e-06
3801.65	0.604156	2.80457e-05
3802.13	-0.000125122	0.00246338
3802.59	0.604004	1.13525e-05
3803.09	0.605316	1.28479e-05
3803.59	0.604309	0.0173553
3804.03	0.604156	8.45337e-06
3804.53	0.604004	1.74561e-05
3805.03	0.604309	0.00850525
3805.49	-0.499207	-0.0191132
3805.97	0.60495	7.96509e-06
3806.47	0.604126	8.38928e-05
3806.93	-0.498871	-0.0140808
3807.41	0.604065	1.297e-05
3807.91	0.605255	3.22266e-05
3808.39	-0.000244141	0.00432831
3808.85	0.605133	4.21143e-06
3809.35	0.605103	2.09351e-05
3809.83	7.62939e-05	0.00246338
3810.29	0.604065	1.05896e-05
3810.79	0.604645	1.71509e-05
3811.29	0.60321	0.0173645
3811.73	0.604156	7.69043e-06
3812.23	0.604889	1.17798e-05
3812.73	0.60376	0.00853882
3813.19	-0.499054	-0.0191223
3813.67	0.605286	5.92041e-06
3814.17	0.605194	7.83081e-05
3814.63	-0.498413	-0.0140778
3815.11	0.604218	9.46045e-06
3815.61	0.604065	4.18091e-05
3816.09	-0.000106812	0.00432037
3816.55	0.604706	6.31714e-06
3817.05	0.60434	2.55127e-05
3817.53	0.000946045	0.00245514
3817.99	0.605042	4.02832e-06
3818.49	0.604614	1.83716e-05
3818.99	0.603302	0.0173645
3819.43	0.604065	9.67407e-06
3819.93	0.604095	1.67236e-05
3820.43	0.604614	0.00856628
3820.89	-0.498322	-0.0191406
3821.37	0.604034	1.44653e-05
3821.87	0.604034	8.62122e-05
3822.33	-0.498199	-0.0141022
3822.81	0.605316	4.60815e-06
3823.31	0.604095	4.28162e-05
3823.79	0.000552368	0.00431122
3824.25	0.604553	6.01196e-06
3824.75	0.605316	2.07214e-05
3825.23	0.000140381	0.00245178
3825.69	0.604675	7.53784e-06
3826.19	0.604065	2.12097e-05
3826.69	0.603119	0.0173645
3827.13	0.605347	5.49316e-07
3827.63	0.605408	8.3313e-06
3828.13	0.60379	0.00861816
3828.59	-0.499176	-0.0191315
3829.07	0.604828	8.48389e-06
3829.57	0.605164	7.89795e-05
3830.03	-0.499481	-0.0140991
3830.51	0.604401	8.75854e-06
3831.01	0.604004	4.15649e-05
3831.49	-0.000466919	0.00430969
3831.95	0.605255	3.41797e-06
3832.45	0.60437	2.55432e-05
3832.93	-0.00027771	0.00245605
3833.39	0.605316	1.34277e-06
3833.89	0.604126	2.17896e-05
3834.39	0.60376	0.0173584
3834.83	0.605286	-1.52588e-07
3835.33	0.605103	9.82666e-06
3835.83	0.604004	0.00864868
3836.29	-0.498077	-0.0191437
3836.77	0.604767	1.05286e-05
3837.27	0.604767	8.11157e-05
3837.73	-0.49939	-0.0141083
3838.21	0.605194	6.31714e-06
3838.71	0.60437	4.02222e-05
3839.19	0.00015564	0.00430206
3839.65	0.604645	5.82886e-06
3840.15	0.605377	1.96838e-05
3840.63	-0.00017395	0.00245514
3841.09	0.604065	1.1261e-05
3841.59	0.605225	1.41907e-05
3842.09	0.60437	0.0173615
3842.53	0.605133	2.80762e-06
3843.03	0.604126	1.66016e-05
3843.53	0.604675	0.00866394
3843.99	-0.498657	-0.0191437
3844.47	0.604095	1.49841e-05
3844.97	0.603973	8.64563e-05
3845.43	-0.498199	-0.0141205
3845.91	0.605072	4.66919e-06
3846.41	0.605255	3.3844e-05
3846.89	0.000183105	0.0042923
3847.35	0.604492	8.88062e-06
3847.85	0.604218	2.771e-05
3848.33	0.000234985	0.00244904
3848.79	0.60434	6.68335e-06
3849.29	0.604767	1.71509e-05
3849.79	0.604126	0.0173553
3850.23	0.605286	6.40869e-07
3850.73	0.604797	1.08337e-05
3851.23	0.60495	0.00870056
3851.69	-0.499146	-0.0191437
3852.17	0.604309	1.23596e-05
3852.67	0.605225	7.94678e-05
3853.13	-0.499298	-0.0141174
3853.61	0.605316	3.35693e-06
3854.11	0.604004	4.245e-05
3854.59	-0.000128174	0.00428619
3855.05	0.604095	1.1261e-05
3855.55	0.605316	1.98975e-05
3856.03	0.000744629	0.00244232
3856.49	0.604126	9.42993e-06
3856.99	0.604004	2.21863e-05
3857.49	0.603058	0.0173767
3857.93	0.605103	3.38745e-06
3858.43	0.604462	1.63574e-05
3858.93	0.60379	0.00874634
3859.39	-0.498596	-0.0191559
3859.87	0.604187	1.32141e-05
3860.37	0.605072	7.99255e-05
3860.83	-0.499481	-0.0141296
3861.31	0.605164	6.95801e-06
3861.81	0.604614	3.87878e-05
3862.29	0.00078125	0.00427643
3862.75	0.604767	6.37817e-06
3863.25	0.605194	2.08435e-05
3863.73	-0.00027771	0.00244141
3864.19	0.604889	4.02832e-06
3864.69	0.604065	2.05078e-05
3865.19	0.60434	0.0173645
3865.63	0.605316	9.46045e-07
3866.13	0.604065	1.77612e-05
3866.63	0.604126	0.00878601
3867.09	-0.499176	-0.0191528
3867.57	0.604279	1.39771e-05
3868.07	0.605194	7.9895e-05
3868.53	-0.498901	-0.0141388
3869.01	0.605133	4.54712e-06
3869.51	0.604126	4.29688e-05
3869.99	0.000167847	0.00427826
3870.45	0.60434	1.04675e-05
3870.95	0.605377	2.02026e-05
3871.43	-0.000354004	0.00244232
3871.89	0.604095	1.00403e-05
3872.39	0.605347	1.23291e-05
3872.89	0.603333	0.0173767
3873.33	0.604279	8.30078e-06
3873.83	0.605408	8.17871e-06
3874.33	0.60498	0.00880737
3874.79	-0.498352	-0.0191528
3875.27	0.605164	7.96509e-06
3875.77	0.605225	8.02612e-05
3876.23	-0.498199	-0.014151
3876.71	0.604095	1.34583e-05
3877.21	0.604675	3.71094e-05
3877.69	-0.000384521	0.00427521
3878.15	0.605194	3.50952e-06
3878.65	0.604095	2.89612e-05
3879.13	2.74658e-05	0.00243561
3879.59	0.604156	9.64355e-06
3880.09	0.604126	2.20032e-05
3880.59	0.603882	0.0173676
3881.03	0.604095	1.06812e-05
3881.53	0.604584	1.43433e-05
3882.03	0.603821	0.0088562
3882.49	-0.498749	-0.0191589
3882.97	0.604431	1.2085e-05
3883.47	0.604279	8.75244e-05
3883.93	-0.499512	-0.0141541
3884.41	0.604004	1.15662e-05
3884.91	0.604126	4.27246e-05
3885.39	-0.000445557	0.00426727
3885.85	0.604584	6.46973e-06
3886.35	0.604614	2.50244e-05
3886.83	-0.000253296	0.00243378
3887.29	0.605133	3.32642e-06
3887.79	0.605347	1.28479e-05
3888.29	0.604492	0.0173737
3888.73	0.604126	8.75854e-06
3889.23	0.604156	1.80359e-05
3889.73	0.60437	0.00886841
3890.19	-0.49826	-0.0191742
3890.67	0.605194	7.59888e-06
3891.17	0.605042	8.20618e-05
3891.63	-0.498291	-0.0141663
3892.11	0.604218	1.14136e-05
3892.61	0.604523	3.98254e-05
3893.09	-0.000332642	0.00426056
3893.55	0.605133	3.78418e-06
3894.05	0.604675	2.4292e-05
3894.53	-0.000256348	0.00243439
3894.99	0.604248	6.28662e-06
3895.49	0.604218	2.13623e-05
3895.99	0.60321	0.0173798
3896.43	0.604919	2.65503e-06
3896.93	0.603943	1.84021e-05
3897.43	0.604736	0.00890198
3897.89	-0.49884	-0.019162
3898.37	0.604279	1.40076e-05
3898.87	0.605042	8.19702e-05
3899.33	-0.498352	-0.0141663
3899.81	0.605316	4.24194e-06
3900.31	0.605408	3.39966e-05
3900.79	-0.000286865	0.00426025
3901.25	0.604675	7.32422e-06
3901.75	0.604095	2.81677e-05
3902.23	9.15527e-05	0.00243164
3902.69	0.604767	4.42505e-06
3903.19	0.605316	1.30615e-05
3903.69	0.603882	0.017395
3904.13	0.604614	3.26538e-06
3904.63	0.604584	1.43127e-05
3905.13	0.60379	0.0089325
3905.59	-0.498871	-0.0191681
3906.07	0.604156	1.44653e-05
3906.57	0.604309	8.81958e-05
3907.03	-0.498596	-0.0141815
3907.51	0.604248	9.82666e-06
3908.01	0.604065	4.26025e-05
3908.49	0.0006073	0.00424225
3908.95	0.605194	3.93677e-06
3909.45	0.604156	2.55432e-05
3909.93	0.000784302	0.00242493
3910.39	0.60498	3.75366e-06
3910.89	0.605286	1.2146e-05
3911.39	0.604218	0.0173737
3911.83	0.605286	3.05176e-08
3912.33	0.604034	1.74866e-05
3912.83	0.60434	0.00895386
3913.29	-0.498688	-0.0191803
3913.77	0.604279	1.38245e-05
3914.27	0.604034	9.04846e-05
3914.73	-0.498871	-0.0141876
3915.21	0.604218	1.30615e-05
3915.71	0.604187	4.21753e-05
3916.19	0.000601196	0.00423645
3916.65	0.604889	7.23267e-06
3917.15	0.604187	2.82593e-05
3917.63	-0.000384521	0.00242767
3918.09	0.604431	8.17871e-06
3918.59	0.604065	2.18506e-05
3919.09	0.603302	0.0173981
3919.53	0.604034	8.81958e-06
3920.03	0.604645	1.51367e-05
3920.53	0.60498	0.00898132
3920.99	-0.499115	-0.0191895
3921.47	0.604858	1.07422e-05
3921.97	0.604919	8.4137e-05
3922.43	-0.499451	-0.0141846
3922.91	0.604156	1.30615e-05
3923.41	0.605103	3.6377e-05
3923.89	-0.000469971	0.00424164
3924.35	0.605347	2.86865e-06
3924.85	0.605164	2.09045e-05
3925.33	-0.000387573	0.00242493
3925.79	0.605011	4.48608e-06
3926.29	0.604004	2.2583e-05
3926.79	0.604492	0.017395
3927.23	0.604614	6.31714e-06
3927.73	0.604492	1.41296e-05
3928.23	0.605011	0.00900269
3928.69	-0.497864	-0.0191956
3929.17	0.604034	1.54724e-05
3929.67	0.604034	9.09729e-05
3930.13	-0.499573	-0.0141968
3930.61	0.604584	6.7749e-06
3931.11	0.604279	4.20532e-05
3931.59	0.000668335	0.0042276
3932.05	0.604431	8.78906e-06
3932.55	0.605286	1.953125E-05
3933.03	1.52588e-05	0.00242218
3933.49	0.605316	1.92261e-06
3933.99	0.604065	2.16064e-05
3934.49	0.604309	0.0173981
3934.93	0.604309	7.47681e-06
3935.43	0.60437	1.68457e-05
3935.93	0.604065	0.00903931
3936.39	-0.497955	-0.0192017
3936.87	0.605286	6.073e-06
3937.37	0.605286	8.3252e-05
3937.83	-0.499084	-0.014209
3938.31	0.605316	5.06592e-06
3938.81	0.605316	3.44238e-05
3939.29	0.00062561	0.00421875
3939.75	0.604004	1.13525e-05
3940.25	0.605011	2.23694e-05
3940.73	0.000872803	0.00240814
3941.19	0.604279	7.87354e-06
3941.69	0.605042	1.55334e-05
3942.19	0.604309	0.017395
3942.63	0.604034	8.97217e-06
3943.13	0.605194	1.13831e-05
3943.63	0.604248	0.00907288
3944.09	-0.497894	-0.0192078
3944.57	0.604462	1.26343e-05
3945.07	0.604797	8.8562e-05
3945.53	-0.499329	-0.014209
3946.01	0.604431	1.00708e-05
3946.51	0.605377	3.43323e-05
3946.99	-0.000335693	0.00421875
3947.45	0.604218	1.08643e-05
3947.95	0.604309	2.70081e-05
3948.43	0.000366211	0.00240936
3948.89	0.604065	1.04675e-05
3949.39	0.605194	1.39771e-05
3949.89	0.603241	0.0174042
3950.33	0.605347	2.13623e-07
3950.83	0.604736	1.27869e-05
3951.33	0.60379	0.00910645
3951.79	-0.498871	-0.0192078
3952.27	0.604462	1.297e-05
3952.77	0.604614	8.77991e-05
3953.23	-0.499084	-0.0142303
3953.71	0.604462	1.0437e-05
3954.21	0.604919	3.76587e-05
3954.69	-0.000268555	0.00420746
3955.15	0.604309	9.46045e-06
3955.65	0.604004	2.94189e-05
3956.13	0.000570679	0.0024054
3956.59	0.605225	2.01416e-06
3957.09	0.604126	2.18506e-05
3957.59	0.603088	0.0174042
3958.03	0.605316	1.37329e-06
3958.53	0.604034	1.69983e-05
3959.03	0.604614	0.00912476
3959.49	-0.497986	-0.0192169
3959.97	0.604492	9.8877e-06
3960.47	0.604309	9.12476e-05
3960.93	-0.499481	-0.0142303
3961.41	0.605103	5.76782e-06
3961.91	0.605286	3.43323e-05
3962.39	-0.000314331	0.00420593
3962.85	0.604095	9.21631e-06
3963.35	0.604584	2.45972e-05
3963.83	-0.000302124	0.0024057
3964.29	0.604034	1.00098e-05
3964.79	0.604614	1.95007e-05
3965.29	0.603363	0.0174042
3965.73	0.605377	1.77002e-06
3966.23	0.604248	1.62354e-05
3966.73	0.603943	0.00917053
3967.19	-0.498383	-0.0192261
3967.67	0.605286	5.85937e-06
3968.17	0.604095	9.48181e-05
3968.63	-0.49942	-0.0142487
3969.11	0.604858	6.7749e-06
3969.61	0.604858	3.85132e-05
3970.09	-0.000137329	0.00419678
3970.55	0.604279	9.91821e-06
3971.05	0.604095	2.92053e-05
3971.53	0.000222778	0.00239899
3971.99	0.604187	7.62939e-06
3972.49	0.604614	1.7334e-05
3972.99	0.603546	0.0174072
3973.43	0.605316	1.46484e-06
3973.93	0.604126	1.87988e-05
3974.43	0.604095	0.00918884
3974.89	-0.497833	-0.0192322
3975.37	0.605286	5.34058e-06
3975.87	0.605225	8.61511e-05
3976.33	-0.49939	-0.0142456
3976.81	0.605286	4.24194e-06
3977.31	0.605255	3.44849e-05
3977.79	0.000622559	0.00418457
3978.25	0.605225	3.90625e-06
3978.75	0.605286	2.12402e-05
3979.23	0.00010376	0.00239929
3979.69	0.605072	3.32642e-06
3980.19	0.604889	1.61133e-05
3980.69	0.604462	0.0173981
3981.13	0.604828	2.10571e-06
3981.63	0.604034	1.80664e-05
3982.13	0.60379	0.00921631
3982.59	-0.498138	-0.0192291
3983.07	0.605255	6.62231e-06
3983.57	0.605011	8.88367e-05
3984.03	-0.498383	-0.0142487
3984.51	0.604797	5.88989e-06
3985.01	0.604156	4.39758e-05
3985.49	-1.2207e-05	0.00418732
3985.95	0.605011	4.21143e-06
3986.45	0.605103	2.45361e-05
3986.93	-0.00020752	0.00240234
3987.39	0.605286	1.49536e-06
3987.89	0.604523	1.93176e-05
3988.39	0.604248	0.0174042
3988.83	0.60498	3.20435e-06
3989.33	0.605164	8.60596e-06
3989.83	0.603638	0.0092041
3990.29	-0.499084	-0.01922
3990.77	0.603973	1.40991e-05
3991.27	0.604065	9.49402e-05
3991.73	-0.49826	-0.0142639
3992.21	0.605133	5.27954e-06
3992.71	0.605164	3.49731e-05
3993.19	0.000204468	0.0041864
3993.65	0.604218	8.63647e-06
3994.15	0.605164	2.19727e-05
3994.63	0.000708008	0.00239471
3995.09	0.605194	2.71606e-06
3995.59	0.605103	1.44958e-05
3996.09	0.603516	0.0174072
3996.53	0.604492	5.82886e-06
3997.03	0.605347	8.45337e-06
3997.53	0.604004	0.00921326
3997.99	-0.499084	-0.019223
3998.47	0.604034	1.44653e-05
3998.97	0.603973	9.59778e-05
3999.43	-0.499115	-0.0142487
3999.91	0.604553	9.52148e-06
4000.41	0.605347	3.54309e-05
4000.89	-5.79834e-05	0.00418121
4001.35	0.604858	7.2937e-06
4001.85	0.604218	2.71912e-05
4002.33	-0.000140381	0.00239868
4002.79	0.604645	8.36182e-06
4003.29	0.605011	1.51672e-05
4003.79	0.603241	0.0174194
4004.23	0.605286	8.23975e-07
4004.73	0.604645	1.40686e-05
4005.23	0.604004	0.00923462
4005.69	-0.497986	-0.019223
4006.17	0.604584	1.31836e-05
4006.67	0.604797	8.89587e-05
4007.13	-0.49881	-0.0142639
4007.61	0.60434	1.1322e-05
4008.11	0.604736	3.79333e-05
4008.59	0.00039978	0.0041687
4009.05	0.605194	3.54004e-06
4009.55	0.604248	2.81982e-05
4010.03	0.000582886	0.00238953
4010.49	0.60434	7.75146e-06
4010.99	0.604156	2.15149e-05
4011.49	0.604523	0.0174103
4011.93	0.604126	1.01624e-05
4012.43	0.604614	1.46179e-05
4012.93	0.604797	0.00925598
4013.39	-0.498718	-0.0192261
4013.87	0.604523	1.17493e-05
4014.37	0.604248	9.35974e-05
4014.83	-0.498657	-0.0142609
4015.31	0.604156	1.32751e-05
4015.81	0.604523	4.07104e-05
4016.29	0.000363159	0.00416809
4016.75	0.605286	2.7771e-06
4017.25	0.60434	2.83813e-05
4017.73	0.000854492	0.00238617
4018.19	0.604004	9.82666e-06
4018.69	0.604248	2.29797e-05
4019.19	0.60437	0.0174194
4019.63	0.604156	9.18579e-06
4020.13	0.605377	9.06372e-06
4020.63	0.603668	0.00924377
4021.09	-0.499176	-0.0192108
4021.57	0.605072	7.53784e-06
4022.07	0.605164	8.79822e-05
4022.53	-0.499298	-0.014267
4023.01	0.604065	1.3031e-05
4023.51	0.604126	4.33655e-05
4023.99	0.000164795	0.00417145
4024.45	0.605347	3.78418e-06
4024.95	0.604034	2.99683e-05
4025.43	0.000805664	0.00238617
4025.89	0.604095	9.61304e-06
4026.39	0.605377	1.46179e-05
4026.89	0.60318	0.0174255
4027.33	0.604889	4.48608e-06
4027.83	0.604126	1.61133e-05
4028.33	0.604309	0.00925903
4028.79	-0.498474	-0.01922
4029.27	0.604187	1.33057e-05
4029.77	0.604156	9.56726e-05
4030.23	-0.499451	-0.01427
4030.71	0.605164	5.27954e-06
4031.21	0.605377	3.57666e-05
4031.69	-0.000256348	0.00416168
4032.15	0.604126	1.06506e-05
4032.65	0.60434	2.80762e-05
4033.13	0.000631714	0.00238251
4033.59	0.605011	3.50952e-06
4034.09	0.604034	2.33765e-05
4034.59	0.603149	0.0174286
4035.03	0.604218	9.30786e-06
4035.53	0.604065	1.86768e-05
4036.03	0.604065	0.00929871
4036.49	-0.499023	-0.0192169
4036.97	0.605286	8.27026e-06
4037.47	0.604279	9.48792e-05
4037.93	-0.499451	-0.0142792
4038.41	0.604706	7.08008e-06
4038.91	0.605225	3.70483e-05
4039.39	-0.000308228	0.00415619
4039.85	0.604401	7.35474e-06
4040.35	0.605255	2.32239e-05
4040.83	0.000610352	0.00237976
4041.29	0.605164	2.89917e-06
4041.79	0.60498	1.54114e-05
4042.29	0.603912	0.0174377
4042.73	0.604401	6.16455e-06
4043.23	0.604218	1.63574e-05
4043.73	0.604797	0.00932617
4044.19	-0.499023	-0.0192322
4044.67	0.604462	1.24817e-05
4045.17	0.604401	9.4635e-05
4045.63	-0.49881	-0.0142883
4046.11	0.60437	9.27734e-06
4046.61	0.604401	4.08936e-05
4047.09	-0.000445557	0.00414795
4047.55	0.60498	6.34766e-06
4048.05	0.604858	2.50244e-05
4048.53	-0.000274658	0.00238098
4048.99	0.605286	1.52588e-06
4049.49	0.603973	2.26746e-05
4049.99	0.604126	0.0174194
4050.43	0.604462	5.40161e-06
4050.93	0.604126	1.73645e-05
4051.43	0.604767	0.0093689
4051.89	-0.498566	-0.0192352
4052.37	0.604095	1.48926e-05
4052.87	0.605347	8.77075e-05
4053.33	-0.498505	-0.0142944
4053.81	0.605316	4.79126e-06
4054.31	0.605011	3.65295e-05
4054.79	-0.000363159	0.004140625
4055.25	0.604279	1.0498e-05
4055.75	0.604553	2.65198e-05
4056.23	0.000875854	0.00236938
4056.69	0.605255	1.0376e-06
4057.19	0.604156	2.13928e-05
4057.69	0.603149	0.0174347
4058.13	0.605194	7.93457e-07
4058.63	0.604218	1.67542e-05
4059.13	0.60495	0.0093689
4059.59	-0.49823	-0.0192413
4060.07	0.604095	1.54419e-05
4060.57	0.604584	9.42993e-05
4061.03	-0.498779	-0.0142944
4061.51	0.604126	1.31531e-05
4062.01	0.605072	3.59497e-05
4062.49	0.000405884	0.00413208
4062.95	0.605225	3.41797e-06
4063.45	0.604034	2.93274e-05
4063.93	-0.000231934	0.00237579
4064.39	0.604401	6.89697e-06
4064.89	0.604553	1.94092e-05
4065.39	0.604279	0.0174194
4065.83	0.604248	7.72095e-06
4066.33	0.605255	1.12e-05
4066.83	0.604462	0.00939026
4067.29	-0.499023	-0.0192383
4067.77	0.604034	1.61743e-05
4068.27	0.605286	9.06982e-05
4068.73	-0.499146	-0.0143097
4069.21	0.605286	4.48608e-06
4069.71	0.604034	4.46777e-05
4070.19	1.83105e-05	0.00412903
4070.65	0.604492	8.11768e-06
4071.15	0.605377	2.06909e-05
4071.63	0.000869751	0.00236359
4072.09	0.604767	5.06592e-06
4072.59	0.605286	1.36414e-05
4073.09	0.603912	0.0174286
4073.53	0.604553	5.21851e-06
4074.03	0.604401	1.68457e-05
4074.53	0.60376	0.00942078
4074.99	-0.499176	-0.0192535
4075.47	0.605316	6.80542e-06
4075.97	0.605347	8.96912e-05
4076.43	-0.499512	-0.0143219
4076.91	0.604614	1.02844e-05
4077.41	0.605103	3.74756e-05
4077.89	0.000265503	0.00412903
4078.35	0.604309	9.79614e-06
4078.85	0.605133	2.28882e-05
4079.33	0.000872803	0.0023645
4079.79	0.60437	8.30078e-06
4080.29	0.604126	2.31628e-05
4080.79	0.603363	0.0174622
4081.23	0.605103	2.59399e-06
4081.73	0.604431	1.60522e-05
4082.23	0.603546	0.00938721
4082.69	-0.499146	-0.0192413
4083.17	0.605133	8.08716e-06
4083.67	0.604187	9.66187e-05
4084.13	-0.498291	-0.0143127
4084.61	0.604126	1.32751e-05
4085.11	0.60495	3.79944e-05
4085.59	0.000787354	0.00412842
4086.05	0.605225	1.95313e-06
4086.55	0.605316	2.11182e-05
4087.03	0.000616455	0.00237213
4087.49	0.605194	3.63159e-06
4087.99	0.605316	1.35193e-05
4088.49	0.603302	0.0174622
4088.93	0.604248	7.87354e-06
4089.43	0.604034	1.89209e-05
4089.93	0.604675	0.0093689
4090.39	-0.498505	-0.0192352
4090.87	0.604248	1.44348e-05
4091.37	0.605377	8.83789e-05
4091.83	-0.499329	-0.0143127
4092.31	0.605316	4.73022e-06
4092.81	0.604584	4.01917e-05
4093.29	-0.000241089	0.00412964
4093.75	0.604187	1.02844e-05
4094.25	0.60498	2.27966e-05
4094.73	0.00085144	0.00236511
4095.19	0.605286	6.71387e-07
4095.69	0.605164	1.46179e-05
4096.19	0.604401	0.0174438
4096.63	0.604126	8.81958e-06
4097.13	0.604095	1.75781e-05
4097.63	0.60495	0.00939636
4098.09	-0.497864	-0.0192444
4098.57	0.604584	1.33362e-05
4099.07	0.604462	9.49097e-05
4099.53	-0.498901	-0.014325
4100.01	0.604126	1.297e-05
4100.51	0.604401	3.97949e-05
4100.99	-6.10352e-06	0.00411346
4101.45	0.60434	9.91821e-06
4101.95	0.605225	2.07825e-05
4102.43	-0.000366211	0.00236603
4102.89	0.604767	6.01196e-06
4103.39	0.60498	1.66626e-05
4103.89	0.604492	0.0174469
4104.33	0.603973	8.97217e-06
4104.83	0.604858	1.26343e-05
4105.33	0.60434	0.00945129
4105.79	-0.499146	-0.0192474
4106.27	0.604431	1.22986e-05
4106.77	0.605286	9.07593e-05
4107.23	-0.498077	-0.0143433
4107.71	0.604126	1.10168e-05
4108.21	0.605042	3.83606e-05
4108.69	0.000668335	0.00410522
4109.15	0.604126	1.26038e-05
4109.65	0.605042	2.13623e-05
4110.13	0.000140381	0.00236359
4110.59	0.605133	5.00488e-06
4111.09	0.605316	1.28479e-05
4111.59	0.603149	0.0174561
4112.03	0.605164	1.0376e-06
4112.53	0.604645	1.30005e-05
4113.03	0.605042	0.00946045
4113.49	-0.497955	-0.0192535
4113.97	0.605011	8.20923e-06
4114.47	0.605164	9.14001e-05
4114.93	-0.498291	-0.0143494
4115.41	0.604309	1.16882e-05
4115.91	0.604095	4.43726e-05
4116.39	-0.000442505	0.00411072
4116.85	0.604919	8.05664e-06
4117.35	0.605164	2.23694e-05
4117.83	0.000369263	0.00235718
4118.29	0.604156	9.91821e-06
4118.79	0.605438	1.37634e-05
4119.29	0.603149	0.0174591
4119.73	0.604858	5.61523e-06
4120.23	0.604675	1.34888e-05
4120.73	0.604218	0.00948792
4121.19	-0.499176	-0.0192535
4121.67	0.605347	6.86646e-06
4122.17	0.604614	9.8053e-05
4122.63	-0.498779	-0.0143585
4123.11	0.604187	1.24207e-05
4123.61	0.60498	3.82996e-05
4124.09	-0.000170898	0.00410309
4124.55	0.605377	3.05176e-06
4125.05	0.604736	2.5177e-05
4125.53	0.000238037	0.00235382
4125.99	0.605103	5.24902e-06
4126.49	0.605194	1.44043e-05
4126.99	0.604034	0.0174561
4127.43	0.604095	9.58252e-06
4127.93	0.604065	1.74255e-05
4128.43	0.603882	0.00952148
4128.89	-0.498962	-0.0192566
4129.37	0.605225	7.20215e-06
4129.87	0.604675	9.75952e-05
4130.33	-0.499207	-0.0143555
4130.81	0.604065	1.33972e-05
4131.31	0.604553	4.29077e-05
4131.79	-0.000445557	0.00409454
4132.25	0.604736	6.7749e-06
4132.75	0.604431	2.74048e-05
4133.23	0.000338745	0.00234314
4133.69	0.604248	9.30786e-06
4134.19	0.604156	2.18201e-05
4134.69	0.603912	0.0174561
4135.13	0.603973	1.04065e-05
4135.63	0.60437	1.63574e-05
4136.13	0.604919	0.00953064
4136.59	-0.498383	-0.019281
4137.07	0.604553	1.23596e-05
4137.57	0.605225	9.42078e-05
4138.03	-0.499329	-0.0143585
4138.51	0.605164	5.70679e-06
4139.01	0.605042	3.80859e-05
4139.49	8.8501e-05	0.00408173
4139.95	0.604462	9.73511e-06
4140.45	0.604889	2.14539e-05
4140.93	0.000784302	0.00234131
4141.39	0.604095	1.07117e-05
4141.89	0.604095	2.19727e-05
4142.39	0.603363	0.0174591
4142.83	0.604279	7.41577e-06
4143.33	0.604401	1.51672e-05
4143.83	0.604218	0.00953979
4144.29	-0.499084	-0.0192688
4144.77	0.604675	1.14441e-05
4145.27	0.604553	9.86023e-05
4145.73	-0.499084	-0.0143768
4146.21	0.604767	9.42993e-06
4146.71	0.605133	3.88489e-05
4147.19	0.000793457	0.00407501
4147.65	0.604126	1.26648e-05
4148.15	0.604065	2.98767e-05
4148.63	0.000939941	0.00233734
4149.09	0.604065	1.04675e-05
4149.59	0.604126	2.35901e-05
4150.09	0.604095	0.0174622
4150.53	0.604065	9.27734e-06
4151.03	0.604462	1.48621e-05
4151.53	0.603638	0.00955811
4151.99	-0.498322	-0.0192749
4152.47	0.605011	9.42993e-06
4152.97	0.605286	9.43604e-05
4153.43	-0.499237	-0.0143646
4153.91	0.604034	1.37634e-05
4154.41	0.604156	4.45862e-05
4154.89	0.000366211	0.00406952
4155.35	0.604095	1.07422e-05
4155.85	0.605255	2.07825e-05
4156.33	0.000106812	0.00234009
4156.79	0.604523	8.23975e-06
4157.29	0.60495	1.55334e-05
4157.79	0.60376	0.0174652
4158.23	0.60498	5.34058e-06
4158.73	0.604828	1.51672e-05
4159.23	0.603851	0.00957947
4159.69	-0.498627	-0.0192688
4160.17	0.604401	1.2207e-05
4160.67	0.605286	9.39941e-05
4161.13	-0.49942	-0.0143799
4161.61	0.605286	4.15039e-06
4162.11	0.604034	4.46167e-05
4162.59	0.000793457	0.00406311
4163.05	0.604431	7.59888e-06
4163.55	0.604126	2.99988e-05
4164.03	-3.05176e-06	0.002341
4164.49	0.603973	1.16272e-05
4164.99	0.604736	1.77612e-05
4165.49	0.603729	0.0174591
4165.93	0.60437	8.42285e-06
4166.43	0.605072	1.09558e-05
4166.93	0.605011	0.00957642
4167.39	-0.499084	-0.019278
4167.87	0.605103	6.71387e-06
4168.37	0.605316	9.39026e-05
4168.83	-0.499237	-0.0143829
4169.31	0.604218	1.25732e-05
4169.81	0.605164	3.68042e-05
4170.29	0.000839233	0.00405792
4170.75	0.604675	6.62231e-06
4171.25	0.604248	2.84119e-05
4171.73	-0.000167847	0.00233612
4172.19	0.604156	1.00403e-05
4172.69	0.604462	1.96228e-05
4173.19	0.604523	0.0174591
4173.63	0.603973	9.61304e-06
4174.13	0.604065	1.77917e-05
4174.63	0.603851	0.00961914
4175.09	-0.498871	-0.0192719
4175.57	0.604126	1.43127e-05
4176.07	0.604218	0.000102936
4176.53	-0.499298	-0.014389
4177.01	0.604004	1.18713e-05
4177.51	0.604095	4.44336e-05
4177.99	0.000637817	0.00405182
4178.45	0.604065	1.10168e-05
4178.95	0.60434	2.81372e-05
4179.43	0.000393677	0.00232208
4179.89	0.604065	1.09558e-05
4180.39	0.603973	2.3468e-05
4180.89	0.603088	0.0174652
4181.33	0.605286	1.34277e-06
4181.83	0.605316	1.00403e-05
4182.33	0.603943	0.00965271
4182.79	-0.498657	-0.0192871
4183.27	0.604431	1.19934e-05
4183.77	0.604248	0.000101898
4184.23	-0.498199	-0.0144196
4184.71	0.605255	4.69971e-06
4185.21	0.604675	4.18701e-05
4185.69	-0.000320435	0.00406158
4186.15	0.605255	2.22778e-06
4186.65	0.605103	2.29492e-05
4187.13	0.000637817	0.00232147
4187.59	0.604462	6.74438e-06
4188.09	0.605011	1.5625e-05
4188.59	0.603241	0.0174805
4189.03	0.604736	4.36401e-06
4189.53	0.604462	1.80664e-05
4190.03	0.604675	0.00963135
4190.49	-0.499084	-0.0193054
4190.97	0.60434	1.27869e-05
4191.47	0.605255	9.42688e-05
4191.93	-0.49881	-0.0144135
4192.41	0.605316	3.479e-06
4192.91	0.604492	4.19006e-05
4193.39	-0.000369263	0.0040564
4193.85	0.605316	2.50244e-06
4194.35	0.605072	2.32849e-05
4194.83	0.000531006	0.00232086
4195.29	0.605133	1.58691e-06
4195.79	0.604279	2.03857e-05
4196.29	0.603394	0.0174866
4196.73	0.604126	8.36182e-06
4197.23	0.604584	1.48926e-05
4197.73	0.603851	0.00967407
4198.19	-0.499054	-0.0193054
4198.67	0.604828	1.18713e-05
4199.17	0.604187	0.000103394
4199.63	-0.498413	-0.0144257
4200.11	0.604492	1.01013e-05
4200.61	0.604248	4.49829e-05
4201.09	0.000891113	0.00404297
4201.55	0.60437	9.64355e-06
4202.05	0.604248	2.92664e-05
4202.53	0.00072937	0.00231781
4202.99	0.604034	1.02234e-05
4203.49	0.604218	2.22778e-05
4203.99	0.603058	0.0174774
4204.43	0.603973	8.78906e-06
4204.93	0.604248	1.71509e-05
4205.43	0.604187	0.00966492
4205.89	-0.499115	-0.0192932
4206.37	0.604095	1.47705e-05
4206.87	0.604279	0.000103241
4207.33	-0.498077	-0.0144165
4207.81	0.604065	9.39941e-06
4208.31	0.604065	4.54407e-05
4208.79	0.000439453	0.00404449
4209.25	0.604065	1.171875E-05
4209.75	0.604248	2.948e-05
4210.23	-0.000439453	0.00232269
4210.69	0.604187	9.58252e-06
4211.19	0.604126	2.21252e-05
4211.69	0.603912	0.0174744
4212.13	0.60495	3.44849e-06
4212.63	0.604858	1.171875E-05
4213.13	0.603973	0.00965271
4213.59	-0.498444	-0.0192993
4214.07	0.604614	1.34277e-05
4214.57	0.60498	9.77173e-05
4215.03	-0.49939	-0.0144165
4215.51	0.604126	1.26953e-05
4216.01	0.605225	3.68042e-05
4216.49	-0.000418091	0.00404541
4216.95	0.604523	6.04248e-06
4217.45	0.605133	2.23999e-05
4217.93	-0.00010376	0.00232452
4218.39	0.605103	2.92969e-06
4218.89	0.605042	1.78833e-05
4219.39	0.604065	0.0174805
4219.83	0.604065	9.8877e-06
4220.33	0.605103	1.0376e-05
4220.83	0.603912	0.00964966
4221.29	-0.497833	-0.0192902
4221.77	0.604126	1.62659e-05
4222.27	0.60495	9.57947e-05
4222.73	-0.49939	-0.0144135
4223.21	0.604828	7.90405e-06
4223.71	0.604553	4.11072e-05
4224.19	-0.000427246	0.00404297
4224.65	0.60434	9.73511e-06
4225.15	0.60437	2.70386e-05
4225.63	2.74658e-05	0.00232513
4226.09	0.604309	9.15527e-06
4226.59	0.604187	2.27661e-05
4227.09	0.604126	0.0174896
4227.53	0.604462	5.31006e-06
4228.03	0.604919	1.16882e-05
4228.53	0.604584	0.00964661
4228.99	-0.49823	-0.019281
4229.47	0.60498	9.00269e-06
4229.97	0.604126	0.000104065
4230.43	-0.498108	-0.0144196
4230.91	0.605286	5.43213e-06
4231.41	0.605286	3.80554e-05
4231.89	-0.000308228	0.00404236
4232.35	0.604034	1.22681e-05
4232.85	0.604858	2.39563e-05
4233.33	3.05176e-06	0.0023233
4233.79	0.604187	7.69043e-06
4234.29	0.604645	1.80664e-05
4234.79	0.603241	0.017511
4235.23	0.605255	1.09863e-06
4235.73	0.604156	1.73035e-05
4236.23	0.603638	0.00965576
4236.69	-0.498718	-0.0192932
4237.17	0.604858	1.26953e-05
4237.67	0.604614	0.00010083
4238.13	-0.499268	-0.0144318
4238.61	0.604553	9.64355e-06
4239.11	0.604706	3.91846e-05
4239.59	-0.000418091	0.00405457
4240.05	0.604797	6.92749e-06
4240.55	0.604675	2.63367e-05
4241.03	-0.00032959	0.00233002
4241.49	0.605286	1.61743e-06
4241.99	0.605347	1.42822e-05
4242.49	0.603485	0.0175201
4242.93	0.604279	6.68335e-06
4243.43	0.604401	1.58081e-05
4243.93	0.603943	0.00966187
4244.39	-0.498291	-0.0193146
4244.87	0.605072	8.05664e-06
4245.37	0.604767	9.8877e-05
4245.83	-0.499023	-0.0144287
4246.31	0.605316	5.64575e-06
4246.81	0.605286	3.63159e-05
4247.29	0.000817871	0.00404602
4247.75	0.605072	5.43213e-06
4248.25	0.605042	2.35901e-05
4248.73	-0.000424194	0.00232635
4249.19	0.605316	2.04468e-06
4249.69	0.604248	2.12097e-05
4250.19	0.603271	0.017514
4250.63	0.604309	7.8125e-06
4251.13	0.605347	9.765625E-06
4251.63	0.605011	0.00966797
4252.09	-0.497925	-0.0193054
4252.57	0.604492	1.28174e-05
4253.07	0.604156	0.00010437
4253.53	-0.499359	-0.014444
4254.01	0.604736	9.0332e-06
4254.51	0.604095	4.47998e-05
4254.99	0.000683594	0.00404358
4255.45	0.605377	5.06592e-06
4255.95	0.605286	1.98975e-05
4256.43	-0.000357056	0.00232666
4256.89	0.605225	2.83813e-06
4257.39	0.604248	1.90125e-05
4257.89	0.60437	0.0175079
4258.33	0.604584	5.46265e-06
4258.83	0.604553	1.40686e-05
4259.33	0.604858	0.00967102
4259.79	-0.499084	-0.0193024
4260.27	0.605225	6.62231e-06
4260.77	0.604767	9.87244e-05
4261.23	-0.499481	-0.0144379
4261.71	0.605164	6.16455e-06
4262.21	0.604248	4.31519e-05
4262.69	0.000112915	0.00404236
4263.15	0.604004	1.13525e-05
4263.65	0.604828	2.51465e-05
4264.13	0.000180054	0.00231903
4264.59	0.604309	1.01624e-05
4265.09	0.605133	1.36719e-05
4265.59	0.604004	0.0175201
4266.03	0.604065	1.00708e-05
4266.53	0.603943	1.88904e-05
4267.03	0.604553	0.00968628
4267.49	-0.499084	-0.0192932
4267.97	0.604187	1.47095e-05
4268.47	0.604706	9.97009e-05
4268.93	-0.49823	-0.0144562
4269.41	0.605072	6.71387e-06
4269.91	0.604309	4.34265e-05
4270.39	0.000137329	0.00403442
4270.85	0.604065	1.25122e-05
4271.35	0.605133	2.24915e-05
4271.83	-0.000198364	0.002323
4272.29	0.604767	3.63159e-06
4272.79	0.604767	1.75476e-05
4273.29	0.603851	0.0175171
4273.73	0.605255	7.62939e-07
4274.23	0.604095	1.79443e-05
4274.73	0.603943	0.00969543
4275.19	-0.497894	-0.0193024
4275.67	0.605103	6.62231e-06
4276.17	0.604095	0.000106445
4276.63	-0.498169	-0.0144501
4277.11	0.604797	8.3313e-06
4277.61	0.604004	4.45557e-05
4278.09	0.000756836	0.00402557
4278.55	0.604065	1.19324e-05
4279.05	0.604034	2.99683e-05
4279.53	0.000143433	0.00231567
4279.99	0.605377	1.92261e-06
4280.49	0.604187	2.16675e-05
4280.99	0.604401	0.0175201
4281.43	0.604797	6.46973e-06
4281.93	0.605103	1.06201e-05
4282.43	0.604004	0.0097229
4282.89	-0.498627	-0.0193024
4283.37	0.605194	7.04956e-06
4283.87	0.604065	0.00010733
4284.33	-0.49939	-0.0144531
4284.81	0.604065	1.46484e-05
4285.31	0.60498	3.9093e-05
4285.79	-2.44141e-05	0.00404327
4286.25	0.604218	1.00708e-05
4286.75	0.604004	3.12805e-05
4287.23	0.000906372	0.0023175
4287.69	0.605225	2.2583e-06
4288.19	0.604462	1.86157e-05
4288.69	0.60321	0.0175415
4289.13	0.604187	8.88062e-06
4289.63	0.604034	1.87683e-05
4290.13	0.604309	0.0097168
4290.59	-0.498444	-0.019339
4291.07	0.604095	1.5625e-05
4291.57	0.604156	0.000105804
4292.03	-0.498535	-0.0144653
4292.51	0.605316	5.12695e-06
4293.01	0.605255	3.71399e-05
4293.49	-0.000454712	0.00403839
4293.95	0.604767	6.46973e-06
4294.45	0.60434	2.93884e-05
4294.93	0.00017395	0.0023175
4295.39	0.605011	5.67627e-06
4295.89	0.605438	1.3031e-05
4296.39	0.603119	0.0175385
4296.83	0.605072	4.57764e-06
4297.33	0.604675	1.44348e-05
4297.83	0.604797	0.00973816
4298.29	-0.497894	-0.0193451
4298.77	0.605225	7.41577e-06
4299.27	0.604889	0.000100891
4299.73	-0.49942	-0.0144745
4300.21	0.604065	1.31836e-05
4300.71	0.605347	3.71399e-05
4301.19	-0.000109863	0.0040332
4301.65	0.604919	3.8147e-06
4302.15	0.605225	2.25525e-05
4302.63	-0.00039978	0.00231873
4303.09	0.604187	1.02234e-05
4303.59	0.604614	1.77917e-05
4304.09	0.603455	0.0175354
4304.53	0.604248	7.87354e-06
4305.03	0.604645	1.15967e-05
4305.53	0.604523	0.00974121
4305.99	-0.499115	-0.0193451
4306.47	0.604279	1.44653e-05
4306.97	0.60498	0.000102264
4307.43	-0.49939	-0.0144806
4307.91	0.604126	1.33667e-05
4308.41	0.605316	3.79944e-05
4308.89	-0.000363159	0.00403412
4309.35	0.604492	9.18579e-06
4309.85	0.605286	2.14844e-05
4310.33	0.000317383	0.00230896
4310.79	0.60437	1.03149e-05
4311.29	0.60495	1.68762e-05
4311.79	0.603271	0.0175476
4312.23	0.604034	1.00403e-05
4312.73	0.604126	1.74561e-05
4313.23	0.604523	0.00976257
4313.69	-0.498962	-0.019342
4314.17	0.604614	1.35498e-05
4314.67	0.60498	0.000101715
4315.13	-0.49939	-0.0144928
4315.61	0.604095	1.28784e-05
4316.11	0.604279	4.11682e-05
4316.59	0.000875854	0.00401978
4317.05	0.604401	1.01929e-05
4317.55	0.604187	2.98767e-05
4318.03	-0.000311279	0.00231079
4318.49	0.604126	1.01318e-05
4318.99	0.605164	1.49841e-05
4319.49	0.604462	0.0175385
4319.93	0.605103	1.58691e-06
4320.43	0.605103	1.06812e-05
4320.93	0.603821	0.00977783
4321.39	-0.498779	-0.019339
4321.87	0.604126	1.40991e-05
4322.37	0.605103	0.000101501
4322.83	-0.499451	-0.0144989
4323.31	0.604675	8.54492e-06
4323.81	0.604095	4.55322e-05
4324.29	0.000500488	0.00401917
4324.75	0.604095	1.19019e-05
4325.25	0.605133	2.1759e-05
4325.73	7.01904e-05	0.00230377
4326.19	0.604187	9.39941e-06
4326.69	0.604706	1.82495e-05
4327.19	0.604187	0.0175507
4327.63	0.604156	8.8501e-06
4328.13	0.604584	1.42212e-05
4328.63	0.604858	0.00978699
4329.09	-0.498962	-0.0193359
4329.57	0.604828	9.8877e-06
4330.07	0.60434	0.000108337
4330.53	-0.498932	-0.014502
4331.01	0.604187	1.27563e-05
4331.51	0.604248	4.48303e-05
4331.99	0.000430298	0.0040094
4332.45	0.604584	7.78198e-06
4332.95	0.604492	2.85645e-05
4333.43	-0.000390625	0.00230957
4333.89	0.604279	9.00269e-06
4334.39	0.603973	2.37427e-05
4334.89	0.603149	0.0175446
4335.33	0.604706	4.88281e-06
4335.83	0.604065	1.80664e-05
4336.33	0.604095	0.00979309
4336.79	-0.497986	-0.0193542
4337.27	0.604797	1.06506e-05
4337.77	0.605103	0.000102112
4338.23	-0.49884	-0.014502
4338.71	0.60498	6.40869e-06
4339.21	0.604126	4.54102e-05
4339.69	-0.000369263	0.00401215
4340.15	0.605347	1.98364e-06
4340.65	0.604858	2.55737e-05
4341.13	-3.66211e-05	0.00230255
4341.59	0.604889	3.9978e-06
4342.09	0.605377	1.45874e-05
4342.59	0.604309	0.0175415
4343.03	0.604187	9.18579e-06
4343.53	0.604034	1.7395e-05
4344.03	0.604065	0.00982971
4344.49	-0.497955	-0.0193665
4344.97	0.60434	1.26953e-05
4345.47	0.604126	0.000106781
4345.93	-0.499176	-0.0145111
4346.41	0.605225	4.66919e-06
4346.91	0.605133	3.87573e-05
4347.39	-0.000299072	0.00400299
4347.85	0.604462	7.56836e-06
4348.35	0.604065	3.09753e-05
4348.83	4.88281e-05	0.00229797
4349.29	0.604218	1.0498e-05
4349.79	0.605255	1.51062e-05
4350.29	0.60379	0.0175568
4350.73	0.605255	9.76562e-07
4351.23	0.604279	1.83716e-05
4351.73	0.604736	0.00983582
4352.19	-0.498352	-0.0193481
4352.67	0.604034	1.5625e-05
4353.17	0.605072	0.000102692
4353.63	-0.498718	-0.0145233
4354.11	0.605103	6.16455e-06
4354.61	0.604218	4.62952e-05
4355.09	-0.000497437	0.00399963
4355.55	0.604736	7.59888e-06
4356.05	0.605286	2.20032e-05
4356.53	-0.000384521	0.0022998
4356.99	0.604095	1.14441e-05
4357.49	0.605286	1.44958e-05
4357.99	0.603119	0.0175568
4358.43	0.605499	1.06812e-06
4358.93	0.604889	1.33362e-05
4359.43	0.603943	0.00985718
4359.89	-0.497925	-0.0193542
4360.37	0.604218	1.56555e-05
4360.87	0.604034	0.000110809
4361.33	-0.49942	-0.0145203
4361.81	0.60498	7.2937e-06
4362.31	0.604279	4.51965e-05
4362.79	0.00065918	0.00398712
4363.25	0.605316	2.65503e-06
4363.75	0.605469	2.17285e-05
4364.23	-0.000256348	0.00229614
4364.69	0.604553	5.43213e-06
4365.19	0.604736	1.83716e-05
4365.69	0.604156	0.0175629
4366.13	0.604889	1.95313e-06
4366.63	0.604187	1.7334e-05
4367.13	0.60434	0.00986023
4367.59	-0.497864	-0.0193604
4368.07	0.604004	1.58997e-05
4368.57	0.604462	0.000109283
4369.03	-0.498779	-0.0145203
4369.51	0.605103	4.3335e-06
4370.01	0.604584	4.11072e-05
4370.49	-0.000405884	0.00399353
4370.95	0.604553	8.45337e-06
4371.45	0.604736	2.36206e-05
4371.93	-0.000350952	0.00229401
4372.39	0.605286	2.0752e-06
4372.89	0.604126	2.18201e-05
4373.39	0.60376	0.0175659
4373.83	0.604187	9.12476e-06
4374.33	0.604095	1.95923e-05
4374.83	0.604492	0.00985718
4375.29	-0.497894	-0.0193512
4375.77	0.604492	1.2146e-05
4376.27	0.604431	0.00010968
4376.73	-0.499512	-0.0145203
4377.21	0.605316	5.7373e-06
4377.71	0.605011	3.97034e-05
4378.19	0.000466919	0.00398132
4378.65	0.604095	1.08337e-05
4379.15	0.60434	2.79541e-05
4379.63	5.79834e-05	0.00229187
4380.09	0.604218	9.33838e-06
4380.59	0.604645	1.68762e-05
4381.09	0.60434	0.0175568
4381.53	0.603973	9.64355e-06
4382.03	0.604553	1.62964e-05
4382.53	0.603668	0.00988464
4382.99	-0.498383	-0.019342
4383.47	0.60434	1.35803e-05
4383.97	0.604248	0.000111877
4384.43	-0.498138	-0.0145294
4384.91	0.604126	1.27869e-05
4385.41	0.604828	4.04663e-05
4385.89	0.000460815	0.00397675
4386.35	0.605164	4.63867e-06
4386.85	0.604309	2.81677e-05
4387.33	0.000790405	0.00228333
4387.79	0.604492	1.08337e-05
4388.29	0.605316	1.45874e-05
4388.79	0.603455	0.0175568
4389.23	0.604858	4.88281e-06
4389.73	0.60498	1.35498e-05
4390.23	0.603668	0.00990601
4390.69	-0.498138	-0.0193573
4391.17	0.605225	7.38525e-06
4391.67	0.604034	0.000112579
4392.13	-0.499451	-0.0145294
4392.61	0.604675	9.552e-06
4393.11	0.60434	4.45557e-05
4393.59	0.000726318	0.00396759
4394.05	0.604248	1.05896e-05
4394.55	0.604156	2.98157e-05
4395.03	0.000897217	0.00228058
4395.49	0.604889	3.35693e-06
4395.99	0.604279	2.12402e-05
4396.49	0.604156	0.0175446
4396.93	0.604401	6.01196e-06
4397.43	0.604645	1.49536e-05
4397.93	0.60434	0.00992126
4398.39	-0.497925	-0.0193604
4398.87	0.604889	7.01904e-06
4399.37	0.604065	0.000114105
4399.83	-0.499329	-0.0145325
4400.31	0.60498	7.90405e-06
4400.81	0.604401	4.20227e-05
4401.29	7.93457e-05	0.00395874
4401.75	0.605316	3.69263e-06
4402.25	0.604919	2.45056e-05
4402.73	0.000790405	0.0022757
4403.19	0.604706	6.37817e-06
4403.69	0.604675	1.77612e-05
4404.19	0.604095	0.0175659
4404.63	0.605042	5.46265e-06
4405.13	0.605072	1.14441e-05
4405.63	0.603668	0.00995483
4406.09	-0.497955	-0.0193634
4406.57	0.605072	8.39233e-06
4407.07	0.604401	0.000111511
4407.53	-0.49939	-0.0145447
4408.01	0.604584	9.765625E-06
4408.51	0.605225	3.84827e-05
4408.99	-0.000366211	0.00396179
4409.45	0.605042	4.11987e-06
4409.95	0.604156	2.80762e-05
4410.43	-5.49316e-05	0.00227753
4410.89	0.604828	4.30298e-06
4411.39	0.60437	1.93481e-05
4411.89	0.603882	0.0175568
4412.33	0.605194	2.22778e-06
4412.83	0.604156	1.77917e-05
4413.33	0.604828	0.00994873
4413.79	-0.497925	-0.0193481
4414.27	0.604095	1.50757e-05
4414.77	0.60498	0.000108917
4415.23	-0.498749	-0.0145508
4415.71	0.604187	1.42212e-05
4416.21	0.604095	4.62036e-05
4416.69	-0.000430298	0.00395752
4417.15	0.605347	3.44849e-06
4417.65	0.604401	2.65808e-05
4418.13	-0.000421143	0.00227966
4418.59	0.604523	7.99561e-06
4419.09	0.604919	1.77612e-05
4419.59	0.603577	0.0175598
4420.03	0.604065	9.91821e-06
4420.53	0.604279	1.76392e-05
4421.03	0.604004	0.00996704
4421.49	-0.497986	-0.0193481
4421.97	0.604889	1.08337e-05
4422.47	0.604675	0.000112091
4422.93	-0.499176	-0.0145355
4423.41	0.60498	6.56128e-06
4423.91	0.604309	4.4342e-05
4424.39	-0.000244141	0.00395172
4424.85	0.605164	2.16675e-06
4425.35	0.604187	2.92664e-05
4425.83	-0.000314331	0.00228088
4426.29	0.605011	4.30298e-06
4426.79	0.605377	1.30615e-05
4427.29	0.603271	0.0175659
4427.73	0.605316	2.01416e-06
4428.23	0.604858	1.31836e-05
4428.73	0.603638	0.00998535
4429.19	-0.497864	-0.0193573
4429.67	0.604065	1.55945e-05
4430.17	0.605164	0.000107452
4430.63	-0.499207	-0.0145538
4431.11	0.605347	5.34058e-06
4431.61	0.605286	3.76587e-05
4432.09	-0.000112915	0.00394897
4432.55	0.605347	5.27954e-06
4433.05	0.605133	2.32239e-05
4433.53	9.46045e-05	0.002276
4433.99	0.605316	2.38037e-06
4434.49	0.604858	1.79749e-05
4434.99	0.603699	0.017572
4435.43	0.605225	1.92261e-06
4435.93	0.60495	1.0376e-05
4436.43	0.603973	0.0100006
4436.89	-0.498322	-0.0193542
4437.37	0.604889	9.30786e-06
4437.87	0.605316	0.000108429
4438.33	-0.498199	-0.014563
4438.81	0.604523	1.03455e-05
4439.31	0.60437	4.47083e-05
4439.79	-0.000170898	0.0039444
4440.25	0.604614	8.02612e-06
4440.75	0.604523	2.76184e-05
4441.23	-6.71387e-05	0.002276
4441.69	0.604919	7.78198e-06
4442.19	0.604156	2.2583e-05
4442.69	0.603394	0.017569
4443.13	0.604279	8.8501e-06
4443.63	0.603973	1.92871e-05
4443.85	0.604828	3.93677e-06