File: Edgar/20240605/20240605/electrodeposition_pulsed_potential_20240605_A/pulses_0_to_1000.txt
Time (s)	WE(1).Potential (V)	WE(1).Current (A)
181.681	-0.499359	-0.00259247
182.161	0.60434	6.40869e-07
182.661	0.604218	5.00488e-06
183.121	-0.499023	-0.00189148
183.601	0.605347	-5.37109e-06
184.101	0.605255	-3.05176e-06
184.581	-0.000357056	-1.31226e-06
185.041	0.605042	-2.92969e-06
185.541	0.605194	-4.21143e-06
186.021	0.00039978	-3.43933e-05
186.481	0.604736	-8.8501e-07
186.981	0.605072	-3.05176e-06
187.481	0.604126	2.52686e-05
187.921	0.605255	-4.24194e-06
188.421	0.604187	2.44141e-06
188.921	0.604645	4.08936e-06
189.381	-0.499969	-0.00220551
189.861	0.605286	-4.85229e-06
190.361	0.604675	1.7395e-06
190.821	-0.499084	-0.00188049
191.301	0.605286	-5.79834e-06
191.801	0.605011	-1.09863e-06
192.281	0.000741577	-9.18579e-06
192.741	0.604095	2.53296e-06
193.241	0.605255	-4.36401e-06
193.721	-0.000427246	-3.67126e-05
194.181	0.605194	-5.61523e-06
194.681	0.604095	3.87573e-06
195.181	0.604279	2.74048e-05
195.621	0.604675	-6.10352e-07
196.121	0.604279	1.43433e-06
196.621	0.605255	1.31226e-06
197.081	-0.500031	-0.0022937
197.561	0.605072	-5.37109e-06
198.061	0.60437	3.54004e-06
198.521	-0.500061	-0.00193359
199.001	0.604126	3.87573e-06
199.501	0.604431	9.76562e-07
199.981	5.79834e-05	-1.19019e-06
200.441	0.604523	2.41089e-06
200.941	0.605194	-2.16675e-06
201.421	0.000787354	-4.98047e-05
201.881	0.605316	-6.43921e-06
202.381	0.604034	3.69263e-06
202.881	0.604218	2.96936e-05
203.321	0.604004	1.80054e-06
203.821	0.604218	2.47192e-06
204.321	0.605316	1.2207e-06
204.781	-0.499298	-0.00240417
205.261	0.605286	-5.40161e-06
205.761	0.604004	6.10352e-06
206.221	-0.499512	-0.00199921
206.701	0.604584	-2.10571e-06
207.201	0.605133	2.13623e-07
207.681	0.000939941	2.44141e-06
208.141	0.605316	-5.79834e-06
208.641	0.604126	5.64575e-06
209.121	8.54492e-05	-5.45349e-05
209.581	0.604065	3.08228e-06
210.081	0.605225	-2.99072e-06
210.581	0.605377	2.55432e-05
211.021	0.604218	2.38037e-06
211.521	0.60434	4.57764e-07
212.021	0.604187	1.01318e-05
212.481	-0.500061	-0.00250549
212.961	0.604431	1.40381e-06
213.461	0.605316	-1.86157e-06
213.921	-0.499115	-0.00205719
214.401	0.604004	3.35693e-06
214.901	0.605011	-1.09863e-06
215.381	0.000683594	2.40479e-05
215.841	0.604584	2.44141e-07
216.341	0.604828	1.52588e-07
216.821	7.93457e-05	-5.4657e-05
217.281	0.604584	-4.57764e-07
217.781	0.605164	-2.89917e-06
218.281	0.605316	3.06396e-05
218.721	0.604584	-2.0752e-06
219.221	0.605255	-4.24194e-06
219.721	0.604065	1.11694e-05
220.181	-0.499969	-0.00262177
220.661	0.604462	1.67847e-06
221.161	0.604919	0
221.621	-0.499847	-0.00209808
222.101	0.604645	-2.2583e-06
222.601	0.605225	-2.71606e-06
223.081	-0.000274658	6.19812e-05
223.541	0.60495	-3.44849e-06
224.041	0.604492	2.74658e-06
224.521	0.000582886	-6.2561e-05
224.981	0.604431	1.43433e-06
225.481	0.605103	-3.44849e-06
225.981	0.605347	3.10059e-05
226.421	0.604218	1.70898e-06
226.921	0.605255	-4.39453e-06
227.421	0.604614	7.87354e-06
227.881	-0.499847	-0.00274963
228.361	0.604279	1.92261e-06
228.861	0.605316	-1.92261e-06
229.321	-0.499756	-0.00214569
229.801	0.605194	-3.87573e-06
230.301	0.605255	-3.14331e-06
230.781	0.000823975	0.000102692
231.241	0.605286	-5.76782e-06
231.741	0.605286	-3.20435e-06
232.221	-0.000357056	-5.87463e-05
232.681	0.604187	2.04468e-06
233.181	0.604553	3.05176e-08
233.681	0.604065	4.23279e-05
234.121	0.605042	-3.8147e-06
234.621	0.604462	6.10352e-07
235.121	0.604065	1.20239e-05
235.581	-0.498962	-0.00289001
236.061	0.604309	1.5564e-06
236.561	0.604248	6.22559e-06
237.021	-0.499634	-0.00219086
237.501	0.605255	-4.91333e-06
238.001	0.604401	2.56348e-06
238.481	-0.00027771	0.00017215
238.941	0.604156	2.86865e-06
239.441	0.604126	3.90625e-06
239.921	0.000280762	-6.75964e-05
240.381	0.604889	-5.18799e-06
240.881	0.604034	3.54004e-06
241.381	0.604706	4.07104e-05
241.821	0.604187	3.08228e-06
242.321	0.604889	-1.09863e-06
242.821	0.604706	7.65991e-06
243.281	-0.500031	-0.0030249
243.761	0.60495	-2.86865e-06
244.261	0.604492	3.90625e-06
244.721	-0.499207	-0.00223328
245.201	0.604279	1.80054e-06
245.701	0.605164	-1.98364e-06
246.181	-0.00032959	0.000247498
246.641	0.605164	-4.91333e-06
247.141	0.604126	5.12695e-06
247.621	-3.35693e-05	-6.66809e-05
248.081	0.604126	2.68555e-06
248.581	0.604797	-3.66211e-07
249.081	0.604889	4.24805e-05
249.521	0.605103	-3.50952e-06
250.021	0.60437	2.74658e-07
250.521	0.605011	6.74438e-06
250.981	-0.498871	-0.00318848
251.461	0.605469	-4.36401e-06
251.961	0.605103	-3.35693e-07
252.421	-0.499451	-0.00227264
252.901	0.604065	4.24194e-06
253.401	0.604218	3.66211e-06
253.881	0.000848389	0.000333252
254.341	0.604156	3.9978e-06
254.841	0.605164	-2.50244e-06
255.321	9.15527e-06	-6.87256e-05
255.781	0.605042	-1.83105e-06
256.281	0.604126	4.24194e-06
256.781	0.605347	4.17175e-05
257.221	0.604004	3.32642e-06
257.721	0.605072	-2.74658e-06
258.221	0.604523	1.13831e-05
258.681	-0.498871	-0.00335114
259.161	0.604187	2.34985e-06
259.661	0.604004	9.06372e-06
260.121	-0.499969	-0.00231079
260.601	0.604736	-2.28882e-06
261.101	0.604034	5.52368e-06
261.581	0.000415039	0.000441071
262.041	0.60437	1.5564e-06
262.541	0.604492	3.35693e-06
263.021	0.000552368	-7.26929e-05
263.481	0.604126	3.35693e-06
263.981	0.605042	-9.46045e-07
264.481	0.605347	4.45862e-05
264.921	0.604889	-3.60107e-06
265.421	0.605316	-3.2959e-06
265.921	0.604095	1.474e-05
266.381	-0.498718	-0.00352386
266.861	0.605225	-2.92969e-06
267.361	0.605255	5.49316e-07
267.821	-0.499054	-0.00235077
268.301	0.605072	-3.87573e-06
268.801	0.604248	5.21851e-06
269.281	0.000350952	0.000568848
269.741	0.604034	2.47192e-06
270.241	0.604248	2.38037e-06
270.721	0.00057373	-7.68433e-05
271.181	0.604523	-3.66211e-07
271.681	0.604126	4.3335e-06
272.181	0.605316	4.73022e-05
272.621	0.605316	-5.92041e-06
273.121	0.605042	-2.56348e-06
273.621	0.604919	6.74438e-06
274.081	-0.499603	-0.00369415
274.561	0.604095	3.35693e-06
275.061	0.604858	4.82178e-06
275.521	-0.500031	-0.0023877
276.001	0.604431	1.28174e-06
276.501	0.604858	-2.01416e-06
276.981	0.000170898	0.000704956
277.441	0.604309	2.22778e-06
277.941	0.603973	6.10352e-06
278.421	0.000717163	-8.09021e-05
278.881	0.60495	-2.28882e-06
279.381	0.604828	6.10352e-08
279.881	0.605011	5.09033e-05
280.321	0.605255	-5.52368e-06
280.821	0.604156	2.99072e-06
281.321	0.605316	8.3313e-06
281.781	-0.49881	-0.00388977
282.261	0.60437	1.2207e-07
282.761	0.604706	6.073e-06
283.221	-0.49884	-0.00243713
283.701	0.605011	-3.63159e-06
284.201	0.604065	6.89697e-06
284.681	-0.000112915	0.000848083
285.141	0.604614	4.88281e-07
285.641	0.605011	-1.92261e-06
286.121	-1.83105e-05	-7.5592e-05
286.581	0.604462	2.74658e-07
287.081	0.605286	-4.15039e-06
287.581	0.604126	6.02417e-05
288.021	0.604004	2.96021e-06
288.521	0.604065	2.89917e-06
289.021	0.604462	1.4801e-05
289.481	-0.498779	-0.00409088
289.961	0.604797	-1.5564e-06
290.461	0.605103	1.46484e-06
290.921	-0.499969	-0.00247681
291.401	0.604492	8.8501e-07
291.901	0.604248	4.97437e-06
292.381	-0.000164795	0.00100311
292.841	0.605225	-4.3335e-06
293.341	0.604919	-3.05176e-07
293.821	-0.00032959	-7.22961e-05
294.281	0.605286	-5.00488e-06
294.781	0.605255	-3.32642e-06
295.281	0.604126	6.22253e-05
295.721	0.604675	-1.2207e-06
296.221	0.604767	-2.31934e-06
296.721	0.605316	7.75146e-06
297.181	-0.498901	-0.0042984
297.661	0.605133	-4.15039e-06
298.161	0.604187	9.18579e-06
298.621	-0.498932	-0.00253204
299.101	0.60495	-1.5564e-06
299.601	0.604095	7.01904e-06
300.081	-0.000192261	0.00116882
300.541	0.604706	-1.09863e-06
301.041	0.604095	6.073e-06
301.521	0.000460815	-7.9834e-05
301.981	0.605255	-5.18799e-06
302.481	0.604889	-8.54492e-07
302.981	0.604401	6.35071e-05
303.421	0.604095	2.89917e-06
303.921	0.604279	2.86865e-06
304.421	0.604706	1.18408e-05
304.881	-0.499512	-0.00450317
305.361	0.604279	5.49316e-07
305.861	0.60434	7.78198e-06
306.321	-0.499725	-0.0025705
306.801	0.60498	-1.0376e-06
307.301	0.604858	1.92261e-06
307.781	-0.000262451	0.00133972
308.241	0.604248	2.99072e-06
308.741	0.604095	5.67627e-06
309.221	0.000759888	-8.04138e-05
309.681	0.604767	2.44141e-07
310.181	0.604401	2.13623e-06
310.681	0.605347	5.86548e-05
311.121	0.604034	4.60815e-06
311.621	0.604858	-2.22778e-06
312.121	0.605316	8.69751e-06
312.581	-0.499939	-0.00472565
313.061	0.604401	-6.10352e-07
313.561	0.605164	3.2959e-06
314.021	-0.498901	-0.00263153
314.501	0.604095	2.68555e-06
315.001	0.604004	7.04956e-06
315.481	0.000186157	0.00150909
315.941	0.604156	3.08228e-06
316.441	0.604431	4.94385e-06
316.921	-8.8501e-05	-7.52563e-05
317.381	0.605255	-5.31006e-06
317.881	0.605103	-3.05176e-08
318.381	0.605194	6.17371e-05
318.821	0.605164	-4.60815e-06
319.321	0.604492	-7.62939e-07
319.821	0.604675	1.32141e-05
320.281	-0.499969	-0.00494934
320.761	0.604919	2.74658e-07
321.261	0.604919	3.75366e-06
321.721	-0.498749	-0.00267639
322.201	0.605316	-4.3335e-06
322.701	0.605286	-4.27246e-07
323.181	0.000137329	0.00169159
323.641	0.605133	-5.76782e-06
324.141	0.604797	1.43433e-06
324.621	0.000582886	-7.23572e-05
325.081	0.605438	-4.97437e-06
325.581	0.605103	-1.0376e-06
326.081	0.604736	6.96411e-05
326.521	0.605347	-5.21851e-06
327.021	0.604156	4.11987e-06
327.521	0.604065	1.92566e-05
327.981	-0.498718	-0.00517181
328.461	0.604675	-3.66211e-07
328.961	0.604156	1.0376e-05
329.421	-0.499054	-0.00272217
329.901	0.604919	-1.5564e-06
330.401	0.605225	-9.15527e-07
330.881	8.54492e-05	0.00187958
331.341	0.604187	1.95313e-06
331.841	0.605286	-2.7771e-06
332.321	-0.00015564	-6.604e-05
332.781	0.604767	-2.38037e-06
333.281	0.604919	-2.31934e-06
333.781	0.604736	7.15332e-05
334.221	0.604248	2.0752e-06
334.721	0.604004	4.63867e-06
335.221	0.605286	1.10779e-05
335.681	-0.499817	-0.00538849
336.161	0.604828	-3.05176e-06
336.661	0.605042	3.05176e-06
337.121	-0.498901	-0.00277527
337.601	0.604706	-1.83105e-06
338.101	0.605286	-1.37329e-06
338.581	0.000561523	0.00204407
339.041	0.604401	2.16675e-06
339.541	0.604095	6.16455e-06
340.021	-5.79834e-05	-5.99365e-05
340.481	0.604095	3.14331e-06
340.981	0.604095	5.5542e-06
341.481	0.604126	7.59583e-05
341.921	0.605347	-6.10352e-06
342.421	0.604309	2.71606e-06
342.921	0.605133	1.02234e-05
343.381	-0.499817	-0.00562866
343.861	0.60434	1.09863e-06
344.361	0.60437	6.68335e-06
344.821	-0.499847	-0.00281494
345.301	0.604614	5.49316e-07
345.801	0.604614	8.23975e-07
346.281	0.000592041	0.00222504
346.741	0.604828	-3.05176e-07
347.241	0.605164	-2.7771e-06
347.721	-0.000314331	-4.94385e-05
348.181	0.605072	-2.83813e-06
348.681	0.605164	-8.23975e-07
349.181	0.605408	7.17163e-05
349.621	0.604553	-7.62939e-07
350.121	0.605042	-3.14331e-06
350.621	0.604065	1.96533e-05
351.081	-0.499878	-0.00585205
351.561	0.604065	2.44141e-06
352.061	0.604767	7.35474e-06
352.521	-0.498901	-0.00286896
353.001	0.605377	-4.73022e-06
353.501	0.605164	9.46045e-07
353.981	-0.000164795	0.0024173
354.441	0.603973	4.54712e-06
354.941	0.605225	-1.61743e-06
355.421	-0.000332642	-4.11377e-05
355.881	0.604584	9.46045e-07
356.381	0.605133	-1.77002e-06
356.881	0.604004	8.35266e-05
357.321	0.604767	-3.05176e-08
357.821	0.604614	2.04468e-06
358.321	0.604004	2.05383e-05
358.781	-0.498749	-0.00608032
359.261	0.60437	1.86157e-06
359.761	0.604889	7.01904e-06
360.221	-0.499847	-0.00291565
360.701	0.605011	-3.14331e-06
361.201	0.605133	3.17383e-06
361.681	0.000250244	0.00259857
362.141	0.605042	-3.69263e-06
362.641	0.604065	4.60815e-06
363.121	0.000860596	-3.77197e-05
363.581	0.604553	5.49316e-07
364.081	0.604034	3.78418e-06
364.581	0.604156	8.48999e-05
365.021	0.604492	-2.13623e-07
365.521	0.604279	4.42505e-06
366.021	0.60495	1.55029e-05
366.481	-0.499969	-0.00629303
366.961	0.605164	-4.15039e-06
367.461	0.604614	7.32422e-06
367.921	-0.499939	-0.00296936
368.401	0.605133	-6.10352e-07
368.901	0.604279	7.53784e-06
369.381	0.000894165	0.00276917
369.841	0.604706	-2.04468e-06
370.341	0.604095	6.01196e-06
370.821	0.000695801	-2.59399e-05
371.281	0.604431	-1.09863e-06
371.781	0.605042	-1.58691e-06
372.281	0.605133	8.00781e-05
372.721	0.604706	-2.10571e-06
373.221	0.605194	-3.26538e-06
373.721	0.605347	1.28784e-05
374.181	-0.499451	-0.00651428
374.661	0.604187	3.2959e-06
375.161	0.605011	6.86646e-06
375.621	-0.499359	-0.00302917
376.101	0.604187	3.78418e-06
376.601	0.605286	1.40381e-06
377.081	-3.05176e-05	0.0029538
377.541	0.604065	4.27246e-06
378.041	0.604401	5.64575e-06
378.521	-0.000308228	-1.19019e-06
378.981	0.604553	2.13623e-07
379.481	0.60437	5.52368e-06
379.981	0.605316	8.1665e-05
380.421	0.604095	3.35693e-06
380.921	0.605072	-2.13623e-07
381.421	0.604065	2.20642e-05
381.881	-0.498535	-0.00674194
382.361	0.604858	-2.44141e-06
382.861	0.605133	5.52368e-06
383.321	-0.499176	-0.0030896
383.801	0.60434	1.19019e-06
384.301	0.605133	1.12915e-06
384.781	-0.000274658	0.00312561
385.241	0.604462	3.41797e-06
385.741	0.605072	1.52588e-07
386.221	-0.000363159	1.44348e-05
386.681	0.604553	-7.32422e-07
387.181	0.604889	-6.71387e-07
387.681	0.604248	9.39026e-05
388.121	0.605103	-2.13623e-06
388.621	0.604492	1.34277e-06
389.121	0.604004	2.19116e-05
389.581	-0.498932	-0.00696289
390.061	0.604614	7.01904e-07
390.561	0.605377	4.02832e-06
391.021	-0.499939	-0.00314819
391.501	0.604675	5.79834e-07
392.001	0.605377	1.28174e-06
392.481	-0.00038147	0.00329193
392.941	0.604828	-5.18799e-07
393.441	0.605255	1.31226e-06
393.921	9.76562e-05	2.65808e-05
394.381	0.60437	2.19727e-06
394.881	0.605316	-1.06812e-06
395.381	0.605286	8.7738e-05
395.821	0.604187	3.93677e-06
396.321	0.604034	4.42505e-06
396.821	0.604126	2.37122e-05
397.281	-0.499359	-0.00717316
397.761	0.604645	2.28882e-06
398.261	0.604187	1.22986e-05
398.721	-0.49939	-0.00321381
399.201	0.604706	9.46045e-07
399.701	0.604736	3.72314e-06
400.181	-0.000244141	0.00345367
400.641	0.604553	-8.23975e-07
401.141	0.604462	4.3335e-06
401.621	-0.000402832	5.52063e-05
402.081	0.604309	1.09863e-06
402.581	0.604065	6.7749e-06
403.081	0.605286	9.021e-05
403.521	0.605286	-5.06592e-06
404.021	0.605225	-3.2959e-06
404.521	0.604156	2.11182e-05
404.981	-0.498962	-0.00740051
405.461	0.604065	4.91333e-06
405.961	0.605347	5.06592e-06
406.421	-0.499786	-0.00328156
406.901	0.605042	-2.99072e-06
407.401	0.605286	6.40869e-07
407.881	-0.000189209	0.0036145
408.341	0.604065	3.63159e-06
408.841	0.604065	7.08008e-06
409.321	0.000802612	6.80847e-05
409.781	0.604797	-2.7771e-06
410.281	0.604095	5.61523e-06
410.781	0.604187	0.000100708
411.221	0.60434	1.64795e-06
411.721	0.604553	3.23486e-06
412.221	0.604797	1.81274e-05
412.681	-0.498566	-0.00761414
413.161	0.605316	-5.43213e-06
413.661	0.605255	5.70679e-06
414.121	-0.499969	-0.00334717
414.601	0.604584	2.56348e-06
415.101	0.605194	9.46045e-07
415.581	0.000839233	0.00375885
416.041	0.605255	-3.38745e-06
416.541	0.604126	7.75146e-06
417.021	-0.000262451	9.96399e-05
417.481	0.603973	4.27246e-06
417.981	0.605225	-1.77002e-06
418.481	0.604187	0.000103149
418.921	0.604462	1.77002e-06
419.421	0.604584	1.61743e-06
419.921	0.604614	1.83716e-05
420.381	-0.499786	-0.00781555
420.861	0.605255	-2.89917e-06
421.361	0.603973	1.34277e-05
421.821	-0.499603	-0.00341827
422.301	0.605103	-2.99072e-06
422.801	0.604156	7.38525e-06
423.281	-0.00038147	0.00391418
423.741	0.605225	-4.94385e-06
424.241	0.605103	2.34985e-06
424.721	0.000613403	0.000124298
425.181	0.605133	-3.38745e-06
425.681	0.603943	7.14111e-06
426.181	0.60434	0.00010611
426.621	0.604675	-1.70898e-06
427.121	0.603912	5.00488e-06
427.621	0.604584	1.9928e-05
428.081	-0.498444	-0.00802917
428.561	0.605133	-1.25122e-06
429.061	0.605225	5.06592e-06
429.521	-0.5	-0.00348663
430.001	0.605133	-6.10352e-07
430.501	0.605072	2.28882e-06
430.981	-0.000125122	0.00405212
431.441	0.60434	3.23486e-06
431.941	0.605408	-8.8501e-07
432.421	0.000152588	0.00015329
432.881	0.605408	-4.48608e-06
433.381	0.604187	5.88989e-06
433.881	0.604065	0.000111633
434.321	0.605347	-5.79834e-06
434.821	0.605194	-2.41089e-06
435.321	0.605164	1.9043e-05
435.781	-0.499756	-0.00823059
436.261	0.604523	1.06812e-06
436.761	0.604248	1.32446e-05
437.221	-0.499237	-0.00356079
437.701	0.604065	5.21851e-06
438.201	0.605347	-7.93457e-07
438.681	-0.000421143	0.00418884
439.141	0.605347	-4.66919e-06
439.641	0.604309	3.93677e-06
440.121	0.000561523	0.0001796875
440.581	0.604187	2.68555e-06
441.081	0.604675	4.11987e-06
441.581	0.604218	0.000114258
442.021	0.604584	-3.96729e-07
442.521	0.604401	1.5564e-06
443.021	0.605347	1.77002e-05
443.481	-0.49884	-0.0084259
443.961	0.604584	3.11279e-06
444.461	0.604034	1.51062e-05
444.921	-0.499603	-0.00363098
445.401	0.604889	6.71387e-07
445.901	0.605316	1.15967e-06
446.381	0.000857544	0.00431335
446.841	0.605316	-5.21851e-06
447.341	0.605286	-1.86157e-06
447.821	-0.000259399	0.00022168
448.281	0.605377	-4.60815e-06
448.781	0.604736	1.09863e-06
449.281	0.604706	0.000113861
449.721	0.604462	2.41089e-06
450.221	0.604706	6.40869e-07
450.721	0.604462	2.38647e-05
451.181	-0.499664	-0.00862732
451.661	0.604462	1.83105e-06
452.161	0.605286	5.98145e-06
452.621	-0.499451	-0.00370209
453.101	0.604034	5.0354e-06
453.601	0.604645	5.82886e-06
454.081	-0.000384521	0.00444977
454.541	0.604309	2.0752e-06
455.041	0.60498	1.00708e-06
455.521	-0.000302124	0.000257202
455.981	0.604919	-2.28882e-06
456.481	0.604675	1.7395e-06
456.981	0.605438	0.000112549
457.421	0.60495	-2.56348e-06
457.921	0.604889	-4.57764e-07
458.421	0.605133	2.04773e-05
458.881	-0.498657	-0.00881958
459.361	0.605377	-3.72314e-06
459.861	0.605072	7.62939e-06
460.321	-0.49884	-0.00377838
460.801	0.60437	2.7771e-06
461.301	0.605225	2.16675e-06
461.781	-0.000363159	0.00456909
462.241	0.605164	-2.34985e-06
462.741	0.605133	4.57764e-07
463.221	0.000222778	0.000289551
463.681	0.604004	3.35693e-06
464.181	0.60434	4.45557e-06
464.681	0.605377	0.000116974
465.121	0.603973	5.15747e-06
465.621	0.605164	-2.2583e-06
466.121	0.604218	2.75879e-05
466.581	-0.499573	-0.00900269
467.061	0.605347	-3.17383e-06
467.561	0.604034	1.52283e-05
468.021	-0.498657	-0.00385315
468.501	0.604675	9.46045e-07
469.001	0.604248	8.75854e-06
469.481	-0.000411987	0.00468628
469.941	0.604309	3.57056e-06
470.441	0.603973	8.45337e-06
470.921	0.000650024	0.000323975
471.381	0.604218	3.69263e-06
471.881	0.604065	6.62231e-06
472.381	0.604523	0.000124817
472.821	0.604309	1.58691e-06
473.321	0.604401	3.96729e-06
473.821	0.604187	2.68555e-05
474.281	-0.499023	-0.00918884
474.761	0.605377	-3.69263e-06
475.261	0.604584	1.27869e-05
475.721	-0.499878	-0.00391876
476.201	0.604492	6.71387e-07
476.701	0.604858	5.79834e-06
477.181	0.000775146	0.00478912
477.641	0.605316	-4.24194e-06
478.141	0.605316	-1.52588e-07
478.621	0.000665283	0.000363342
479.081	0.605286	-3.38745e-06
479.581	0.604706	2.19727e-06
480.081	0.605194	0.000124908
480.521	0.605286	-4.15039e-06
481.021	0.604187	4.94385e-06
481.521	0.605316	1.90735e-05
481.981	-0.499603	-0.00936584
482.461	0.604462	2.53296e-06
482.961	0.605377	7.01904e-06
483.421	-0.498871	-0.00400024
483.901	0.604492	2.28882e-06
484.401	0.605316	1.95313e-06
484.881	0.00043335	0.00489441
485.341	0.604279	3.38745e-06
485.841	0.604126	8.8501e-06
486.321	0.000473022	0.000403992
486.781	0.604401	1.64795e-06
487.281	0.604004	7.26318e-06
487.781	0.604492	0.00013266
488.221	0.604462	1.34277e-06
488.721	0.604645	1.80054e-06
489.221	0.604065	2.95715e-05
489.681	-0.499695	-0.00954895
490.161	0.604462	2.34985e-06
490.661	0.604187	1.49231e-05
491.121	-0.498901	-0.00407776
491.601	0.605255	-2.68555e-06
492.101	0.605225	2.7771e-06
492.581	-0.000332642	0.00500488
493.041	0.605225	-3.26538e-06
493.541	0.60495	2.28882e-06
494.021	-0.00010376	0.000451111
494.481	0.605347	-4.5166e-06
494.981	0.604034	7.90405e-06
495.481	0.605377	0.000130859
495.921	0.604156	3.08228e-06
496.421	0.60495	9.76562e-07
496.921	0.604004	2.93579e-05
497.381	-0.499664	-0.00971985
497.861	0.605347	-3.63159e-06
498.361	0.605103	9.27734e-06
498.821	-0.499847	-0.00414429
499.301	0.604218	3.17383e-06
499.801	0.605316	3.26538e-06
500.281	0.000616455	0.00509521
500.741	0.604797	-1.28174e-06
501.241	0.604065	9.765625E-06
501.721	0.000918579	0.000488281
502.181	0.604065	4.21143e-06
502.681	0.604645	3.26538e-06
503.181	0.604614	0.000140259
503.621	0.605133	-2.53296e-06
504.121	0.604584	2.22778e-06
504.621	0.605255	2.12097e-05
505.081	-0.499725	-0.0098938
505.561	0.604553	2.65503e-06
506.061	0.605286	7.47681e-06
506.521	-0.499115	-0.00422821
507.001	0.605164	-3.08228e-06
507.501	0.604828	6.7749e-06
507.981	-4.57764e-05	0.00519135
508.441	0.604126	4.27246e-06
508.941	0.604065	1.03455e-05
509.421	0.000595093	0.000536194
509.881	0.605255	-4.15039e-06
510.381	0.604919	2.19727e-06
510.881	0.605164	0.00014093
511.321	0.604553	5.49316e-07
511.821	0.605133	-1.15967e-06
512.322	0.604401	2.76794e-05
512.782	-0.499573	-0.0100647
513.262	0.605011	-1.77002e-06
513.762	0.604828	1.04065e-05
514.222	-0.498657	-0.00430847
514.702	0.605347	-3.60107e-06
515.202	0.604095	1.17493e-05
515.682	0.000375366	0.00527985
516.142	0.604034	5.7373e-06
516.642	0.605194	1.2207e-07
517.122	-5.49316e-05	0.000585022
517.582	0.604767	-1.37329e-06
518.082	0.603943	7.84302e-06
518.582	0.604462	0.00015274
519.022	0.604187	1.52588e-06
519.522	0.604095	7.1106e-06
520.022	0.603973	3.14941e-05
520.482	-0.498993	-0.0102325
520.962	0.605164	-1.15967e-06
521.462	0.605133	8.30078e-06
521.922	-0.499115	-0.00438477
522.402	0.605377	-3.69263e-06
522.902	0.604645	8.30078e-06
523.382	0.000390625	0.00536163
523.842	0.60495	-1.34277e-06
524.342	0.604065	9.765625E-06
524.822	-6.71387e-05	0.000628052
525.282	0.604309	2.0752e-06
525.782	0.604095	8.45337e-06
526.282	0.604218	0.000157959
526.722	0.604126	3.2959e-06
527.222	0.604065	6.28662e-06
527.722	0.604248	3.07922e-05
528.182	-0.499756	-0.0103851
528.662	0.604126	6.10352e-06
529.162	0.605347	7.78198e-06
529.622	-0.498932	-0.00446564
530.102	0.605286	-2.47192e-06
530.602	0.604675	7.62939e-06
531.082	3.66211e-05	0.00544922
531.542	0.604828	-9.15527e-08
532.042	0.604462	6.89697e-06
532.522	-0.00017395	0.000675964
532.982	0.604431	7.32422e-07
533.482	0.604614	3.54004e-06
533.982	0.605164	0.000157959
534.422	0.604797	2.13623e-07
534.922	0.605225	-1.25122e-06
535.422	0.604858	2.89307e-05
535.882	-0.498566	-0.0105499
536.362	0.605194	-1.40381e-06
536.862	0.603973	1.74866e-05
537.322	-0.499908	-0.00453339
537.802	0.605255	-3.11279e-06
538.302	0.604919	3.66211e-06
538.782	0.000717163	0.00551849
539.242	0.604889	9.15527e-07
539.742	0.603973	9.73511e-06
540.222	0.000134277	0.000722656
540.682	0.604614	7.01904e-07
541.182	0.604675	6.10352e-07
541.682	0.604156	0.000168365
542.122	0.605225	-3.9978e-06
542.622	0.605194	1.15967e-06
543.122	0.605164	2.52075e-05
543.582	-0.498352	-0.0106964
544.062	0.605042	-1.83105e-06
544.562	0.605011	1.09863e-05
545.022	-0.499847	-0.00460815
545.502	0.605011	1.15967e-06
546.002	0.604126	1.16272e-05
546.482	0.000836182	0.00559509
546.942	0.604553	3.2959e-06
547.442	0.604767	3.50952e-06
547.922	-0.000183105	0.000768127
548.382	0.605194	-3.93677e-06
548.882	0.604034	7.78198e-06
549.382	0.60498	0.000169861
549.822	0.605011	-4.18091e-06
550.322	0.604126	5.27954e-06
550.822	0.604095	3.34778e-05
551.282	-0.499023	-0.0108459
551.762	0.604309	4.21143e-06
552.262	0.604614	1.41602e-05
552.722	-0.499237	-0.00469208
553.202	0.604858	0
553.702	0.605255	2.68555e-06
554.182	0.000857544	0.00566528
554.642	0.605225	-2.99072e-06
555.142	0.604401	7.01904e-06
555.622	-7.62939e-05	0.000809631
556.082	0.604156	4.24194e-06
556.582	0.604065	8.3313e-06
557.082	0.604218	0.000179749
557.522	0.604248	2.89917e-06
558.022	0.605347	-1.43433e-06
558.522	0.605225	2.64587e-05
558.982	-0.499786	-0.0109863
559.462	0.605316	-4.5166e-06
559.962	0.604034	1.9043e-05
560.422	-0.498535	-0.00477051
560.902	0.605408	-1.58691e-06
561.402	0.604004	1.24817e-05
561.882	-0.000100708	0.00574005
562.342	0.604889	1.19019e-06
562.842	0.604034	8.94165e-06
563.322	0.000958252	0.000851746
563.782	0.605377	-1.15967e-06
564.282	0.604218	6.31714e-06
564.782	0.605316	0.000178589
565.222	0.605377	-3.479e-06
565.722	0.604858	-1.0376e-06
566.222	0.604004	3.49121e-05
566.682	-0.49939	-0.0111328
567.162	0.605377	-2.65503e-06
567.662	0.603973	1.92566e-05
568.122	-0.499939	-0.00483856
568.602	0.605316	-3.38745e-06
569.102	0.604065	1.37024e-05
569.582	0.000262451	0.00580078
570.042	0.604126	4.21143e-06
570.542	0.605133	2.31934e-06
571.022	0.000634766	0.000900574
571.482	0.605194	-3.20435e-06
571.982	0.604095	7.78198e-06
572.482	0.604218	0.000193481
572.922	0.604126	4.76074e-06
573.422	0.605194	-8.23975e-07
573.922	0.605316	2.57874e-05
574.382	-0.499298	-0.0112579
574.862	0.604095	5.52368e-06
575.362	0.60434	1.828e-05
575.822	-0.498627	-0.0049231
576.302	0.604523	1.40381e-06
576.802	0.604584	8.66699e-06
577.282	0.000814819	0.00585907
577.742	0.604919	-5.79834e-07
578.242	0.605347	1.40381e-06
578.722	0.000888062	0.000943298
579.182	0.604431	1.89209e-06
579.682	0.605316	-1.2207e-07
580.182	0.604248	0.000200195
580.622	0.605347	-4.11987e-06
581.122	0.605164	-6.10352e-08
581.622	0.604156	3.51257e-05
582.082	-0.498535	-0.0114044
582.562	0.604401	3.66211e-06
583.062	0.605072	1.18713e-05
583.522	-0.499023	-0.00499542
584.002	0.605103	-2.80762e-06
584.502	0.604248	1.11084e-05
584.982	-0.000143433	0.00592377
585.442	0.605072	-1.09863e-06
585.942	0.604401	7.26318e-06
586.422	0.000735474	0.000992126
586.882	0.604126	4.08936e-06
587.382	0.604736	3.02124e-06
587.882	0.604187	0.000207092
588.322	0.604065	3.9978e-06
588.822	0.604767	7.62939e-07
589.322	0.605377	2.66113e-05
589.782	-0.499023	-0.0115326
590.262	0.605042	-1.83105e-06
590.762	0.605347	9.8877e-06
591.222	-0.498993	-0.00506897
591.702	0.604034	5.43213e-06
592.202	0.604248	1.09558e-05
592.682	0.000732422	0.00597229
593.142	0.605286	-2.71606e-06
593.642	0.605133	2.83813e-06
594.122	-0.000158691	0.00104523
594.582	0.604218	3.63159e-06
595.082	0.604553	3.66211e-06
595.582	0.605011	0.000211395
596.022	0.605225	-4.63867e-06
596.522	0.60434	6.53076e-06
597.022	0.604858	2.96021e-05
597.482	-0.499512	-0.0116608
597.962	0.604126	6.31714e-06
598.462	0.605286	1.06812e-05
598.922	-0.49942	-0.00513763
599.402	0.604492	2.0752e-06
599.902	0.604218	1.30615e-05
600.382	0.000357056	0.00603058
600.842	0.604401	8.54492e-07
601.342	0.604858	5.76782e-06
601.822	0.000317383	0.00108185
602.282	0.604248	3.50952e-06
602.782	0.604095	8.91113e-06
603.282	0.605255	0.000220123
603.722	0.604218	4.57764e-06
604.222	0.60495	7.93457e-07
604.722	0.604095	3.75061e-05
605.182	-0.499481	-0.0117767
605.662	0.604218	5.76782e-06
606.162	0.605133	1.0437e-05
606.622	-0.499817	-0.00521118
607.102	0.604095	5.27954e-06
607.602	0.604156	1.32751e-05
608.082	-0.000216675	0.0060791
608.542	0.604065	4.66919e-06
609.042	0.604614	8.11768e-06
609.522	3.66211e-05	0.00113434
609.982	0.60495	-1.09863e-06
610.482	0.605072	2.7771e-06
610.982	0.605377	0.000228424
611.422	0.605255	-3.90625e-06
611.922	0.60498	2.56348e-06
612.422	0.605103	2.91748e-05
612.882	-0.498413	-0.0119049
613.362	0.605042	1.34277e-06
613.862	0.605072	1.2207e-05
614.322	-0.499939	-0.00528168
614.802	0.605225	-2.7771e-06
615.302	0.604614	8.91113e-06
615.782	-0.000119019	0.00613159
616.242	0.604065	5.40161e-06
616.742	0.60495	3.26538e-06
617.222	0.000872803	0.00117035
617.682	0.604828	9.15527e-08
618.182	0.604553	6.22559e-06
618.682	0.604492	0.000247437
619.122	0.605347	-4.79126e-06
619.622	0.604065	7.32422e-06
620.122	0.605316	2.88086e-05
620.582	-0.499268	-0.0120148
621.062	0.604889	1.2207e-06
621.562	0.604126	2.13013e-05
622.022	-0.499176	-0.00536041
622.502	0.604065	5.43213e-06
623.002	0.604675	1.19629e-05
623.482	-0.000405884	0.0061734
623.942	0.605286	-2.65503e-06
624.442	0.605286	7.62939e-07
624.922	0.00083313	0.00121643
625.382	0.604889	6.10352e-08
625.882	0.604218	6.89697e-06
626.382	0.604492	0.000261139
626.822	0.604156	3.38745e-06
627.322	0.604034	8.66699e-06
627.822	0.604523	3.41797e-05
628.282	-0.498993	-0.0121429
628.762	0.604187	5.7373e-06
629.262	0.605164	1.3092e-05
629.722	-0.499817	-0.00542786
630.202	0.604584	1.52588e-07
630.702	0.604279	1.24817e-05
631.182	0.000570679	0.00621216
631.642	0.604095	4.66919e-06
632.142	0.604675	5.85937e-06
632.622	3.66211e-05	0.00125977
633.082	0.604889	-1.25122e-06
633.582	0.605103	1.40381e-06
634.082	0.604675	0.000277344
634.522	0.60495	-1.70898e-06
635.022	0.604126	6.19507e-06
635.522	0.604095	3.91235e-05
635.982	-0.498718	-0.0122681
636.462	0.605133	-3.66211e-07
636.962	0.604309	1.85242e-05
637.422	-0.499451	-0.00550781
637.902	0.604065	6.92749e-06
638.402	0.605286	4.79126e-06
638.882	-0.000460815	0.00626007
639.342	0.604126	5.61523e-06
639.842	0.604156	1.01318e-05
640.322	-0.000170898	0.00130646
640.782	0.605164	-2.01416e-06
641.282	0.604156	7.96509e-06
641.782	0.604858	0.000300385
642.222	0.60437	1.43433e-06
642.722	0.605316	-5.79834e-07
643.222	0.60498	3.18298e-05
643.682	-0.499573	-0.0123657
644.162	0.603973	6.83594e-06
644.662	0.604126	2.1698e-05
645.122	-0.499054	-0.00558289
645.602	0.60498	3.05176e-08
646.102	0.605286	5.95093e-06
646.582	-0.000457764	0.00629761
647.042	0.605377	-2.59399e-06
647.542	0.604431	7.20215e-06
648.022	1.52588e-05	0.0013443
648.482	0.605347	-2.99072e-06
648.982	0.604248	6.10352e-06
649.482	0.60556	0.000323578
649.922	0.605255	-3.87573e-06
650.422	0.604218	6.95801e-06
650.922	0.604919	3.34167e-05
651.382	-0.499664	-0.0124786
651.862	0.605377	-2.41089e-06
652.362	0.604645	1.80359e-05
652.822	-0.498657	-0.00565735
653.302	0.604614	2.31934e-06
653.802	0.604889	9.52148e-06
654.282	0.000738525	0.00632446
654.742	0.604919	2.44141e-07
655.242	0.605164	3.05176e-06
655.722	0.000314331	0.00138275
656.182	0.605408	-3.17383e-06
656.682	0.605011	2.10571e-06
657.182	0.604706	0.000373474
657.622	0.605377	-3.44849e-06
658.122	0.604248	6.10352e-06
658.622	0.605072	3.3783e-05
659.082	-0.498718	-0.0125946
659.562	0.604736	1.70898e-06
660.062	0.604431	2.14233e-05
660.522	-0.499847	-0.00572174
661.002	0.605286	-2.74658e-06
661.502	0.603973	1.66931e-05
661.982	0.000616455	0.00636444
662.442	0.60498	-1.86157e-06
662.942	0.604889	7.32422e-06
663.422	-0.000366211	0.00142975
663.882	0.605133	-1.09863e-06
664.382	0.605194	-6.10352e-08
664.882	0.60553	0.000426331
665.322	0.604858	-6.10352e-07
665.822	0.604828	1.15967e-06
666.322	0.604614	3.69263e-05
666.782	-0.499084	-0.0127136
667.262	0.604797	3.57056e-06
667.762	0.605194	1.31531e-05
668.222	-0.498993	-0.00579865
668.702	0.605347	-2.44141e-06
669.202	0.605225	7.17163e-06
669.682	0.000283813	0.00639374
670.142	0.605164	-2.47192e-06
670.642	0.605042	3.57056e-06
671.122	0.000479126	0.00146423
671.582	0.604095	4.5166e-06
672.082	0.604675	5.00488e-06
672.582	0.604553	0.000525208
673.022	0.605011	-3.8147e-06
673.522	0.60434	5.98145e-06
674.022	0.604645	3.7262e-05
674.482	-0.499542	-0.0128052
674.962	0.604218	5.43213e-06
675.462	0.604309	2.01416e-05
675.922	-0.499603	-0.00586914
676.402	0.604431	4.63867e-06
676.902	0.604156	1.4679e-05
677.382	0.000299072	0.00642578
677.842	0.60434	4.30298e-06
678.342	0.60437	8.45337e-06
678.822	0.000820923	0.00150055
679.282	0.605194	-2.47192e-06
679.782	0.604156	9.18579e-06
680.282	0.605316	0.000653076
680.722	0.604675	1.00708e-06
681.222	0.605286	-3.05176e-07
681.722	0.604645	3.76282e-05
682.182	-0.498932	-0.0129181
682.662	0.604187	6.10352e-06
683.162	0.604126	2.23389e-05
683.622	-0.499786	-0.00593903
684.102	0.604095	6.16455e-06
684.602	0.604889	9.21631e-06
685.082	0.000247192	0.00645386
685.542	0.604706	1.31226e-06
686.042	0.604675	6.7749e-06
686.522	-0.000384521	0.00154541
686.982	0.604095	5.43213e-06
687.482	0.604462	5.37109e-06
687.982	0.605072	0.000858154
688.422	0.605164	-2.53296e-06
688.922	0.605316	-9.76562e-07
689.422	0.605103	3.44238e-05
689.882	-0.498901	-0.0130188
690.362	0.604767	2.22778e-06
690.862	0.605164	1.34583e-05
691.322	-0.499786	-0.00600739
691.802	0.605347	-2.68555e-06
692.302	0.603973	1.53503e-05
692.782	-0.000506592	0.00648895
693.242	0.604065	5.67627e-06
693.742	0.604675	8.66699e-06
694.222	0.000509644	0.00157867
694.682	0.605316	-4.30298e-06
695.182	0.604095	9.61304e-06
695.682	0.604736	0.00120514
696.122	0.604706	3.05176e-08
696.622	0.604248	7.17163e-06
697.122	0.605377	3.46985e-05
697.582	-0.498932	-0.0131073
698.062	0.605164	-1.09863e-06
698.562	0.605133	1.36414e-05
699.022	-0.498688	-0.00608948
699.502	0.604401	2.83813e-06
700.002	0.604156	1.37939e-05
700.482	-0.000186157	0.00651794
700.942	0.604065	5.49316e-06
701.442	0.604279	1.02234e-05
701.922	0.000717163	0.00161102
702.382	0.604431	2.38037e-06
702.882	0.604126	9.00269e-06
703.382	0.605927	0.0017569
703.822	0.604279	2.59399e-06
704.322	0.605377	-1.2207e-07
704.822	0.604034	4.2572e-05
705.282	-0.498322	-0.0132111
705.762	0.605377	-2.19727e-06
706.262	0.604736	1.79138e-05
706.722	-0.499512	-0.00615112
707.202	0.604797	7.01904e-07
707.702	0.604034	1.57471e-05
708.182	0.000216675	0.00653503
708.642	0.60495	-7.01904e-07
709.142	0.605164	3.26538e-06
709.622	0.000741577	0.00164734
710.082	0.604034	6.16455e-06
710.582	0.604584	5.43213e-06
711.082	0.60498	0.00268921
711.522	0.60437	1.49536e-06
712.022	0.604279	7.17163e-06
712.522	0.604095	4.18091e-05
712.982	-0.499542	-0.0132996
713.462	0.604431	4.45557e-06
713.962	0.604584	1.95618e-05
714.422	-0.498566	-0.0062265
714.902	0.604889	4.27246e-07
715.402	0.604156	1.60217e-05
715.882	0.000418091	0.00656372
716.342	0.605255	-3.2959e-06
716.842	0.605469	2.41089e-06
717.322	0.000482178	0.00169067
717.782	0.605286	-3.72314e-06
718.282	0.605225	1.06812e-06
718.782	0.605957	0.00402863
719.222	0.605347	-3.75366e-06
719.722	0.605072	4.88281e-07
720.222	0.604736	4.01611e-05
720.682	-0.49884	-0.0133881
721.162	0.604767	3.14331e-06
721.662	0.604675	1.67542e-05
722.122	-0.498932	-0.0062912
722.602	0.604675	1.70898e-06
723.102	0.604218	1.37634e-05
723.582	0.000241089	0.00658264
724.042	0.603943	6.16455e-06
724.542	0.604523	9.18579e-06
725.022	0.00065918	0.00171936
725.482	0.604523	3.05176e-07
725.982	0.604065	9.79614e-06
726.482	0.60553	0.0055249
726.922	0.605408	-4.27246e-06
727.422	0.604065	8.75854e-06
727.922	0.605164	3.65295e-05
728.382	-0.499634	-0.0134766
728.862	0.604523	4.3335e-06
729.362	0.605042	1.63574e-05
729.822	-0.499908	-0.00634827
730.302	0.605011	5.49316e-07
730.802	0.604675	9.3689e-06
731.282	0.000149536	0.00660736
731.742	0.605164	-1.67847e-06
732.242	0.604248	9.91821e-06
732.722	0.000811768	0.00175385
733.182	0.604034	5.58472e-06
733.682	0.60434	8.54492e-06
734.182	0.604462	0.00648315
734.622	0.60495	-5.79834e-07
735.122	0.604279	6.50024e-06
735.622	0.605438	3.51868e-05
736.082	-0.49826	-0.013562
736.562	0.604401	4.76074e-06
737.062	0.603973	2.33765e-05
737.522	-0.499573	-0.00641388
738.002	0.605438	-1.5564e-06
738.502	0.605408	5.49316e-06
738.982	0.000854492	0.00662567
739.442	0.604309	3.23486e-06
739.942	0.60437	1.07727e-05
740.422	0.00101318	0.00179077
740.882	0.604584	1.31226e-06
741.382	0.605286	4.88281e-07
741.882	0.604706	0.00705139
742.322	0.604736	1.2207e-07
742.822	0.605438	-1.0376e-06
743.322	0.604431	4.31213e-05
743.782	-0.498474	-0.0136444
744.262	0.60495	1.46484e-06
744.762	0.604126	2.49023e-05
745.222	-0.499939	-0.006474
745.702	0.605255	-9.15527e-08
746.202	0.605408	6.7749e-06
746.682	0.000750732	0.00664673
747.142	0.604523	1.06812e-06
747.642	0.605133	4.97437e-06
748.122	0.000582886	0.00182312
748.582	0.604065	4.97437e-06
749.082	0.604156	9.58252e-06
749.582	0.605499	0.00747375
750.022	0.604034	6.16455e-06
750.522	0.605103	5.79834e-07
751.022	0.605042	3.74451e-05
751.482	-0.498749	-0.0137207
751.962	0.60498	1.80054e-06
752.462	0.604706	2.14539e-05
752.922	-0.499146	-0.00654205
753.402	0.604431	4.97437e-06
753.902	0.605286	9.30786e-06
754.382	-0.000341797	0.00667633
754.842	0.604126	5.27954e-06
755.342	0.605316	5.95093e-06
755.822	-0.000469971	0.00186218
756.282	0.604675	6.40869e-07
756.782	0.604736	3.23486e-06
757.282	0.603943	0.00782471
757.722	0.605072	-6.71387e-07
758.222	0.605164	-3.05176e-07
758.722	0.605164	3.91235e-05
759.182	-0.498932	-0.0138031
759.662	0.604126	7.08008e-06
760.162	0.605072	1.76086e-05
760.622	-0.499573	-0.00659729
761.102	0.60495	4.88281e-07
761.602	0.605316	8.30078e-06
762.082	0.000424194	0.00668396
762.542	0.605133	-1.00708e-06
763.042	0.604797	4.85229e-06
763.522	0.000787354	0.00188629
763.982	0.604462	3.96729e-06
764.482	0.604401	6.40869e-06
764.982	0.604919	0.00811157
765.422	0.605194	-1.92261e-06
765.922	0.605042	1.7395e-06
766.422	0.604675	4.15649e-05
766.882	-0.498627	-0.0138824
767.362	0.60437	5.0354e-06
767.862	0.605133	1.70288e-05
768.322	-0.499603	-0.00665924
768.802	0.605377	-2.41089e-06
769.302	0.605225	8.60596e-06
769.782	-0.000323486	0.00671021
770.242	0.605103	-7.32422e-07
770.742	0.604034	1.24512e-05
771.222	-0.000393677	0.0019278
771.682	0.604034	6.83594e-06
772.182	0.604309	7.14111e-06
772.682	0.604431	0.00836792
773.122	0.60498	4.88281e-07
773.622	0.605316	-8.8501e-07
774.122	0.604614	4.14734e-05
774.582	-0.499054	-0.0139587
775.062	0.605316	-9.76562e-07
775.562	0.604279	2.17285e-05
776.022	-0.499817	-0.00671387
776.502	0.60437	4.15039e-06
777.002	0.605438	7.47681e-06
777.482	0.000692749	0.0067218
777.942	0.605103	-1.25122e-06
778.442	0.604401	1.0376e-05
778.922	0.000744629	0.00194794
779.382	0.604065	7.04956e-06
779.882	0.603943	1.08643e-05
780.382	0.603851	0.00859985
780.822	0.604095	5.40161e-06
781.322	0.604645	6.28662e-06
781.822	0.605377	3.91541e-05
782.282	-0.499603	-0.0140167
782.762	0.605225	1.0376e-06
783.262	0.604279	2.27356e-05
783.722	-0.498444	-0.00678253
784.202	0.604431	3.2959e-06
784.702	0.605072	1.02539e-05
785.182	0.000531006	0.00673431
785.642	0.604645	4.48608e-06
786.142	0.604218	1.06201e-05
786.622	0.00083313	0.00197968
787.082	0.604095	7.1106e-06
787.582	0.604706	5.37109e-06
788.082	0.604736	0.00881348
788.522	0.605225	-1.92261e-06
789.022	0.604218	8.5144e-06
789.522	0.604828	4.38538e-05
789.982	-0.499512	-0.0140869
790.462	0.605194	-3.66211e-07
790.962	0.604675	2.19727e-05
791.422	-0.499207	-0.00683563
791.902	0.605347	-2.38037e-06
792.402	0.604401	1.54724e-05
792.882	0.000744629	0.00675049
793.342	0.604156	4.79126e-06
793.842	0.605225	4.05884e-06
794.322	0.000683594	0.00200897
794.782	0.604004	5.79834e-06
795.282	0.605408	8.8501e-07
795.782	0.603821	0.00900574
796.222	0.604095	5.82886e-06
796.722	0.604584	4.73022e-06
797.222	0.604126	4.92859e-05
797.682	-0.49823	-0.0141632
798.162	0.605103	3.05176e-08
798.662	0.605072	1.80664e-05
799.122	-0.498505	-0.00689697
799.602	0.604828	1.31226e-06
800.102	0.605011	9.42993e-06
800.582	0.000796509	0.00676178
801.042	0.604492	3.479e-06
801.542	0.605377	4.54712e-06
802.022	0.000894165	0.00203888
802.482	0.604492	2.22778e-06
802.982	0.605225	2.0752e-06
803.482	0.605011	0.00918274
803.922	0.604065	6.19507e-06
804.422	0.604187	7.90405e-06
804.922	0.604431	4.67529e-05
805.382	-0.498444	-0.0142273
805.862	0.605011	3.05176e-07
806.362	0.604614	2.19116e-05
806.822	-0.49884	-0.00695007
807.302	0.605225	-1.31226e-06
807.802	0.605286	9.12476e-06
808.282	-0.000494385	0.00678314
808.742	0.604034	7.01904e-06
809.242	0.604462	1.08948e-05
809.722	0.000674438	0.00206696
810.182	0.605347	-3.20435e-06
810.682	0.60498	4.36401e-06
811.182	0.603668	0.00936279
811.622	0.604645	1.31226e-06
812.122	0.605194	1.92261e-06
812.622	0.603912	4.93774e-05
813.082	-0.499481	-0.0142853
813.562	0.604584	2.59399e-06
814.062	0.605164	1.63574e-05
814.522	-0.498993	-0.00700378
815.002	0.604095	6.5918e-06
815.502	0.605286	7.20215e-06
815.982	-0.000366211	0.00678955
816.442	0.603973	7.56836e-06
816.942	0.605133	3.66211e-06
817.422	3.05176e-05	0.00210358
817.882	0.604065	5.15747e-06
818.382	0.604614	7.1106e-06
818.882	0.603943	0.00953369
819.322	0.605286	-3.63159e-06
819.822	0.605255	4.27246e-07
820.322	0.605255	4.05579e-05
820.782	-0.499573	-0.0143524
821.262	0.603912	8.45337e-06
821.762	0.60434	2.24915e-05
822.222	-0.499817	-0.00705597
822.702	0.605408	-2.53296e-06
823.202	0.605316	8.97217e-06
823.682	0.000479126	0.0067984
824.142	0.604034	7.35474e-06
824.642	0.60437	1.10474e-05
825.122	0.000708008	0.00212067
825.582	0.604919	-2.38037e-06
826.082	0.604767	6.31714e-06
826.582	0.605011	0.00968018
827.022	0.605255	-4.24194e-06
827.522	0.605042	2.13623e-06
828.022	0.604309	4.91943e-05
828.482	-0.498566	-0.0144135
828.962	0.605408	-1.52588e-07
829.462	0.604889	1.81274e-05
829.922	-0.499481	-0.00710968
830.402	0.604828	1.64795e-06
830.902	0.604309	1.61438e-05
831.382	0.00032959	0.00680908
831.842	0.604034	7.1106e-06
832.342	0.604401	1.1261e-05
832.822	-0.000177002	0.00215607
833.282	0.604523	1.06812e-06
833.782	0.604218	9.52148e-06
834.282	0.603729	0.00983887
834.722	0.604797	-9.15527e-07
835.222	0.60437	6.65283e-06
835.722	0.605377	4.15344e-05
836.182	-0.499115	-0.0144775
836.662	0.605286	-1.37329e-06
837.162	0.605316	1.8158e-05
837.622	-0.499786	-0.00716034
838.102	0.604187	6.5918e-06
838.602	0.604675	1.38245e-05
839.082	-0.000344849	0.00682861
839.542	0.60495	1.7395e-06
840.042	0.605316	4.11987e-06
840.522	-4.27246e-05	0.00218231
840.982	0.604218	4.88281e-06
841.482	0.604431	8.08716e-06
841.982	0.605072	0.00997314
842.422	0.604462	1.7395e-06
842.922	0.605103	2.38037e-06
843.422	0.604126	5.09033e-05
843.882	-0.499207	-0.0145325
844.362	0.604462	5.40161e-06
844.862	0.605347	1.69678e-05
845.322	-0.499298	-0.00721802
845.802	0.605316	-1.92261e-06
846.302	0.605072	1.02539e-05
846.782	-0.000125122	0.00683411
847.242	0.605286	-2.7771e-06
847.742	0.605286	3.96729e-06
848.222	-0.000393677	0.00220551
848.682	0.605286	-2.10571e-06
849.182	0.604828	4.02832e-06
849.682	0.604553	0.0101288
850.122	0.605316	-2.50244e-06
850.622	0.604584	4.88281e-06
851.122	0.605469	4.41895e-05
851.582	-0.49881	-0.0146027
852.062	0.60498	7.32422e-07
852.562	0.604889	2.25525e-05
853.022	-0.499695	-0.00726929
853.502	0.604187	7.50732e-06
854.002	0.605408	7.41577e-06
854.482	-6.10352e-05	0.00683441
854.942	0.604614	1.70898e-06
855.442	0.604736	9.58252e-06
855.922	0.00101318	0.00221985
856.382	0.604675	7.93457e-07
856.882	0.605408	3.93677e-06
857.382	0.604767	0.0102631
857.822	0.60434	2.59399e-06
858.322	0.604309	9.06372e-06
858.822	0.605072	4.43726e-05
859.282	-0.499084	-0.0146667
859.762	0.60437	4.66919e-06
860.262	0.604431	2.32849e-05
860.722	-0.498657	-0.00733124
861.202	0.605194	-7.93457e-07
861.702	0.604187	1.75476e-05
862.182	-3.66211e-05	0.00684784
862.642	0.604248	4.39453e-06
863.143	0.604614	8.69751e-06
863.623	7.01904e-05	0.00224854
864.083	0.605286	-1.00708e-06
864.583	0.605347	1.31226e-06
865.083	0.604523	0.0104004
865.523	0.604034	7.14111e-06
866.023	0.604095	9.39941e-06
866.523	0.604767	4.7699e-05
866.983	-0.498718	-0.0147095
867.463	0.605377	-9.76562e-07
867.963	0.605347	1.75781e-05
868.423	-0.498993	-0.00737946
868.903	0.605347	-1.43433e-06
869.403	0.60498	1.21765e-05
869.883	-0.000488281	0.00685638
870.343	0.605408	-1.64795e-06
870.843	0.604248	1.23596e-05
871.323	0.000878906	0.00226685
871.783	0.604553	3.72314e-06
872.283	0.604889	5.52368e-06
872.783	0.603699	0.0105225
873.223	0.605255	-3.44849e-06
873.723	0.605011	2.92969e-06
874.223	0.605194	4.65088e-05
874.683	-0.499512	-0.0147583
875.163	0.604614	5.27954e-06
875.663	0.604736	2.07825e-05
876.123	-0.499725	-0.00742462
876.603	0.605225	-4.88281e-07
877.103	0.605042	9.39941e-06
877.583	0.000610352	0.00685272
878.043	0.604309	5.49316e-06
878.543	0.605072	3.93677e-06
879.023	-0.000195313	0.00229706
879.483	0.604523	3.54004e-06
879.983	0.604858	6.46973e-06
880.483	0.60495	0.0106354
880.923	0.60437	3.84521e-06
881.423	0.603943	1.01013e-05
881.643	0.605042	-1.06812e-06