File: Edgar/20240605/20240605/electrodeposition_pulsed_potential_20240605_A/pulses_1000_to_2000.txt
Time (s)	WE(1).Potential (V)	WE(1).Current (A)
893.839	-0.498291	-0.0149261
894.319	0.605164	0
894.819	0.604767	2.33459e-05
895.279	-0.498566	-0.00751648
895.759	0.60437	5.7373e-06
896.259	0.604095	1.80969e-05
896.739	-0.000448608	0.00679169
897.199	0.603973	7.2937e-06
897.699	0.604156	1.21155e-05
898.179	-0.000198364	0.0022702
898.639	0.604736	-8.23975e-07
899.139	0.605255	2.53296e-06
899.639	0.604584	0.0106415
900.079	0.604462	7.01904e-07
900.579	0.604126	8.8501e-06
901.079	0.604431	5.05066e-05
901.539	-0.498444	-0.0148468
902.019	0.60437	4.94385e-06
902.519	0.604126	2.7771e-05
902.979	-0.499329	-0.00753479
903.459	0.604492	4.36401e-06
903.959	0.605286	1.07727e-05
904.439	0.000354004	0.00682068
904.899	0.605103	-1.06812e-06
905.399	0.604187	1.23291e-05
905.879	-0.0003479	0.00230225
906.339	0.604095	5.5542e-06
906.839	0.605103	3.17383e-06
907.339	0.604126	0.0108032
907.779	0.604767	1.83105e-06
908.279	0.60498	2.71606e-06
908.779	0.604706	5.07202e-05
909.239	-0.49826	-0.0149048
909.719	0.605316	-5.49316e-07
910.219	0.604919	2.28882e-05
910.679	-0.499481	-0.00758667
911.159	0.604858	1.67847e-06
911.659	0.604156	1.78833e-05
912.139	-0.000180054	0.00684174
912.599	0.605042	-8.23975e-07
913.099	0.604218	1.36108e-05
913.579	0.000488281	0.00232666
914.039	0.605103	-1.12915e-06
914.539	0.605255	2.86865e-06
915.039	0.60434	0.0109375
915.479	0.604279	4.45557e-06
915.979	0.604645	4.66919e-06
916.479	0.604218	5.39551e-05
916.939	-0.498535	-0.0149658
917.419	0.604767	2.22778e-06
917.919	0.605286	1.88599e-05
918.379	-0.499786	-0.0076416
918.859	0.605103	-1.12915e-06
919.359	0.604065	1.87073e-05
919.839	0.000601196	0.00684387
920.299	0.604156	6.2561e-06
920.799	0.604126	1.48926e-05
921.279	0.000897217	0.00234589
921.739	0.605194	-3.2959e-06
922.239	0.605316	2.41089e-06
922.739	0.603516	0.0110596
923.179	0.604065	4.63867e-06
923.679	0.605316	1.83105e-07
924.179	0.604431	5.3009e-05
924.639	-0.499207	-0.0150024
925.119	0.604401	4.57764e-06
925.619	0.604706	2.20032e-05
926.079	-0.498932	-0.00769043
926.559	0.604736	4.15039e-06
927.059	0.603973	1.87988e-05
927.539	0.000570679	0.00685028
927.999	0.604095	5.58472e-06
928.499	0.605377	5.52368e-06
928.979	1.83105e-05	0.00237457
929.439	0.604095	6.073e-06
929.939	0.604401	8.88062e-06
930.439	0.60495	0.0111694
930.879	0.605225	-2.92969e-06
931.379	0.604248	7.93457e-06
931.879	0.605286	4.76379e-05
932.339	-0.498688	-0.0150604
932.819	0.604156	7.96509e-06
933.319	0.604065	2.74963e-05
933.779	-0.499725	-0.0077301
934.259	0.605103	1.31226e-06
934.759	0.605255	9.24683e-06
935.239	-0.000192261	0.00686035
935.699	0.60434	6.073e-06
936.199	0.605347	5.76782e-06
936.679	0.000820923	0.002388
937.139	0.604523	2.16675e-06
937.639	0.604095	1.20239e-05
938.139	0.604065	0.0112885
938.579	0.605347	-3.17383e-06
939.079	0.604279	8.23975e-06
939.579	0.605164	4.82178e-05
940.039	-0.499023	-0.0151123
940.519	0.604462	6.37817e-06
941.019	0.604401	2.44751e-05
941.479	-0.499847	-0.00777283
941.959	0.604065	6.10352e-06
942.459	0.604065	1.828e-05
942.939	-0.000177002	0.00686249
943.399	0.603943	5.7373e-06
943.899	0.604187	1.37939e-05
944.379	0.000149536	0.00241394
944.839	0.605316	-1.15967e-06
945.339	0.605042	4.91333e-06
945.839	0.605011	0.0113922
946.279	0.605225	-2.31934e-06
946.779	0.604187	8.48389e-06
947.279	0.605377	4.69666e-05
947.739	-0.498322	-0.0151703
948.219	0.605164	2.28882e-06
948.719	0.605286	1.86157e-05
949.179	-0.498718	-0.00783386
949.659	0.605286	-2.74658e-07
950.159	0.60495	1.15356e-05
950.639	0.000180054	0.00686096
951.099	0.604065	7.20215e-06
951.599	0.604126	1.3855e-05
952.079	-0.00038147	0.00243652
952.539	0.60434	3.90625e-06
953.039	0.604095	1.3031e-05
953.539	0.603882	0.011499
953.979	0.605164	-1.52588e-06
954.479	0.604126	1.03149e-05
954.979	0.604431	5.49927e-05
955.439	-0.498291	-0.0152069
955.919	0.604523	3.72314e-06
956.419	0.604675	2.40173e-05
956.879	-0.499542	-0.00786743
957.359	0.604065	6.89697e-06
957.859	0.604065	1.93787e-05
958.339	0.000576782	0.00685974
958.799	0.605286	-1.77002e-06
959.299	0.604614	9.46045e-06
959.779	0.000198364	0.00244873
960.239	0.605194	-1.86157e-06
960.739	0.605286	3.32642e-06
961.239	0.603607	0.0116058
961.679	0.605255	-2.71606e-06
962.179	0.605408	1.12915e-06
962.679	0.604309	5.63965e-05
963.139	-0.498108	-0.0152588
963.619	0.605408	-6.10352e-08
964.119	0.604187	2.70996e-05
964.579	-0.499237	-0.00793457
965.059	0.604736	5.49316e-06
965.559	0.604919	1.35193e-05
966.039	-0.000335693	0.00687164
966.499	0.603973	7.53784e-06
966.999	0.604034	1.3916e-05
967.479	0.00020752	0.00247101
967.939	0.605042	1.19019e-06
968.439	0.604095	1.11389e-05
968.939	0.604919	0.0117065
969.379	0.605469	-3.35693e-06
969.879	0.604279	8.30078e-06
970.379	0.605377	4.94995e-05
970.839	-0.499268	-0.0153015
971.319	0.605225	9.15527e-07
971.819	0.60437	2.71301e-05
972.279	-0.498932	-0.00797119
972.759	0.605194	1.19019e-06
973.259	0.605316	9.30786e-06
973.739	-0.000408936	0.00686951
974.199	0.605164	-5.18799e-07
974.699	0.603973	1.41907e-05
975.179	-0.000308228	0.00249115
975.639	0.604523	2.41089e-06
976.139	0.60498	5.70679e-06
976.639	0.604492	0.011795
977.079	0.605377	-3.35693e-06
977.579	0.604187	9.12476e-06
978.079	0.604401	5.56946e-05
978.539	-0.499054	-0.0153473
979.019	0.604095	7.72095e-06
979.519	0.604156	2.85645e-05
979.979	-0.499329	-0.00802917
980.459	0.605042	2.10571e-06
980.959	0.60437	1.51672e-05
981.439	0.000619507	0.00686188
981.899	0.605377	-1.06812e-06
982.399	0.604218	1.33362e-05
982.879	0.000119019	0.00250793
983.339	0.605316	-1.80054e-06
983.839	0.60498	7.62939e-06
984.339	0.604065	0.0118988
984.779	0.604828	7.32422e-07
985.279	0.605164	4.63867e-06
985.779	0.604218	5.76477e-05
986.239	-0.498932	-0.0153961
986.719	0.604126	6.01196e-06
987.219	0.605103	2.13928e-05
987.679	-0.498444	-0.00807495
988.159	0.604095	7.90405e-06
988.659	0.604401	1.63574e-05
989.139	6.40869e-05	0.0068689
989.599	0.604004	8.36182e-06
990.099	0.604645	9.8877e-06
990.579	0.000735474	0.00251678
991.039	0.604614	8.8501e-07
991.539	0.604706	7.1106e-06
992.039	0.604218	0.0119843
992.479	0.60498	1.7395e-06
992.979	0.604462	7.59888e-06
993.479	0.605286	5.22156e-05
993.939	-0.498871	-0.015451
994.419	0.605042	2.41089e-06
994.919	0.604248	2.78625e-05
995.379	-0.498474	-0.00811462
995.859	0.604004	8.3313e-06
996.359	0.605347	1.09558e-05
996.839	-0.00038147	0.00687256
997.299	0.605133	-6.10352e-07
997.799	0.604767	9.12476e-06
998.279	4.88281e-05	0.00254333
998.739	0.605011	-6.71387e-07
999.239	0.604034	1.09253e-05
999.739	0.60495	0.0120544
1000.18	0.604248	3.96729e-06
1000.68	0.604218	9.21631e-06
1001.18	0.604462	5.63354e-05
1001.64	-0.498291	-0.0154724
1002.12	0.605164	1.98364e-06
1002.62	0.604462	2.50854e-05
1003.08	-0.498718	-0.00814514
1003.56	0.605225	-7.32422e-07
1004.06	0.604767	1.28479e-05
1004.54	0.000521851	0.00687408
1005	0.605316	-5.79834e-07
1005.5	0.604858	1.08948e-05
1005.98	-0.000442505	0.00255798
1006.44	0.604126	6.073e-06
1006.94	0.60434	1.06812e-05
1007.44	0.604858	0.0121368
1007.88	0.604126	5.7373e-06
1008.38	0.605042	9.46045e-07
1008.88	0.605347	5.25513e-05
1009.34	-0.49826	-0.0155151
1009.82	0.604187	8.48389e-06
1010.32	0.604034	3.0365e-05
1010.78	-0.499268	-0.00818481
1011.26	0.605347	-1.52588e-06
1011.76	0.604218	1.85547e-05
1012.24	-0.000317383	0.00687531
1012.7	0.604462	5.09644e-06
1013.2	0.604095	1.46179e-05
1013.68	-0.000308228	0.00257477
1014.14	0.605408	-2.01416e-06
1014.64	0.605225	3.84521e-06
1015.14	0.603638	0.0122223
1015.58	0.605347	-2.44141e-06
1016.08	0.605286	1.98364e-06
1016.58	0.604156	5.93872e-05
1017.04	-0.498169	-0.0155579
1017.52	0.605316	9.15527e-08
1018.02	0.604462	2.62756e-05
1018.48	-0.498505	-0.00823975
1018.96	0.605103	-3.05176e-07
1019.46	0.604156	2.05078e-05
1019.94	0.00012207	0.00687012
1020.4	0.605103	4.88281e-07
1020.9	0.60437	1.30005e-05
1021.38	0.000436401	0.00258484
1021.84	0.605225	-2.0752e-06
1022.34	0.604736	8.3313e-06
1022.84	0.603516	0.0123108
1023.28	0.604401	2.47192e-06
1023.78	0.604736	5.00488e-06
1024.28	0.604004	6.21948e-05
1024.74	-0.49826	-0.0156036
1025.22	0.604279	7.78198e-06
1025.72	0.605133	2.37122e-05
1026.18	-0.498474	-0.00828857
1026.66	0.604279	6.46973e-06
1027.16	0.605255	1.21765e-05
1027.64	0.000646973	0.00686218
1028.1	0.604828	1.52588e-06
1028.6	0.60495	9.18579e-06
1029.08	-0.000296021	0.00260651
1029.54	0.605042	-1.06812e-06
1030.04	0.605316	2.71606e-06
1030.54	0.604767	0.012381
1030.98	0.604706	1.7395e-06
1031.48	0.605286	1.86157e-06
1031.98	0.605316	5.27954e-05
1032.44	-0.498444	-0.0156311
1032.92	0.60495	3.54004e-06
1033.42	0.605316	2.09045e-05
1033.88	-0.499817	-0.00832214
1034.36	0.605164	-2.13623e-07
1034.86	0.604706	1.48926e-05
1035.34	5.18799e-05	0.00686462
1035.8	0.605072	2.44141e-07
1036.3	0.605255	6.92749e-06
1036.78	0.000537109	0.00261261
1037.24	0.605377	-2.34985e-06
1037.74	0.605225	4.27246e-06
1038.24	0.604248	0.0124573
1038.68	0.604126	6.7749e-06
1039.18	0.60434	8.17871e-06
1039.68	0.605225	5.40161e-05
1040.14	-0.499237	-0.0156891
1040.62	0.60498	1.15967e-06
1041.12	0.604279	2.88391e-05
1041.58	-0.498779	-0.00837097
1042.06	0.60434	4.79126e-06
1042.56	0.605011	1.39771e-05
1043.04	0.000537109	0.0068576
1043.5	0.605469	-2.7771e-06
1044	0.605164	8.30078e-06
1044.48	-0.000344849	0.00263641
1044.94	0.604279	6.80542e-06
1045.44	0.605072	6.56128e-06
1045.94	0.603943	0.0125397
1046.38	0.604462	5.85937e-06
1046.88	0.604767	5.15747e-06
1047.38	0.604614	5.93567e-05
1047.84	-0.498993	-0.0157318
1048.32	0.605194	1.49536e-06
1048.82	0.604095	2.99377e-05
1049.28	-0.499847	-0.00841675
1049.76	0.60434	6.10352e-06
1050.26	0.605042	1.33057e-05
1050.74	-0.00043335	0.00686676
1051.2	0.603973	7.2937e-06
1051.7	0.604675	1.04065e-05
1052.18	-0.000427246	0.00265015
1052.64	0.604218	5.5542e-06
1053.14	0.605316	5.06592e-06
1053.64	0.604492	0.0126129
1054.08	0.604858	6.71387e-07
1054.58	0.604279	7.90405e-06
1055.08	0.60495	5.86243e-05
1055.54	-0.499451	-0.0157623
1056.02	0.604584	5.79834e-06
1056.52	0.604736	2.38953e-05
1056.98	-0.499847	-0.00845337
1057.46	0.605316	-7.01904e-07
1057.96	0.603973	1.9165e-05
1058.44	0.00050354	0.00686554
1058.9	0.604675	3.479e-06
1059.4	0.604553	1.3916e-05
1059.88	0.000839233	0.00265625
1060.34	0.605194	-2.01416e-06
1060.84	0.605194	7.35474e-06
1061.34	0.603699	0.012674
1061.78	0.605194	-2.44141e-06
1062.28	0.604584	4.91333e-06
1062.78	0.604553	6.11877e-05
1063.24	-0.498474	-0.0158112
1063.72	0.604279	8.48389e-06
1064.22	0.604767	2.61841e-05
1064.68	-0.499847	-0.0085022
1065.16	0.604126	7.1106e-06
1065.66	0.605194	1.25427e-05
1066.14	0.000552368	0.0068576
1066.6	0.604645	3.23486e-06
1067.1	0.605255	7.14111e-06
1067.58	0.000671387	0.00267029
1068.04	0.604065	6.71387e-06
1068.54	0.604034	1.23291e-05
1069.04	0.603973	0.0127441
1069.48	0.604401	3.57056e-06
1069.98	0.604797	5.0354e-06
1070.48	0.604187	6.30493e-05
1070.94	-0.49884	-0.0158478
1071.42	0.604156	7.69043e-06
1071.92	0.605255	2.23694e-05
1072.38	-0.498474	-0.00855103
1072.86	0.604218	6.13403e-06
1073.36	0.604309	1.89514e-05
1073.84	0.000375366	0.00685638
1074.3	0.60437	4.60815e-06
1074.8	0.605042	8.14819e-06
1075.28	0.000436401	0.00268372
1075.74	0.605316	-7.93457e-07
1076.24	0.604706	8.20923e-06
1076.74	0.604034	0.0128174
1077.18	0.60495	1.5564e-06
1077.68	0.605316	1.98364e-06
1078.18	0.604218	6.43005e-05
1078.64	-0.498413	-0.0158813
1079.12	0.604095	9.58252e-06
1079.62	0.605194	2.35596e-05
1080.08	-0.498688	-0.00858459
1080.56	0.604034	8.39233e-06
1081.06	0.605072	1.33972e-05
1081.54	0.000622559	0.00684998
1082	0.604187	6.40869e-06
1082.5	0.604797	1.06812e-05
1082.98	-0.000363159	0.00270477
1083.44	0.605164	-1.06812e-06
1083.94	0.604431	8.39233e-06
1084.44	0.604584	0.0128693
1084.88	0.604004	6.13403e-06
1085.38	0.604126	1.08032e-05
1085.88	0.604614	6.01501e-05
1086.34	-0.498993	-0.0159027
1086.82	0.605255	1.5564e-06
1087.32	0.605042	2.54822e-05
1087.78	-0.498932	-0.00863037
1088.26	0.605347	0
1088.76	0.605072	1.46179e-05
1089.24	0.00012207	0.0068454
1089.7	0.605286	-1.67847e-06
1090.2	0.604889	7.41577e-06
1090.68	-0.000463867	0.00271576
1091.14	0.605377	-2.13623e-06
1091.64	0.605286	2.53296e-06
1092.14	0.604645	0.0129242
1092.58	0.605316	-2.22778e-06
1093.08	0.605225	1.09863e-06
1093.58	0.60495	5.87463e-05
1094.04	-0.499176	-0.0159393
1094.52	0.605408	2.0752e-06
1095.02	0.605164	2.27051e-05
1095.48	-0.498871	-0.00865479
1095.96	0.603943	9.3689e-06
1096.46	0.605103	1.28479e-05
1096.94	0.000167847	0.00684479
1097.4	0.604431	3.93677e-06
1097.9	0.605042	8.30078e-06
1098.38	0.000842285	0.00272034
1098.84	0.605164	-2.04468e-06
1099.34	0.604431	8.81958e-06
1099.84	0.603546	0.0129974
1100.28	0.605164	-1.52588e-07
1100.78	0.605316	2.2583e-06
1101.28	0.605255	5.80139e-05
1101.74	-0.49942	-0.015979
1102.22	0.604919	3.66211e-06
1102.72	0.604034	3.12805e-05
1103.18	-0.499207	-0.00869751
1103.66	0.605408	6.40869e-07
1104.16	0.603973	2.07214e-05
1104.64	-0.00012207	0.00684875
1105.1	0.605194	7.01904e-07
1105.6	0.604919	1.06201e-05
1106.08	0.000784302	0.00273346
1106.54	0.604095	5.82886e-06
1107.04	0.604218	1.2207e-05
1107.54	0.603638	0.0130463
1107.98	0.605316	-3.32642e-06
1108.48	0.604065	1.06812e-05
1108.98	0.604126	6.81458e-05
1109.44	-0.49881	-0.0160248
1109.92	0.604614	4.60815e-06
1110.42	0.605408	2.29797e-05
1110.88	-0.499786	-0.00874329
1111.36	0.605011	2.0752e-06
1111.86	0.605042	1.41907e-05
1112.34	0.000769043	0.00683502
1112.8	0.605072	2.44141e-07
1113.3	0.604248	1.3916e-05
1113.78	0.000787354	0.00274597
1114.24	0.604095	7.69043e-06
1114.74	0.604156	1.15356e-05
1115.24	0.604797	0.0131073
1115.68	0.604004	6.74438e-06
1116.18	0.604492	6.04248e-06
1116.68	0.604279	6.79016e-05
1117.14	-0.498993	-0.0160522
1117.62	0.604004	1.01929e-05
1118.12	0.604034	3.16772e-05
1118.58	-0.499603	-0.00877686
1119.06	0.604248	7.08008e-06
1119.56	0.604034	1.953125E-05
1120.04	0.000863647	0.00683563
1120.5	0.60434	4.42505e-06
1121	0.605164	9.91821e-06
1121.48	-0.000109863	0.00275909
1121.94	0.605316	-9.46045e-07
1122.44	0.604767	9.765625E-06
1122.94	0.604248	0.0131622
1123.38	0.605408	-1.49536e-06
1123.88	0.60495	6.74438e-06
1124.38	0.604218	6.71692e-05
1124.84	-0.498962	-0.0160736
1125.32	0.604828	5.7373e-06
1125.82	0.604004	3.35083e-05
1126.28	-0.498779	-0.00881653
1126.76	0.605469	-1.34277e-06
1127.26	0.605042	1.40991e-05
1127.74	0.00045166	0.00684357
1128.2	0.60495	1.52588e-06
1128.7	0.605347	6.5918e-06
1129.18	-0.000390625	0.00277863
1129.64	0.604279	5.85937e-06
1130.14	0.60495	7.41577e-06
1130.64	0.603943	0.0132019
1131.08	0.605011	-6.40869e-07
1131.58	0.60437	9.0332e-06
1132.08	0.604004	6.99158e-05
1132.54	-0.498291	-0.0161041
1133.02	0.605377	1.2207e-07
1133.52	0.605347	2.34375e-05
1133.98	-0.499329	-0.00884094
1134.46	0.604553	3.60107e-06
1134.96	0.604065	2.19116e-05
1135.44	-0.000546265	0.00684296
1135.9	0.605438	-2.0752e-06
1136.4	0.604889	1.05896e-05
1136.88	-0.000222778	0.00278656
1137.34	0.604218	8.27026e-06
1137.84	0.605255	3.20435e-06
1138.34	0.60379	0.0132568
1138.78	0.604156	7.72095e-06
1139.28	0.604828	5.49316e-06
1139.78	0.605377	6.06995e-05
1140.24	-0.498291	-0.0161469
1140.72	0.604706	4.73022e-06
1141.22	0.604187	3.08228e-05
1141.68	-0.498535	-0.00888977
1142.16	0.604797	4.15039e-06
1142.66	0.604675	1.60217e-05
1143.14	-0.000137329	0.0068399
1143.6	0.604187	7.23267e-06
1144.1	0.604034	1.73645e-05
1144.58	0.000210571	0.00279785
1145.04	0.605316	-1.83105e-06
1145.54	0.603973	1.28784e-05
1146.04	0.603363	0.0133148
1146.48	0.604065	6.19507e-06
1146.98	0.604309	8.39233e-06
1147.48	0.605377	6.14319e-05
1147.94	-0.49826	-0.0161652
1148.42	0.605316	3.05176e-07
1148.92	0.60434	2.83203e-05
1149.38	-0.498627	-0.00892639
1149.86	0.604034	8.30078e-06
1150.36	0.604492	1.69678e-05
1150.84	0.000375366	0.0068277
1151.3	0.604828	3.44849e-06
1151.8	0.604065	1.74255e-05
1152.28	-0.000195313	0.00280731
1152.74	0.605377	-2.04468e-06
1153.24	0.60498	4.57764e-06
1153.74	0.604431	0.0133545
1154.18	0.605255	-1.49536e-06
1154.68	0.604004	1.15967e-05
1155.18	0.60434	6.73828e-05
1155.64	-0.49881	-0.0161957
1156.12	0.605286	1.43433e-06
1156.62	0.605255	2.46887e-05
1157.08	-0.499054	-0.00895386
1157.56	0.604279	5.95093e-06
1158.06	0.604095	2.14844e-05
1158.54	0.000268555	0.00683197
1159	0.604401	4.3335e-06
1159.5	0.605316	8.42285e-06
1159.98	0.000558472	0.00281281
1160.44	0.605377	-1.95313e-06
1160.94	0.605316	4.94385e-06
1161.44	0.603699	0.0134216
1161.88	0.604584	1.95313e-06
1162.38	0.604462	8.78906e-06
1162.88	0.604889	6.62537e-05
1163.34	-0.499237	-0.016214
1163.82	0.604126	1.01929e-05
1164.32	0.604065	3.32031e-05
1164.78	-0.499756	-0.008984375
1165.26	0.605103	-1.06812e-06
1165.76	0.605286	1.31531e-05
1166.24	-0.000366211	0.00683258
1166.7	0.605469	-1.28174e-06
1167.2	0.605316	7.20215e-06
1167.68	0.000448608	0.00282623
1168.14	0.605499	-1.40381e-06
1168.64	0.604462	1.18713e-05
1169.14	0.603485	0.0134521
1169.58	0.604584	3.66211e-07
1170.08	0.605316	1.83105e-06
1170.58	0.605133	6.37207e-05
1171.04	-0.499176	-0.0162445
1171.52	0.604065	9.85718e-06
1172.02	0.604736	2.89307e-05
1172.48	-0.49939	-0.0090332
1172.96	0.605347	-8.23975e-07
1173.46	0.605347	1.3092e-05
1173.94	-0.000357056	0.00682526
1174.4	0.604858	-1.83105e-07
1174.9	0.605347	8.48389e-06
1175.38	0.000860596	0.00283112
1175.84	0.604309	4.42505e-06
1176.34	0.60495	6.5918e-06
1176.84	0.604523	0.0134979
1177.28	0.604004	7.14111e-06
1177.78	0.604614	7.32422e-06
1178.28	0.605164	6.22559e-05
1178.74	-0.498322	-0.0162811
1179.22	0.60434	8.45337e-06
1179.72	0.603882	3.3783e-05
1180.18	-0.499451	-0.00906372
1180.66	0.605103	1.61743e-06
1181.16	0.60498	1.69067e-05
1181.64	0.000424194	0.00681427
1182.1	0.604919	1.43433e-06
1182.6	0.605408	7.44629e-06
1183.08	-0.000500488	0.00284912
1183.54	0.60498	-2.74658e-07
1184.04	0.604919	5.85937e-06
1184.54	0.603516	0.0135559
1184.98	0.605377	-3.23486e-06
1185.48	0.604095	8.91113e-06
1185.98	0.604248	7.13806e-05
1186.44	-0.498657	-0.0163147
1186.92	0.605438	-4.27246e-07
1187.42	0.605377	2.4353e-05
1187.88	-0.49939	-0.00910339
1188.36	0.604279	7.84302e-06
1188.86	0.604279	2.01111e-05
1189.34	-0.000106812	0.00681519
1189.8	0.604065	9.18579e-06
1190.3	0.605042	1.10168e-05
1190.78	-0.000421143	0.00285919
1191.24	0.604797	1.67847e-06
1191.74	0.605286	5.46265e-06
1192.24	0.603943	0.0135925
1192.68	0.604431	3.35693e-06
1193.18	0.604645	8.3313e-06
1193.68	0.60495	6.69556e-05
1194.14	-0.498718	-0.0163269
1194.62	0.604126	9.79614e-06
1195.12	0.604065	3.36304e-05
1195.58	-0.498383	-0.00913086
1196.06	0.604279	8.66699e-06
1196.56	0.604034	2.16064e-05
1197.04	-0.000326538	0.00681396
1197.5	0.604309	3.57056e-06
1198	0.604065	1.60828e-05
1198.48	-0.000408936	0.00286652
1198.94	0.604248	7.2937e-06
1199.44	0.604553	9.27734e-06
1199.94	0.604706	0.0136322
1200.38	0.604858	-1.00708e-06
1200.88	0.605347	2.10571e-06
1201.38	0.60498	6.87256e-05
1201.84	-0.498962	-0.0163666
1202.32	0.604034	1.01318e-05
1202.82	0.605225	2.45667e-05
1203.28	-0.499725	-0.00915527
1203.76	0.605255	1.2207e-07
1204.26	0.605286	1.37634e-05
1204.74	0.000396729	0.0067981
1205.2	0.604797	3.75366e-06
1205.7	0.604401	1.35803e-05
1206.18	0.000485229	0.00287048
1206.64	0.604523	3.11279e-06
1207.14	0.604675	9.58252e-06
1207.64	0.603271	0.0136902
1208.08	0.604401	4.76074e-06
1208.58	0.604126	1.10779e-05
1209.08	0.604614	6.87256e-05
1209.54	-0.49939	-0.016391
1210.02	0.605164	2.16675e-06
1210.52	0.605438	2.60925e-05
1210.98	-0.499115	-0.00921021
1211.46	0.604095	9.765625E-06
1211.96	0.604218	1.87988e-05
1212.44	-0.000515747	0.00679047
1212.9	0.604218	7.59888e-06
1213.4	0.605255	6.89697e-06
1213.88	-0.00045166	0.00287201
1214.34	0.604095	7.50732e-06
1214.84	0.604553	8.5144e-06
1215.34	0.604187	0.0137238
1215.78	0.604156	5.7373e-06
1216.28	0.605133	3.63159e-06
1216.78	0.604034	7.66296e-05
1217.24	-0.49942	-0.0164185
1217.72	0.605103	2.34985e-06
1218.22	0.605255	2.61536e-05
1218.68	-0.499268	-0.00924377
1219.16	0.605164	8.23975e-07
1219.66	0.604034	2.18201e-05
1220.14	4.57764e-05	0.00678101
1220.6	0.605347	-8.23975e-07
1221.1	0.604309	1.4679e-05
1221.58	-0.000375366	0.00287872
1222.04	0.604309	6.01196e-06
1222.54	0.605316	3.60107e-06
1223.04	0.604523	0.0137604
1223.48	0.604004	6.62231e-06
1223.98	0.604858	3.50952e-06
1224.48	0.605377	6.69556e-05
1224.94	-0.499512	-0.0164459
1225.42	0.603943	1.09863e-05
1225.92	0.605347	2.56653e-05
1226.38	-0.499786	-0.00927734
1226.86	0.604004	8.78906e-06
1227.36	0.604645	1.8219e-05
1227.84	0.00027771	0.00677063
1228.3	0.604553	5.95093e-06
1228.8	0.604462	1.26648e-05
1229.28	0.000280762	0.00288361
1229.74	0.60434	7.23267e-06
1230.24	0.604004	1.40991e-05
1230.74	0.603485	0.0138062
1231.18	0.605347	-3.63159e-06
1231.68	0.604065	1.11389e-05
1232.18	0.604218	7.40051e-05
1232.64	-0.49939	-0.0164734
1233.12	0.604401	6.53076e-06
1233.62	0.605255	2.67639e-05
1234.08	-0.499298	-0.00930786
1234.56	0.604797	4.02832e-06
1235.06	0.604034	2.32239e-05
1235.54	0.000515747	0.00677063
1236	0.605133	8.54492e-07
1236.5	0.605316	7.38525e-06
1236.98	0.000289917	0.00289032
1237.44	0.60437	4.97437e-06
1237.94	0.604767	7.90405e-06
1238.44	0.603851	0.0138367
1238.88	0.604248	4.91333e-06
1239.38	0.605194	2.89917e-06
1239.88	0.604889	7.13806e-05
1240.34	-0.499115	-0.0165039
1240.82	0.604218	8.60596e-06
1241.32	0.604736	3.22876e-05
1241.78	-0.498749	-0.00934753
1242.26	0.60434	5.95093e-06
1242.76	0.604034	2.30713e-05
1243.24	-0.000128174	0.00676758
1243.7	0.604553	4.73022e-06
1244.2	0.605011	9.73511e-06
1244.68	-0.000247192	0.00290375
1245.14	0.604309	6.04248e-06
1245.64	0.604279	1.13831e-05
1246.14	0.60376	0.0138916
1246.58	0.604889	2.80762e-06
1247.08	0.604156	1.03455e-05
1247.58	0.604401	7.30286e-05
1248.04	-0.498108	-0.0165375
1248.52	0.60434	8.08716e-06
1249.02	0.60495	2.75879e-05
1249.48	-0.498932	-0.00939026
1249.96	0.605011	2.41089e-06
1250.46	0.603943	2.31934e-05
1250.94	-0.000418091	0.00676361
1251.4	0.604858	2.10571e-06
1251.9	0.604156	1.74561e-05
1252.38	6.40869e-05	0.00290283
1252.84	0.605255	-1.09863e-06
1253.34	0.604431	8.66699e-06
1253.84	0.603455	0.0139313
1254.28	0.605377	-1.7395e-06
1254.78	0.605316	1.37329e-06
1255.28	0.604279	7.54089e-05
1255.74	-0.498016	-0.0165619
1256.22	0.605347	-7.32422e-07
1256.72	0.604004	3.53699e-05
1257.18	-0.498871	-0.00940552
1257.66	0.604187	6.86646e-06
1258.16	0.604218	2.18811e-05
1258.64	-0.000436401	0.00675964
1259.1	0.604034	8.48389e-06
1259.6	0.60498	1.01929e-05
1260.08	0.00057373	0.00290985
1260.54	0.604126	6.65283e-06
1261.04	0.605377	4.79126e-06
1261.54	0.604523	0.0139557
1261.98	0.605164	-1.12915e-06
1262.48	0.604187	1.02234e-05
1262.98	0.604401	7.57751e-05
1263.44	-0.498077	-0.0165894
1263.92	0.604156	1.01624e-05
1264.42	0.604736	3.06702e-05
1264.88	-0.498962	-0.00944519
1265.36	0.604034	7.65991e-06
1265.86	0.605103	1.63269e-05
1266.34	-8.23975e-05	0.00675049
1266.8	0.605255	-1.86157e-06
1267.3	0.605164	9.39941e-06
1267.78	-0.000299072	0.00292328
1268.24	0.605011	-1.49536e-06
1268.74	0.604828	8.94165e-06
1269.24	0.603821	0.0140045
1269.68	0.604034	5.00488e-06
1270.18	0.605164	4.05884e-06
1270.68	0.604095	7.80334e-05
1271.14	-0.498077	-0.0166016
1271.62	0.604889	4.60815e-06
1272.12	0.60434	3.26233e-05
1272.58	-0.499756	-0.0094635
1273.06	0.605438	-2.74658e-07
1273.56	0.60498	1.58691e-05
1274.04	-0.000430298	0.00674713
1274.5	0.604584	2.59399e-06
1275	0.604248	1.68152e-05
1275.48	0.000289917	0.00292847
1275.94	0.604095	7.04956e-06
1276.44	0.604767	9.12476e-06
1276.94	0.603577	0.0140289
1277.38	0.604095	7.08008e-06
1277.88	0.604095	1.1261e-05
1278.38	0.604553	7.66907e-05
1278.84	-0.498505	-0.0166382
1279.32	0.604645	5.88989e-06
1279.82	0.605225	2.6001e-05
1280.28	-0.498505	-0.00951233
1280.76	0.605103	2.01416e-06
1281.26	0.603912	2.35596e-05
1281.74	0.000875854	0.00673218
1282.2	0.604889	2.83813e-06
1282.7	0.604492	1.14136e-05
1283.18	-0.000469971	0.00293732
1283.64	0.604065	6.86646e-06
1284.14	0.605255	3.8147e-06
1284.64	0.604675	0.0140686
1285.08	0.604034	6.31714e-06
1285.58	0.604004	1.28174e-05
1286.08	0.605316	7.06177e-05
1286.54	-0.498749	-0.0166626
1287.02	0.605347	1.28174e-06
1287.52	0.604095	3.48816e-05
1287.98	-0.498413	-0.00954285
1288.46	0.604004	8.72803e-06
1288.96	0.605286	1.35498e-05
1289.44	-5.18799e-05	0.00672913
1289.9	0.604095	7.04956e-06
1290.4	0.605347	8.27026e-06
1290.88	0.000552368	0.00293793
1291.34	0.604645	3.02124e-06
1291.84	0.604736	9.39941e-06
1292.34	0.603699	0.0141205
1292.78	0.605133	-1.31226e-06
1293.28	0.604218	9.73511e-06
1293.78	0.604126	7.9071e-05
1294.24	-0.499298	-0.0166809
1294.72	0.605316	2.80762e-06
1295.22	0.604156	3.45459e-05
1295.68	-0.498657	-0.00956726
1296.16	0.605255	-1.15967e-06
1296.66	0.605194	1.4679e-05
1297.14	8.23975e-05	0.00672241
1297.6	0.605133	2.65503e-06
1298.1	0.604462	1.4679e-05
1298.58	-0.000372314	0.002948
1299.04	0.604004	7.62939e-06
1299.54	0.605377	5.15747e-06
1300.04	0.604431	0.0141449
1300.48	0.605133	-1.19019e-06
1300.98	0.604187	1.06201e-05
1301.48	0.604218	7.92236e-05
1301.94	-0.498688	-0.0167145
1302.42	0.60434	7.56836e-06
1302.92	0.604523	3.10059e-05
1303.38	-0.499176	-0.00959778
1303.86	0.604065	9.70459e-06
1304.36	0.604523	1.86768e-05
1304.84	-0.000469971	0.00671814
1305.3	0.604004	7.84302e-06
1305.8	0.604462	1.44043e-05
1306.28	0.000610352	0.00294403
1306.74	0.60434	4.30298e-06
1307.24	0.604034	1.39771e-05
1307.74	0.604279	0.0141876
1308.18	0.604156	3.90625e-06
1308.68	0.605347	2.89917e-06
1309.18	0.603973	8.20007e-05
1309.64	-0.498566	-0.0167297
1310.12	0.604828	5.64575e-06
1310.62	0.604858	3.08533e-05
1311.08	-0.499023	-0.00962524
1311.56	0.604034	9.00269e-06
1312.06	0.604126	2.28271e-05
1312.54	-0.000424194	0.00671295
1313	0.605225	6.40869e-07
1313.5	0.604889	1.22681e-05
1313.98	0.000140381	0.00295227
1314.44	0.605286	-1.77002e-06
1314.94	0.605286	4.94385e-06
1315.44	0.603455	0.0142181
1315.88	0.605347	-1.80054e-06
1316.38	0.604431	8.81958e-06
1316.88	0.604736	7.52258e-05
1317.34	-0.498322	-0.0167511
1317.82	0.60437	6.98853e-06
1318.32	0.604248	3.27759e-05
1318.78	-0.498962	-0.00965881
1319.26	0.605133	3.63159e-06
1319.76	0.605438	1.3031e-05
1320.24	0.000466919	0.0067038
1320.7	0.605042	1.37329e-06
1321.2	0.603943	1.7395e-05
1321.68	0.000643921	0.00296021
1322.14	0.605347	-1.52588e-06
1322.64	0.604156	1.16272e-05
1323.14	0.603668	0.0142548
1323.58	0.604004	6.71387e-06
1324.08	0.60437	7.41577e-06
1324.58	0.605347	7.35474e-05
1325.04	-0.499207	-0.0167542
1325.52	0.605347	1.25122e-06
1326.02	0.604889	3.15552e-05
1326.48	-0.498718	-0.00969543
1326.96	0.604828	2.96021e-06
1327.46	0.604279	2.21863e-05
1327.94	0.000637817	0.00668762
1328.4	0.605316	-7.32422e-07
1328.9	0.604523	1.42212e-05
1329.38	-0.00039978	0.00296539
1329.84	0.604431	3.84521e-06
1330.34	0.605194	5.95093e-06
1330.84	0.604645	0.0142731
1331.28	0.604309	5.76782e-06
1331.78	0.605255	3.41797e-06
1332.28	0.60498	7.5592e-05
1332.74	-0.498108	-0.0167969
1333.22	0.605377	2.04468e-06
1333.72	0.604919	2.92969e-05
1334.18	-0.498474	-0.00971375
1334.66	0.605164	6.10352e-07
1335.16	0.604523	1.95007e-05
1335.64	0.000778198	0.00667725
1336.1	0.603973	7.87354e-06
1336.6	0.604095	1.68457e-05
1337.08	-0.000408936	0.00296997
1337.54	0.605011	-1.70898e-06
1338.04	0.605286	5.37109e-06
1338.54	0.603699	0.0143066
1338.98	0.604431	1.61743e-06
1339.48	0.605103	3.60107e-06
1339.98	0.605103	7.72705e-05
1340.44	-0.499451	-0.0167999
1340.92	0.604126	9.94873e-06
1341.42	0.604401	3.55225e-05
1341.88	-0.498688	-0.00975647
1342.36	0.604858	2.44141e-06
1342.86	0.605347	1.50757e-05
1343.34	9.15527e-05	0.00667542
1343.8	0.605072	1.49536e-06
1344.3	0.605164	9.24683e-06
1344.78	0.000897217	0.00296661
1345.24	0.604126	7.75146e-06
1345.74	0.604919	7.04956e-06
1346.24	0.603271	0.0143372
1346.68	0.604156	4.42505e-06
1347.18	0.605225	3.11279e-06
1347.68	0.605347	7.48291e-05
1348.14	-0.498871	-0.0168213
1348.62	0.605042	3.44849e-06
1349.12	0.605194	2.89307e-05
1349.58	-0.499237	-0.00976868
1350.06	0.604858	3.479e-06
1350.56	0.605194	1.60522e-05
1351.04	-7.32422e-05	0.00666687
1351.5	0.604279	6.2561e-06
1352	0.604218	1.63879e-05
1352.48	0.000845337	0.00296936
1352.94	0.604462	4.3335e-06
1353.44	0.605255	4.39453e-06
1353.94	0.603912	0.0143646
1354.38	0.605042	-6.10352e-08
1354.88	0.605347	2.99072e-06
1355.38	0.605469	7.63245e-05
1355.84	-0.498474	-0.0168457
1356.32	0.604614	6.68335e-06
1356.82	0.605164	3.11279e-05
1357.28	-0.499664	-0.0098053
1357.76	0.605164	2.31934e-06
1358.26	0.604034	2.2583e-05
1358.74	-7.62939e-05	0.00666046
1359.2	0.605347	-7.01904e-07
1359.7	0.603943	1.88293e-05
1360.18	0.00093689	0.00297607
1360.64	0.604218	6.40869e-06
1361.14	0.605316	6.92749e-06
1361.64	0.604462	0.0143982
1362.08	0.605316	-1.09863e-06
1362.58	0.604858	6.86646e-06
1363.08	0.604492	8.3252e-05
1363.54	-0.49939	-0.016864
1364.02	0.60495	3.57056e-06
1364.52	0.604095	3.77502e-05
1364.98	-0.499756	-0.00983582
1365.46	0.604736	3.05176e-06
1365.96	0.605164	1.67236e-05
1366.44	8.8501e-05	0.00664429
1366.9	0.604095	8.05664e-06
1367.4	0.605103	9.82666e-06
1367.88	0.000552368	0.00297821
1368.34	0.604034	8.17871e-06
1368.84	0.604858	7.84302e-06
1369.34	0.603973	0.0144287
1369.78	0.604767	1.0376e-06
1370.28	0.604279	1.04065e-05
1370.78	0.605377	7.6355e-05
1371.24	-0.498871	-0.0168915
1371.72	0.604187	9.0332e-06
1372.22	0.605286	2.9541e-05
1372.68	-0.498901	-0.0098877
1373.16	0.604034	7.47681e-06
1373.66	0.605164	1.69678e-05
1374.14	0.000350952	0.00664429
1374.6	0.604706	5.61523e-06
1375.1	0.604767	1.16577e-05
1375.58	-0.000402832	0.0029895
1376.04	0.605042	-3.35693e-07
1376.54	0.60437	1.24207e-05
1377.04	0.603973	0.0144653
1377.48	0.604126	8.94165e-06
1377.98	0.604919	5.61523e-06
1378.48	0.605194	7.83386e-05
1378.94	-0.498932	-0.0169098
1379.42	0.605255	1.77002e-06
1379.92	0.604919	3.17383e-05
1380.38	-0.498901	-0.00990601
1380.86	0.604065	8.63647e-06
1381.36	0.604492	2.09961e-05
1381.84	0.000698853	0.00663452
1382.3	0.604736	3.90625e-06
1382.8	0.604126	1.66016e-05
1383.28	0.000164795	0.00298706
1383.74	0.604431	5.67627e-06
1384.24	0.605225	5.61523e-06
1384.74	0.604523	0.0144806
1385.18	0.604126	6.65283e-06
1385.68	0.604065	1.27258e-05
1386.18	0.605347	7.63245e-05
1386.64	-0.498962	-0.0169434
1387.12	0.605316	1.43433e-06
1387.62	0.603973	3.82996e-05
1388.08	-0.499084	-0.00993042
1388.56	0.605011	2.38037e-06
1389.06	0.60434	2.22778e-05
1389.54	0.000561523	0.00662933
1390	0.605072	3.66211e-07
1390.5	0.604065	1.88599e-05
1390.98	-0.000418091	0.00299896
1391.44	0.604248	5.46265e-06
1391.94	0.605103	7.01904e-06
1392.44	0.603851	0.0145172
1392.88	0.604095	7.93457e-06
1393.38	0.605225	3.93677e-06
1393.88	0.605408	7.74231e-05
1394.34	-0.498413	-0.0169464
1394.82	0.604523	6.37817e-06
1395.32	0.605408	2.90527e-05
1395.78	-0.499542	-0.00994873
1396.26	0.605316	9.15527e-08
1396.76	0.605469	1.53503e-05
1397.24	0.00088501	0.00662231
1397.7	0.604736	4.21143e-06
1398.2	0.604034	1.66626e-05
1398.68	0.000802612	0.00299774
1399.14	0.604004	7.08008e-06
1399.64	0.605408	6.7749e-06
1400.14	0.604553	0.0145416
1400.58	0.604218	5.40161e-06
1401.08	0.604187	1.00098e-05
1401.58	0.604034	8.72192e-05
1402.04	-0.499023	-0.0169617
1402.52	0.605042	2.89917e-06
1403.02	0.604095	3.76282e-05
1403.48	-0.498474	-0.00998535
1403.96	0.604919	2.89917e-06
1404.46	0.60434	2.15454e-05
1404.94	-0.000198364	0.00662018
1405.4	0.604279	6.83594e-06
1405.9	0.604614	1.40381e-05
1406.38	0.000357056	0.00300598
1406.84	0.605164	6.10352e-08
1407.34	0.604034	1.43433e-05
1407.84	0.603333	0.014566
1408.28	0.604156	6.16455e-06
1408.78	0.605316	4.76074e-06
1409.28	0.605225	7.51343e-05
1409.74	-0.498108	-0.0170074
1410.22	0.604706	7.69043e-06
1410.72	0.604462	3.479e-05
1411.18	-0.49942	-0.0100311
1411.66	0.604706	6.01196e-06
1412.16	0.604065	2.36511e-05
1412.64	0.00071106	0.00662628
1413.1	0.604614	1.46484e-06
1413.6	0.604065	1.87683e-05
1414.08	0.000784302	0.0030014
1414.54	0.605438	-3.05176e-08
1415.04	0.604767	8.63647e-06
1415.54	0.603394	0.0145905
1415.98	0.604614	2.50244e-06
1416.48	0.604645	8.11768e-06
1416.98	0.604034	8.40759e-05
1417.44	-0.498474	-0.0170349
1417.92	0.60434	8.91113e-06
1418.42	0.604889	3.22876e-05
1418.88	-0.498657	-0.0100494
1419.36	0.605225	1.89209e-06
1419.86	0.605347	1.54419e-05
1420.34	3.05176e-05	0.00662537
1420.8	0.605347	-5.49316e-07
1421.3	0.604523	1.40076e-05
1421.78	0.000280762	0.00300629
1422.24	0.605072	-9.76562e-07
1422.74	0.604706	1.08948e-05
1423.24	0.604614	0.0146088
1423.68	0.604248	3.84521e-06
1424.18	0.605133	4.30298e-06
1424.68	0.604126	8.5083e-05
1425.14	-0.498016	-0.0170563
1425.62	0.604218	9.67407e-06
1426.12	0.605194	3.01208e-05
1426.58	-0.499634	-0.0100769
1427.06	0.604126	8.72803e-06
1427.56	0.605225	1.58081e-05
1428.04	5.49316e-05	0.00661499
1428.5	0.604095	7.26318e-06
1429	0.605347	9.30786e-06
1429.48	2.13623e-05	0.00301208
1429.94	0.605164	-4.57764e-07
1430.44	0.604462	1.20544e-05
1430.94	0.603302	0.0146393
1431.38	0.604218	5.92041e-06
1431.88	0.604095	1.24512e-05
1432.38	0.604004	8.70667e-05
1432.84	-0.498749	-0.0170715
1433.32	0.605072	3.17383e-06
1433.82	0.604431	3.26233e-05
1434.28	-0.498444	-0.0101166
1434.76	0.605377	3.66211e-07
1435.26	0.604797	2.03247e-05
1435.74	0.000842285	0.00660034
1436.2	0.605133	1.34277e-06
1436.7	0.605255	9.00269e-06
1437.18	0.000149536	0.00301758
1437.64	0.604065	6.92749e-06
1438.14	0.605133	6.7749e-06
1438.64	0.603424	0.014679
1439.08	0.604004	7.20215e-06
1439.58	0.605286	3.84521e-06
1440.08	0.604889	7.88269e-05
1440.54	-0.499146	-0.0170929
1441.02	0.604004	1.10168e-05
1441.52	0.604126	3.61023e-05
1441.98	-0.499634	-0.0101379
1442.46	0.605347	1.0376e-06
1442.96	0.605103	1.78833e-05
1443.44	-0.000500488	0.00660187
1443.9	0.605164	9.15527e-07
1444.4	0.604675	1.54724e-05
1444.88	-0.000164795	0.00302246
1445.34	0.605255	-1.15967e-06
1445.84	0.605255	8.88062e-06
1446.34	0.60437	0.0146973
1446.78	0.604095	5.88989e-06
1447.28	0.604218	9.30786e-06
1447.78	0.605042	7.80945e-05
1448.24	-0.498932	-0.0171204
1448.72	0.604797	5.06592e-06
1449.22	0.605225	3.01514e-05
1449.68	-0.498627	-0.0101685
1450.16	0.604248	7.59888e-06
1450.66	0.605316	1.56555e-05
1451.14	0.000387573	0.00658722
1451.6	0.605225	1.09863e-06
1452.1	0.604218	1.68152e-05
1452.58	0.000717163	0.00301636
1453.04	0.60498	1.2207e-06
1453.54	0.605347	5.95093e-06
1454.04	0.604095	0.0147308
1454.48	0.604828	1.00708e-06
1454.98	0.604462	7.72095e-06
1455.48	0.604309	8.48999e-05
1455.94	-0.49942	-0.0171387
1456.42	0.604675	7.99561e-06
1456.92	0.604767	3.34473e-05
1457.38	-0.498322	-0.010202
1457.86	0.60498	5.34058e-06
1458.36	0.605316	1.65405e-05
1458.84	-1.83105e-05	0.00657898
1459.3	0.60437	7.96509e-06
1459.8	0.604004	1.80359e-05
1460.28	0.000814819	0.00301636
1460.74	0.604065	8.57544e-06
1461.24	0.605042	6.2561e-06
1461.74	0.603333	0.0147552
1462.18	0.604462	5.70679e-06
1462.68	0.605133	4.42505e-06
1463.18	0.604065	8.75244e-05
1463.64	-0.499176	-0.0171509
1464.12	0.605347	2.28882e-06
1464.62	0.604279	3.78113e-05
1465.08	-0.499786	-0.0102203
1465.56	0.603943	1.04675e-05
1466.06	0.60434	2.31323e-05
1466.54	-0.000485229	0.0065741
1467	0.605316	1.40381e-06
1467.5	0.605011	1.26343e-05
1467.98	2.74658e-05	0.00302063
1468.44	0.604828	3.87573e-06
1468.94	0.604034	1.48315e-05
1469.44	0.603333	0.0147766
1469.88	0.604034	5.64575e-06
1470.38	0.604492	7.47681e-06
1470.88	0.605255	7.89795e-05
1471.34	-0.498047	-0.0171753
1471.82	0.604431	7.23267e-06
1472.32	0.605133	3.08228e-05
1472.78	-0.499725	-0.0102509
1473.26	0.604126	1.0437e-05
1473.76	0.604156	2.41394e-05
1474.24	0.000393677	0.00655579
1474.7	0.605347	3.05176e-08
1475.2	0.60434	1.69373e-05
1475.68	0.000772095	0.00301758
1476.14	0.605286	3.96729e-07
1476.64	0.604095	1.54419e-05
1477.14	0.603455	0.0148071
1477.58	0.603943	8.36182e-06
1478.08	0.604767	7.47681e-06
1478.58	0.603943	8.83179e-05
1479.04	-0.499298	-0.0171936
1479.52	0.604919	4.5166e-06
1480.02	0.605255	3.10669e-05
1480.48	-0.499664	-0.0102844
1480.96	0.604034	8.97217e-06
1481.46	0.60495	1.74561e-05
1481.94	-0.000244141	0.00655151
1482.4	0.60437	6.31714e-06
1482.9	0.605164	9.8877e-06
1483.38	0.000765991	0.00302002
1483.84	0.60498	2.65503e-06
1484.34	0.604065	1.43738e-05
1484.84	0.603851	0.0148315
1485.28	0.604004	7.32422e-06
1485.78	0.604523	9.64355e-06
1486.28	0.605438	7.901e-05
1486.74	-0.498077	-0.0172211
1487.22	0.60434	7.75146e-06
1487.72	0.604309	3.92761e-05
1488.18	-0.499664	-0.0102997
1488.66	0.604309	7.38525e-06
1489.16	0.604462	2.46277e-05
1489.64	-0.000149536	0.00654053
1490.1	0.604828	2.92969e-06
1490.6	0.605103	1.08948e-05
1491.08	0.000369263	0.00302856
1491.54	0.605042	1.52588e-06
1492.04	0.605164	6.62231e-06
1492.54	0.603577	0.014856
1492.98	0.605286	-1.80054e-06
1493.48	0.605011	5.70679e-06
1493.98	0.60495	8.26721e-05
1494.44	-0.498077	-0.0172394
1494.92	0.604645	7.8125e-06
1495.42	0.605316	3.0304e-05
1495.88	-0.498444	-0.0103394
1496.36	0.604614	4.45557e-06
1496.86	0.605408	1.66321e-05
1497.34	6.40869e-05	0.00653625
1497.8	0.604248	6.89697e-06
1498.3	0.605377	1.08337e-05
1498.78	-0.000469971	0.00303192
1499.24	0.60434	5.88989e-06
1499.74	0.605164	9.21631e-06
1500.24	0.604553	0.0148682
1500.68	0.604034	7.47681e-06
1501.18	0.604004	1.23901e-05
1501.68	0.605347	8.13904e-05
1502.14	-0.498474	-0.0172485
1502.62	0.604828	7.44629e-06
1503.12	0.605194	3.13721e-05
1503.58	-0.499603	-0.0103607
1504.06	0.604034	9.94873e-06
1504.56	0.604431	2.17896e-05
1505.04	0.000320435	0.00652252
1505.5	0.604614	5.34058e-06
1506	0.605225	1.01318e-05
1506.48	0.000537109	0.0030304
1506.94	0.60437	5.85937e-06
1507.44	0.605011	8.08716e-06
1507.94	0.604431	0.0148926
1508.38	0.604401	4.57764e-06
1508.88	0.604431	1.06506e-05
1509.38	0.604767	8.30078e-05
1509.84	-0.498749	-0.0172729
1510.32	0.604034	1.19019e-05
1510.82	0.604828	3.42407e-05
1511.28	-0.499786	-0.0103821
1511.76	0.605438	2.74658e-07
1512.26	0.604675	2.1637e-05
1512.74	-0.000488281	0.00651978
1513.2	0.605316	-1.77002e-06
1513.7	0.604065	1.93176e-05
1514.18	0.000283813	0.00303436
1514.64	0.605347	-1.40381e-06
1515.14	0.604889	8.54492e-06
1515.64	0.604218	0.014917
1516.08	0.604279	5.37109e-06
1516.58	0.605286	4.5166e-06
1517.08	0.604614	8.63953e-05
1517.54	-0.49884	-0.0172729
1518.02	0.605377	1.70898e-06
1518.52	0.605438	3.10059e-05
1518.98	-0.49942	-0.0104065
1519.46	0.604309	8.27026e-06
1519.96	0.604065	2.58789e-05
1520.44	0.000265503	0.00650238
1520.9	0.604218	8.66699e-06
1521.4	0.605072	1.19324e-05
1521.88	0.000698853	0.00303131
1522.34	0.603943	8.11768e-06
1522.84	0.603973	1.43433e-05
1523.34	0.60437	0.0149323
1523.78	0.605225	-2.44141e-06
1524.28	0.604065	1.26953e-05
1524.78	0.604858	8.4259e-05
1525.24	-0.499146	-0.0172974
1525.72	0.605316	2.10571e-06
1526.22	0.604187	3.91846e-05
1526.68	-0.499054	-0.0104523
1527.16	0.604218	7.04956e-06
1527.66	0.604065	2.56958e-05
1528.14	0.000473022	0.00648621
1528.6	0.605377	-1.28174e-06
1529.1	0.604187	1.73645e-05
1529.58	0.000335693	0.00302734
1530.04	0.605011	1.52588e-06
1530.54	0.604706	1.00098e-05
1531.04	0.603638	0.0149719
1531.48	0.605103	9.15527e-07
1531.98	0.60498	6.19507e-06
1532.48	0.604004	9.12476e-05
1532.94	-0.498169	-0.0173248
1533.42	0.604706	7.75146e-06
1533.92	0.604004	4.03442e-05
1534.38	-0.498749	-0.0104767
1534.86	0.604675	5.88989e-06
1535.36	0.604065	2.55432e-05
1535.84	0.000161743	0.00647797
1536.3	0.605286	-6.40869e-07
1536.8	0.605255	1.17493e-05
1537.28	-0.000415039	0.00303162
1537.74	0.60498	1.15967e-06
1538.24	0.604126	1.59912e-05
1538.74	0.604431	0.0149841
1539.18	0.605042	7.62939e-07
1539.68	0.605103	6.22559e-06
1540.18	0.604614	8.85925e-05
1540.64	-0.499054	-0.0173401
1541.12	0.604034	1.1261e-05
1541.62	0.605225	2.96936e-05
1542.08	-0.499573	-0.0105011
1542.56	0.604889	4.45557e-06
1543.06	0.605133	1.86768e-05
1543.54	0.000817871	0.00646484
1544	0.605377	-4.88281e-07
1544.5	0.604889	1.25732e-05
1544.98	-9.46045e-05	0.00302887
1545.44	0.605316	-1.77002e-06
1545.94	0.605042	9.27734e-06
1546.44	0.603546	0.0150146
1546.88	0.604065	6.92749e-06
1547.38	0.605255	4.21143e-06
1547.88	0.604126	9.05151e-05
1548.34	-0.498352	-0.0173706
1548.82	0.604767	5.06592e-06
1549.32	0.604309	3.59497e-05
1549.78	-0.499054	-0.0105164
1550.26	0.604614	6.53076e-06
1550.76	0.605408	1.60522e-05
1551.24	0.000262451	0.00645569
1551.7	0.604645	5.37109e-06
1552.2	0.603973	1.93481e-05
1552.68	0.000714111	0.0030249
1553.14	0.604248	5.82886e-06
1553.64	0.605255	5.95093e-06
1554.14	0.604553	0.015036
1554.58	0.604065	6.74438e-06
1555.08	0.604614	8.27026e-06
1555.58	0.604614	9.07898e-05
1556.04	-0.498932	-0.0173737
1556.52	0.604645	7.90405e-06
1557.02	0.605316	3.07922e-05
1557.48	-0.499237	-0.0105438
1557.96	0.604797	5.37109e-06
1558.46	0.60437	2.18201e-05
1558.94	-0.000509644	0.00645233
1559.4	0.605164	1.46484e-06
1559.9	0.604828	1.48621e-05
1560.38	0.000863647	0.00302826
1560.84	0.605408	-7.62939e-07
1561.34	0.605133	5.76782e-06
1561.84	0.603333	0.0150635
1562.28	0.604309	5.82886e-06
1562.78	0.60495	9.21631e-06
1563.28	0.604095	9.27429e-05
1563.74	-0.49884	-0.017392
1564.22	0.60434	1.08032e-05
1564.72	0.604065	4.02832e-05
1565.18	-0.499298	-0.0105804
1565.66	0.604767	4.91333e-06
1566.16	0.605072	1.84631e-05
1566.64	0.000289917	0.00644043
1567.1	0.604034	8.97217e-06
1567.6	0.604065	1.84021e-05
1568.08	-0.000375366	0.00303772
1568.54	0.604462	5.46265e-06
1569.04	0.604431	1.08032e-05
1569.54	0.604523	0.0150787
1569.98	0.604706	1.95313e-06
1570.48	0.604004	1.31836e-05
1570.98	0.605042	8.83789e-05
1571.44	-0.499359	-0.0174103
1571.92	0.603943	1.1261e-05
1572.42	0.605316	3.17993e-05
1572.88	-0.499359	-0.0105927
1573.36	0.605042	1.49536e-06
1573.86	0.604797	1.94092e-05
1574.34	0.000747681	0.00642609
1574.8	0.604004	9.73511e-06
1575.3	0.604462	1.55334e-05
1575.78	0.000585937	0.00303131
1576.24	0.604095	8.27026e-06
1576.74	0.604401	1.32751e-05
1577.24	0.604004	0.0150909
1577.68	0.604034	7.59888e-06
1578.18	0.604889	5.40161e-06
1578.68	0.605316	8.61511e-05
1579.14	-0.499359	-0.0174347
1579.62	0.605255	3.78418e-06
1580.12	0.604584	3.8208e-05
1580.58	-0.499207	-0.0106354
1581.06	0.604401	5.09644e-06
1581.56	0.605011	2.05078e-05
1582.04	2.13623e-05	0.00642181
1582.5	0.604034	6.92749e-06
1583	0.605011	1.20544e-05
1583.48	-0.000430298	0.00303986
1583.94	0.605347	-1.67847e-06
1584.44	0.604248	1.37024e-05
1584.94	0.604553	0.0151093
1585.38	0.605133	3.96729e-07
1585.88	0.604797	5.92041e-06
1586.38	0.60434	9.52454e-05
1586.84	-0.49939	-0.01745
1587.32	0.604828	5.79834e-06
1587.82	0.604065	4.12598e-05
1588.28	-0.498474	-0.0106567
1588.76	0.605408	1.19019e-06
1589.26	0.604034	2.61536e-05
1589.74	0.000442505	0.00640625
1590.2	0.605438	-7.32422e-07
1590.7	0.604218	1.80054e-05
1591.18	-0.000390625	0.00304077
1591.64	0.605072	-3.05176e-08
1592.14	0.604004	1.41296e-05
1592.64	0.603394	0.0151489
1593.08	0.604126	5.0354e-06
1593.58	0.605255	4.21143e-06
1593.8	0.60434	7.04956e-06