File: Edgar/20240417/20240417/electrodeposition_pulsed_potential_B/data/pulses_2000_to_3000.txt
Time (s)	WE(1).Potential (V)	WE(1).Current (A)
2831.06	-0.697662	-0.02724
2831.94	0.607452	8.8562e-05
2832.84	0.607422	0.000382355
2833.7	-0.697937	-0.0239929
2834.58	0.607452	0.000121704
2835.48	0.607391	0.000401062
2836.36	0.000170898	0.00115417
2837.22	0.607452	0.000125183
2838.12	0.607452	0.000360809
2839	0.000259399	0.00053833
2839.86	0.607483	0.00012027
2840.76	0.607422	0.0003203125
2841.66	0.606354	0.0186859
2842.5	0.607452	0.000114136
2843.4	0.607452	0.000283539
2844.3	0.60675	0.0130737
2845.14	0.607452	0.000108337
2846.04	0.607452	0.000254669
2846.94	0.60733	0.00303253
2847.78	0.607483	0.000101868
2848.68	0.607452	0.000229065
2849.58	0.60733	0.00162384
2850.42	0.607483	9.64966e-05
2851.32	0.607391	0.000207947
2852.22	0.60733	0.00111267
2853.06	0.607422	9.24377e-05
2853.96	0.607422	0.000190308
2854.86	0.607391	0.000834045
2855.7	0.607422	8.75244e-05
2856.6	0.607391	0.000174622
2857.5	0.607391	0.00065918
2858.36	-0.697723	-0.0271942
2859.24	0.607483	0.000161133
2860.14	0.607391	0.000540161
2861	-0.697906	-0.0238342
2861.88	0.607422	0.000148407
2862.78	0.607483	0.000450958
2863.66	0.000152588	0.00148071
2864.52	0.607483	0.000137543
2865.42	0.607452	0.000386017
2866.3	0.000238037	0.000812683
2867.16	0.607452	0.000127991
2868.06	0.607452	0.000335205
2868.96	0.606323	0.0189941
2869.8	0.607452	0.000119598
2870.7	0.607391	0.000294861
2871.6	0.606812	0.0135345
2872.44	0.607483	0.000112732
2873.34	0.607391	0.000262543
2874.24	0.607361	0.0032254
2875.08	0.607422	0.000105652
2875.98	0.607391	0.000235565
2876.88	0.607361	0.00167389
2877.72	0.607452	0.000100739
2878.62	0.607422	0.000212311
2879.52	0.607391	0.00113892
2880.36	0.607361	9.33533e-05
2881.26	0.607452	0.000193298
2882.16	0.607361	0.00085083
2883	0.607422	8.99963e-05
2883.9	0.607452	0.000177643
2884.8	0.607361	0.000670776
2885.66	-0.697693	-0.0272095
2886.54	0.607483	0.000162598
2887.44	0.607391	0.000546875
2888.3	-0.697906	-0.0238342
2889.18	0.607422	0.000150024
2890.08	0.607422	0.00045694
2890.96	0.000161743	0.00150909
2891.82	0.607452	0.000139557
2892.72	0.607422	0.000391083
2893.6	0.000238037	0.000847778
2894.46	0.607452	0.000130646
2895.36	0.607391	0.000339386
2896.26	0.606293	0.0190491
2897.1	0.607483	0.000120911
2898	0.607391	0.000298218
2898.9	0.60675	0.0136292
2899.74	0.607452	0.000113861
2900.64	0.607483	0.000264557
2901.54	0.6073	0.00327789
2902.38	0.607422	0.00010614
2903.28	0.607422	0.000237976
2904.18	0.607361	0.00168945
2905.02	0.607483	0.000101044
2905.92	0.607452	0.000214172
2906.82	0.607391	0.00114716
2907.66	0.607391	9.47266e-05
2908.56	0.607483	0.000194763
2909.46	0.607391	0.000856018
2910.3	0.607452	9.06067e-05
2911.2	0.607513	0.00017865
2912.1	0.60733	0.000674744
2912.96	-0.697662	-0.0272003
2913.84	0.607452	0.000164001
2914.74	0.607391	0.000550537
2915.6	-0.697906	-0.0238281
2916.48	0.607422	0.000151886
2917.38	0.607452	0.000460052
2918.26	0.000134277	0.00151367
2919.12	0.607452	0.000140533
2920.02	0.607391	0.000391876
2920.9	0.000213623	0.000850525
2921.76	0.607483	0.000131165
2922.66	0.607422	0.000340698
2923.56	0.606323	0.0190521
2924.4	0.607452	0.000121857
2925.3	0.607452	0.000299408
2926.2	0.60672	0.0136383
2927.04	0.607422	0.000115021
2927.94	0.607483	0.000267792
2928.84	0.60733	0.00328094
2929.68	0.607391	0.000107635
2930.58	0.607452	0.000238098
2931.48	0.607391	0.00169128
2932.32	0.607452	0.000100342
2933.22	0.607452	0.000215912
2934.12	0.60733	0.00114868
2934.96	0.607361	9.56421e-05
2935.86	0.607452	0.00019696
2936.76	0.607361	0.000858765
2937.6	0.607391	9.06372e-05
2938.5	0.607391	0.000179626
2939.4	0.60733	0.00067627
2940.26	-0.697723	-0.0272003
2941.14	0.607391	0.000166107
2942.04	0.607391	0.000552979
2942.9	-0.697906	-0.0238434
2943.78	0.607452	0.000151855
2944.68	0.607452	0.000460663
2945.56	0.000161743	0.00150513
2946.42	0.607452	0.000141174
2947.32	0.607391	0.000393799
2948.2	0.000247192	0.00084198
2949.06	0.607483	0.000131927
2949.96	0.607422	0.000341705
2950.86	0.606323	0.0190491
2951.7	0.607422	0.000122253
2952.6	0.607391	0.000300262
2953.5	0.60675	0.0136322
2954.34	0.607391	0.000115753
2955.24	0.607452	0.000266327
2956.14	0.60733	0.00328796
2956.98	0.607452	0.000108246
2957.88	0.607422	0.000239319
2958.78	0.607391	0.00169617
2959.62	0.607422	0.000101288
2960.52	0.607391	0.000215942
2961.42	0.607361	0.00115173
2962.26	0.607483	9.55811e-05
2963.16	0.607452	0.000196747
2964.06	0.607391	0.000860901
2964.9	0.607452	9.01794e-05
2965.8	0.607422	0.00017926
2966.7	0.607361	0.000677795
2967.56	-0.697693	-0.0272339
2968.44	0.607422	0.000165741
2969.34	0.607391	0.000554199
2970.2	-0.697937	-0.0238647
2971.08	0.607452	0.000152039
2971.98	0.607452	0.000462555
2972.86	0.000189209	0.00149658
2973.72	0.607422	0.00014212
2974.62	0.607483	0.000395996
2975.5	0.000234985	0.000836792
2976.36	0.607422	0.000131805
2977.26	0.607452	0.000343475
2978.16	0.606323	0.0190552
2979	0.607391	0.000123169
2979.9	0.607452	0.00030246
2980.8	0.606781	0.0136566
2981.64	0.607422	0.000115173
2982.54	0.607452	0.00026825
2983.44	0.60733	0.00330231
2984.28	0.607483	0.000108429
2985.18	0.607422	0.000240448
2986.08	0.60733	0.00170197
2986.92	0.607422	0.000102264
2987.82	0.607452	0.000217194
2988.72	0.607361	0.00115723
2989.56	0.607452	9.65881e-05
2990.46	0.607452	0.000197296
2991.36	0.607422	0.000863953
2992.2	0.607422	9.09119e-05
2993.1	0.607483	0.000180908
2994	0.607391	0.000681763
2994.86	-0.697693	-0.0272552
2995.74	0.607452	0.00016153
2996.64	0.607391	0.000542297
2997.5	-0.697876	-0.0239044
2998.38	0.607422	0.000147797
2999.28	0.607422	0.000451935
3000.16	0.000177002	0.00145233
3001.02	0.607422	0.000137848
3001.92	0.607391	0.000387146
3002.8	0.000253296	0.000784302
3003.66	0.607452	0.000128937
3004.56	0.607422	0.000337616
3005.46	0.606384	0.0189941
3006.3	0.607452	0.000120941
3007.2	0.607361	0.000296997
3008.1	0.60675	0.0135651
3008.94	0.607391	0.00011261
3009.84	0.607422	0.000265045
3010.74	0.607361	0.00326569
3011.58	0.607452	0.000106964
3012.48	0.607452	0.000238831
3013.38	0.607361	0.00169189
3014.22	0.607452	0.000100433
3015.12	0.607422	0.000216187
3016.02	0.60733	0.00115295
3016.86	0.607391	9.52759e-05
3017.76	0.607422	0.00019696
3018.66	0.607452	0.000863647
3019.5	0.607422	9.09119e-05
3020.4	0.607422	0.000181366
3021.3	0.607391	0.000681763
3022.16	-0.697662	-0.02724
3023.04	0.607422	0.000166473
3023.94	0.607391	0.000557251
3024.8	-0.697937	-0.0238647
3025.68	0.607391	0.000153076
3026.58	0.607483	0.000465668
3027.46	0.000177002	0.00149994
3028.32	0.607483	0.000142609
3029.22	0.607422	0.000398407
3030.1	0.000247192	0.000843506
3030.96	0.607391	0.000132599
3031.86	0.607483	0.000346802
3032.76	0.606354	0.0190674
3033.6	0.607422	0.000124542
3034.5	0.607422	0.000304718
3035.4	0.606812	0.013678
3036.24	0.607483	0.000117126
3037.14	0.607422	0.000270142
3038.04	0.60733	0.00332977
3038.88	0.607361	0.000110352
3039.78	0.607452	0.00024292
3040.68	0.607361	0.00171387
3041.52	0.607452	0.000102386
3042.42	0.607513	0.000220032
3043.32	0.607361	0.00116669
3044.16	0.607452	9.65881e-05
3045.06	0.607391	0.000199829
3045.96	0.607361	0.000871582
3046.8	0.607483	9.26819e-05
3047.7	0.607422	0.000182709
3048.6	0.607391	0.000687866
3049.46	-0.697723	-0.027243
3050.34	0.607391	0.000167694
3051.24	0.607391	0.000562134
3052.1	-0.697937	-0.0238678
3052.98	0.607391	0.000154846
3053.88	0.607422	0.000469482
3054.76	0.000170898	0.00149597
3055.62	0.607452	0.000144073
3056.52	0.607422	0.000402374
3057.4	0.000234985	0.000840759
3058.26	0.607422	0.000133575
3059.16	0.607452	0.000348633
3060.06	0.606354	0.0190796
3060.9	0.607483	0.000125824
3061.8	0.607422	0.00030661
3062.7	0.60672	0.0136993
3063.54	0.607452	0.000117889
3064.44	0.607422	0.000272522
3065.34	0.60733	0.00334839
3066.18	0.607422	0.000110016
3067.08	0.607422	0.000245422
3067.98	0.607391	0.00172058
3068.82	0.607422	0.000105377
3069.72	0.607422	0.000221619
3070.62	0.607422	0.00117096
3071.46	0.607422	9.81445e-05
3072.36	0.607422	0.000200836
3073.26	0.6073	0.00087616
3074.1	0.607513	9.31702e-05
3075	0.607391	0.000183624
3075.9	0.607422	0.000691223
3076.76	-0.697754	-0.02724
3077.64	0.607452	0.000169739
3078.54	0.607422	0.000565186
3079.4	-0.697906	-0.0238678
3080.28	0.607452	0.000156616
3081.18	0.607422	0.000472687
3082.06	0.000189209	0.00148712
3082.92	0.607452	0.000145264
3083.82	0.607452	0.000403961
3084.7	0.000241089	0.00083252
3085.56	0.607452	0.000134308
3086.46	0.607391	0.000350403
3087.36	0.606323	0.0190826
3088.2	0.607391	0.000126465
3089.1	0.607391	0.000308319
3090	0.60675	0.0137054
3090.84	0.607422	0.000118683
3091.74	0.607422	0.000273132
3092.64	0.60733	0.00335449
3093.48	0.607422	0.000110291
3094.38	0.607452	0.000245789
3095.28	0.607361	0.00172485
3096.12	0.607391	0.000104187
3097.02	0.607452	0.000222229
3097.92	0.60733	0.0011734
3098.76	0.607483	0.000100098
3099.66	0.607452	0.000202667
3100.56	0.60733	0.000877991
3101.4	0.607483	9.41467e-05
3102.3	0.607452	0.000185608
3103.2	0.607391	0.000692749
3104.06	-0.697723	-0.0272339
3104.94	0.607422	0.000170074
3105.84	0.607391	0.000567322
3106.7	-0.697968	-0.0238678
3107.58	0.607452	0.00015744
3108.48	0.607422	0.00047406
3109.36	0.000167847	0.00147949
3110.22	0.607391	0.000145691
3111.12	0.607452	0.000405426
3112	0.000234985	0.000826416
3112.86	0.607391	0.000134827
3113.76	0.607452	0.000352631
3114.66	0.606384	0.0190704
3115.5	0.607422	0.000127014
3116.4	0.607452	0.000309357
3117.3	0.60675	0.0136932
3118.14	0.607391	0.000118256
3119.04	0.607422	0.000275116
3119.94	0.607391	0.00335236
3120.78	0.607391	0.000112122
3121.68	0.607452	0.00024704
3122.58	0.60733	0.00172729
3123.42	0.607452	0.000104614
3124.32	0.607452	0.000222961
3125.22	0.607361	0.00117676
3126.06	0.607391	9.96094e-05
3126.96	0.607391	0.000203247
3127.86	0.607361	0.000881653
3128.7	0.607483	9.42078e-05
3129.6	0.607483	0.000186554
3130.5	0.607361	0.000696106
3131.36	-0.697662	-0.027243
3132.24	0.607452	0.000171021
3133.14	0.607361	0.000568848
3134	-0.697937	-0.0238739
3134.88	0.607391	0.000158447
3135.78	0.607422	0.000475159
3136.66	0.00017395	0.00147125
3137.52	0.607483	0.000145447
3138.42	0.607422	0.000407166
3139.3	0.000231934	0.000822754
3140.16	0.607391	0.000136261
3141.06	0.607422	0.000353241
3141.96	0.606354	0.0190704
3142.8	0.607452	0.000127716
3143.7	0.607422	0.000312012
3144.6	0.60672	0.0137085
3145.44	0.607422	0.000119202
3146.34	0.607422	0.000276428
3147.24	0.607361	0.00336517
3148.08	0.607422	0.000112701
3148.98	0.607452	0.000248566
3149.88	0.607391	0.00173248
3150.72	0.607422	0.000106262
3151.62	0.607452	0.000223846
3152.52	0.607361	0.00118042
3153.36	0.607422	0.000100006
3154.26	0.607422	0.000203949
3155.16	0.607452	0.000884705
3156	0.607422	9.45435e-05
3156.9	0.607452	0.00018634
3157.8	0.607391	0.000697632
3158.66	-0.697662	-0.0272491
3159.54	0.607452	0.000172394
3160.44	0.607422	0.000570679
3161.3	-0.697937	-0.0238861
3162.18	0.607422	0.0001586
3163.08	0.607391	0.0004776
3163.96	0.000170898	0.0014682
3164.82	0.607422	0.000147125
3165.72	0.607391	0.000408875
3166.6	0.000244141	0.000817566
3167.46	0.607422	0.000137939
3168.36	0.607422	0.000355316
3169.26	0.606354	0.0190674
3170.1	0.607452	0.000128021
3171	0.607422	0.000312378
3171.9	0.606842	0.0137238
3172.74	0.607452	0.000120758
3173.64	0.607422	0.000278381
3174.54	0.607361	0.00338013
3175.38	0.607422	0.000113251
3176.28	0.607422	0.000249329
3177.18	0.60733	0.00173828
3178.02	0.607391	0.000106445
3178.92	0.607452	0.000225922
3179.82	0.607361	0.00118469
3180.66	0.607452	0.000101074
3181.56	0.607452	0.000204224
3182.46	0.607391	0.000887146
3183.3	0.607452	9.51843e-05
3184.2	0.607422	0.000187561
3185.1	0.607361	0.000700378
3185.96	-0.697693	-0.0272461
3186.84	0.607422	0.000172546
3187.74	0.607391	0.00057312
3188.6	-0.697937	-0.0238708
3189.48	0.607422	0.000159149
3190.38	0.607391	0.000479584
3191.26	0.00015564	0.00146118
3192.12	0.607452	0.000148468
3193.02	0.607483	0.000410919
3193.9	0.000228882	0.000812378
3194.76	0.607452	0.000138336
3195.66	0.607422	0.000356384
3196.56	0.606415	0.0190582
3197.4	0.607422	0.000128662
3198.3	0.607422	0.000314117
3199.2	0.60672	0.013736
3200.04	0.607422	0.000121582
3200.94	0.607361	0.000279449
3201.84	0.60733	0.00339447
3202.68	0.607452	0.000115143
3203.58	0.607422	0.000250488
3204.48	0.607361	0.00174225
3205.32	0.607361	0.000107239
3206.22	0.607422	0.000225647
3207.12	0.607422	0.00118835
3207.96	0.607452	0.000102051
3208.86	0.607483	0.000206238
3209.76	0.607422	0.000889893
3210.6	0.607391	9.57642e-05
3211.5	0.607422	0.000189392
3212.4	0.607361	0.000703125
3213.26	-0.697693	-0.0272491
3214.14	0.607452	0.000173431
3215.04	0.607391	0.000574646
3215.9	-0.697937	-0.02388
3216.78	0.607422	0.000160645
3217.68	0.607361	0.000480957
3218.56	0.000180054	0.00145966
3219.42	0.607391	0.000149323
3220.32	0.607452	0.000412201
3221.2	0.000247192	0.000813293
3222.06	0.607422	0.000139374
3222.96	0.607452	0.000357819
3223.86	0.606384	0.0190674
3224.7	0.607452	0.000129944
3225.6	0.607391	0.000315002
3226.5	0.60672	0.0137482
3227.34	0.607422	0.000121918
3228.24	0.607452	0.000279907
3229.14	0.6073	0.00339874
3229.98	0.607422	0.000115021
3230.88	0.607452	0.000252441
3231.78	0.60733	0.00174591
3232.62	0.607452	0.000108429
3233.52	0.607452	0.000226715
3234.42	0.607361	0.00119049
3235.26	0.607452	0.000102173
3236.16	0.607422	0.000205841
3237.06	0.607361	0.000892944
3237.9	0.607452	9.68323e-05
3238.8	0.607422	0.000189606
3239.7	0.6073	0.000706482
3240.56	-0.697632	-0.0272461
3241.44	0.607391	0.0001745
3242.34	0.60733	0.000577393
3243.2	-0.697937	-0.0238739
3244.08	0.607391	0.000161591
3244.98	0.607483	0.000483337
3245.86	0.000170898	0.00145844
3246.72	0.607422	0.00014978
3247.62	0.607422	0.000413696
3248.5	0.000241089	0.000814819
3249.36	0.607483	0.000140137
3250.26	0.607452	0.00035965
3251.16	0.606354	0.0190674
3252	0.607422	0.00013028
3252.9	0.607452	0.000317688
3253.8	0.60675	0.0137482
3254.64	0.607483	0.000122894
3255.54	0.607452	0.00028125
3256.44	0.60733	0.00339905
3257.28	0.607422	0.000115173
3258.18	0.607422	0.000252991
3259.08	0.607361	0.00174927
3259.92	0.607422	0.000108398
3260.82	0.607391	0.000228394
3261.72	0.60733	0.00119385
3262.56	0.607391	0.000103119
3263.46	0.607391	0.00020874
3264.36	0.60733	0.000894775
3265.2	0.607422	9.83582e-05
3266.1	0.607422	0.000189941
3267	0.607361	0.000707397
3267.86	-0.697693	-0.0272369
3268.74	0.607422	0.000175293
3269.64	0.607361	0.000578918
3270.5	-0.697906	-0.02388
3271.38	0.607422	0.000161499
3272.28	0.607422	0.000485321
3273.16	0.000167847	0.00144714
3274.02	0.607483	0.000151062
3274.92	0.607483	0.000416168
3275.8	0.000244141	0.000800476
3276.66	0.607452	0.000140015
3277.56	0.607422	0.00036142
3278.46	0.606323	0.0190521
3279.3	0.607452	0.000132019
3280.2	0.607422	0.000317963
3281.1	0.606812	0.0137421
3281.94	0.607483	0.000123596
3282.84	0.607422	0.000282013
3283.74	0.607361	0.00340088
3284.58	0.607452	0.000117218
3285.48	0.607452	0.000253082
3286.38	0.607361	0.0017514
3287.22	0.607391	0.000110229
3288.12	0.607422	0.000229706
3289.02	0.60733	0.00119537
3289.86	0.607422	0.000103668
3290.76	0.607422	0.000208862
3291.66	0.607391	0.000895386
3292.5	0.607391	9.8175e-05
3293.4	0.607422	0.000191559
3294.3	0.60733	0.000708313
3295.16	-0.697662	-0.0272247
3296.04	0.607452	0.000176666
3296.94	0.607361	0.00058075
3297.8	-0.697937	-0.0238556
3298.68	0.607452	0.000162903
3299.58	0.607452	0.00048587
3300.46	0.00015564	0.00144623
3301.32	0.607422	0.000151123
3302.22	0.607422	0.00041629
3303.1	0.000238037	0.000797729
3303.96	0.607483	0.000141998
3304.86	0.607452	0.000362396
3305.76	0.606354	0.019043
3306.6	0.607452	0.000132416
3307.5	0.607452	0.000318359
3308.4	0.606689	0.0137115
3309.24	0.607452	0.000123871
3310.14	0.607452	0.00028418
3311.04	0.6073	0.00338989
3311.88	0.607422	0.000116516
3312.78	0.607361	0.000254272
3313.68	0.607361	0.00175079
3314.52	0.607483	0.000110657
3315.42	0.607452	0.000230072
3316.32	0.607391	0.00119507
3317.16	0.607391	0.000104034
3318.06	0.607452	0.000209869
3318.96	0.607391	0.000897522
3319.8	0.607452	9.93958e-05
3320.7	0.607422	0.00019104
3321.6	0.607361	0.000709839
3322.46	-0.697723	-0.0272156
3323.34	0.607391	0.000177551
3324.24	0.607422	0.000581665
3325.1	-0.697937	-0.0238556
3325.98	0.607422	0.000163666
3326.88	0.607422	0.000486786
3327.76	0.000164795	0.00143982
3328.62	0.607422	0.000152466
3329.52	0.607483	0.000417084
3330.4	0.000256348	0.000788879
3331.26	0.607483	0.000142059
3332.16	0.607422	0.000362701
3333.06	0.606323	0.0190399
3333.9	0.607452	0.000132751
3334.8	0.607391	0.000319885
3335.7	0.606781	0.0136993
3336.54	0.607452	0.00012442
3337.44	0.607452	0.000284882
3338.34	0.6073	0.00338165
3339.18	0.607452	0.000116638
3340.08	0.607452	0.000255005
3340.98	0.60733	0.00175049
3341.82	0.607422	0.000110199
3342.72	0.607452	0.000230743
3343.62	0.60733	0.00119751
3344.46	0.607452	0.00010553
3345.36	0.607422	0.0002109375
3346.26	0.60733	0.000898743
3347.1	0.607422	9.93958e-05
3348	0.607422	0.000192535
3348.9	0.607361	0.000711365
3349.76	-0.697693	-0.0272247
3350.64	0.607452	0.000177673
3351.54	0.607361	0.000582886
3352.4	-0.697845	-0.0238647
3353.28	0.607483	0.000164154
3354.18	0.607422	0.000488586
3355.06	0.000164795	0.00143188
3355.92	0.607452	0.00015329
3356.82	0.607452	0.000418182
3357.7	0.000231934	0.000783386
3358.56	0.607422	0.000142212
3359.46	0.607452	0.000363831
3360.36	0.606323	0.0190338
3361.2	0.607452	0.000132568
3362.1	0.607452	0.000320831
3363	0.606781	0.0137115
3363.84	0.607422	0.00012561
3364.74	0.607452	0.000284576
3365.64	0.6073	0.00338165
3366.48	0.607391	0.000117218
3367.38	0.607452	0.000255554
3368.28	0.60733	0.0017514
3369.12	0.607452	0.000110779
3370.02	0.607391	0.000231537
3370.92	0.607361	0.00119843
3371.76	0.607452	0.000105164
3372.66	0.607391	0.000211029
3373.56	0.607391	0.000900879
3374.4	0.607452	9.91821e-05
3375.3	0.607422	0.000192535
3376.2	0.607391	0.000713501
3377.06	-0.697662	-0.0272552
3377.94	0.607422	0.000177856
3378.84	0.607422	0.000583496
3379.7	-0.697968	-0.0238861
3380.58	0.607452	0.000165039
3381.48	0.607452	0.000489288
3382.36	0.00017395	0.00143219
3383.22	0.607422	0.000152557
3384.12	0.607422	0.000420013
3385	0.000247192	0.000783691
3385.86	0.607452	0.000142365
3386.76	0.607452	0.000364777
3387.66	0.606384	0.0190369
3388.5	0.607422	0.000134796
3389.4	0.607422	0.000321899
3390.3	0.60675	0.0137238
3391.14	0.607452	0.000126221
3392.04	0.607422	0.000287048
3392.94	0.60733	0.00339783
3393.78	0.607452	0.000117828
3394.68	0.607361	0.000257568
3395.58	0.607361	0.00175751
3396.42	0.607452	0.000112183
3397.32	0.607391	0.000232239
3398.22	0.60733	0.00120331
3399.06	0.607452	0.000105835
3399.96	0.607422	0.000212189
3400.86	0.607391	0.000903015
3401.7	0.607452	0.000100616
3402.6	0.607483	0.000194458
3403.5	0.60733	0.000715637
3404.36	-0.697662	-0.027243
3405.24	0.607391	0.00017981
3406.14	0.607391	0.000586548
3407	-0.697906	-0.0238861
3407.88	0.607452	0.00016571
3408.78	0.607452	0.000490936
3409.66	0.000170898	0.00143097
3410.52	0.607422	0.000154541
3411.42	0.607391	0.000421204
3412.3	0.000259399	0.00078186
3413.16	0.607483	0.000143433
3414.06	0.607452	0.000366974
3414.96	0.606384	0.0190399
3415.8	0.607422	0.000135162
3416.7	0.607422	0.000323181
3417.6	0.60672	0.013736
3418.44	0.607452	0.000126801
3419.34	0.607452	0.00028775
3420.24	0.6073	0.00340942
3421.08	0.607422	0.00011969
3421.98	0.607391	0.000258179
3422.88	0.607361	0.00176331
3423.72	0.607452	0.000112823
3424.62	0.607452	0.000234528
3425.52	0.607361	0.00120728
3426.36	0.607422	0.000106506
3427.26	0.607391	0.000213623
3428.16	0.60733	0.000906067
3429	0.607452	0.000101532
3429.9	0.607483	0.000195282
3430.8	0.607361	0.000719299
3431.66	-0.697662	-0.02724
3432.54	0.607452	0.000180145
3433.44	0.607361	0.0005896
3434.3	-0.697906	-0.02388
3435.18	0.607422	0.000167328
3436.08	0.607422	0.000493591
3436.96	0.000167847	0.00141937
3437.82	0.607422	0.000155701
3438.72	0.607422	0.000424103
3439.6	0.000241089	0.00077301
3440.46	0.607391	0.000144348
3441.36	0.607452	0.000368835
3442.26	0.606384	0.0190308
3443.1	0.607422	0.000135956
3444	0.607422	0.000325134
3444.9	0.606689	0.0137421
3445.74	0.607513	0.000127106
3446.64	0.607422	0.000289398
3447.54	0.607361	0.00341827
3448.38	0.607483	0.000121033
3449.28	0.607422	0.000259491
3450.18	0.60733	0.00176422
3451.02	0.607452	0.000113678
3451.92	0.607422	0.000235687
3452.82	0.60733	0.00120819
3453.66	0.607391	0.000107239
3454.56	0.607391	0.000214264
3455.46	0.607391	0.000908203
3456.3	0.607483	0.000101196
3457.2	0.607422	0.000196411
3458.1	0.607452	0.00071991
3458.96	-0.697693	-0.0272278
3459.84	0.607422	0.000181152
3460.74	0.607452	0.000588989
3461.6	-0.697937	-0.0238556
3462.48	0.607452	0.000167786
3463.38	0.607422	0.000495514
3464.26	0.000164795	0.00142273
3465.12	0.607452	0.000155975
3466.02	0.607422	0.000423889
3466.9	0.000247192	0.0007724
3467.76	0.607483	0.000144928
3468.66	0.607452	0.000369843
3469.56	0.606323	0.0190277
3470.4	0.607422	0.000136383
3471.3	0.607422	0.000325714
3472.2	0.60672	0.0137115
3473.04	0.607483	0.000128754
3473.94	0.607391	0.000289886
3474.84	0.6073	0.00340912
3475.68	0.607422	0.000119476
3476.58	0.607483	0.000261353
3477.48	0.60733	0.00176636
3478.32	0.607452	0.000113373
3479.22	0.607452	0.000236267
3480.12	0.607391	0.00121033
3480.96	0.607361	0.000107605
3481.86	0.607452	0.000215485
3482.76	0.607422	0.000910339
3483.6	0.607483	0.0001008
3484.5	0.607452	0.000196808
3485.4	0.607361	0.000720825
3486.26	-0.697723	-0.027243
3487.14	0.607452	0.000180878
3488.04	0.60733	0.000590515
3488.9	-0.697906	-0.0238708
3489.78	0.607452	0.000167969
3490.68	0.607391	0.000497742
3491.56	0.000158691	0.00140961
3492.42	0.607422	0.000155853
3493.32	0.607391	0.00042511
3494.2	0.000234985	0.000762939
3495.06	0.607422	0.000145294
3495.96	0.607422	0.000371094
3496.86	0.606354	0.0190216
3497.7	0.607422	0.000136871
3498.6	0.607361	0.000326935
3499.5	0.60672	0.0137207
3500.34	0.607422	0.000128693
3501.24	0.607483	0.000290436
3502.14	0.6073	0.00341736
3502.98	0.607422	0.000121216
3503.88	0.607422	0.000261658
3504.78	0.607361	0.00177002
3505.62	0.607452	0.000114746
3506.52	0.607391	0.00023764
3507.42	0.607361	0.00121277
3508.26	0.607422	0.000108093
3509.16	0.607422	0.000215729
3510.06	0.60733	0.000913391
3510.9	0.607483	0.000102234
3511.8	0.607452	0.000197876
3512.7	0.60733	0.000723877
3513.56	-0.697693	-0.0272308
3514.44	0.607422	0.000182617
3515.34	0.607361	0.000593567
3516.2	-0.697876	-0.0238739
3517.08	0.607452	0.000168976
3517.98	0.607361	0.000500183
3518.86	0.000158691	0.00141052
3519.72	0.607422	0.00015741
3520.62	0.607422	0.000427338
3521.5	0.00022583	0.000763245
3522.36	0.607452	0.000146637
3523.26	0.607422	0.000371399
3524.16	0.606323	0.0190216
3525	0.607422	0.000137726
3525.9	0.607422	0.00032782
3526.8	0.60672	0.0137421
3527.64	0.607422	0.000129242
3528.54	0.607422	0.000292786
3529.44	0.60733	0.00343231
3530.28	0.607422	0.000121826
3531.18	0.607391	0.000263367
3532.08	0.60733	0.00177429
3532.92	0.607422	0.000115936
3533.82	0.607422	0.000238617
3534.72	0.60733	0.00121735
3535.56	0.607483	0.000107941
3536.46	0.607422	0.000216492
3537.36	0.60733	0.000915222
3538.2	0.607422	0.000103088
3539.1	0.607422	0.000199249
3540	0.607361	0.000725098
3540.86	-0.697693	-0.02724
3541.74	0.607391	0.000183868
3542.64	0.607361	0.000595093
3543.5	-0.697968	-0.023877
3544.38	0.607452	0.000169495
3545.28	0.607391	0.000501404
3546.16	0.000152588	0.00140167
3547.02	0.607483	0.000158478
3547.92	0.607391	0.000428741
3548.8	0.000234985	0.000759277
3549.66	0.607422	0.000148193
3550.56	0.607452	0.000373505
3551.46	0.606323	0.0190277
3552.3	0.607422	0.000137482
3553.2	0.607422	0.00032901
3554.1	0.60675	0.0137451
3554.94	0.607452	0.000129852
3555.84	0.607452	0.000294678
3556.74	0.60733	0.00344055
3557.58	0.607422	0.00012265
3558.48	0.607513	0.000264526
3559.38	0.60733	0.00177948
3560.22	0.607422	0.000115753
3561.12	0.607452	0.00023941
3562.02	0.6073	0.00121918
3562.86	0.607452	0.000108215
3563.76	0.607422	0.000218506
3564.66	0.607361	0.000917664
3565.5	0.607422	0.000103882
3566.4	0.607422	0.000200745
3567.3	0.607361	0.000727844
3568.16	-0.697693	-0.0272461
3569.04	0.607513	0.000184235
3569.94	0.607361	0.000597839
3570.8	-0.697906	-0.0238861
3571.68	0.607422	0.000170837
3572.58	0.607422	0.000503845
3573.46	0.000164795	0.00140289
3574.32	0.607452	0.000158752
3575.22	0.607452	0.000429413
3576.1	0.000238037	0.000758667
3576.96	0.607422	0.000148712
3577.86	0.607422	0.000374969
3578.76	0.606323	0.0190216
3579.6	0.607483	0.000138153
3580.5	0.607452	0.000330566
3581.4	0.60672	0.013739
3582.24	0.607452	0.00013089
3583.14	0.607391	0.000294922
3584.04	0.60733	0.00343445
3584.88	0.607422	0.000123169
3585.78	0.607452	0.00026474
3586.68	0.607361	0.00177887
3587.52	0.607483	0.000115784
3588.42	0.607361	0.000240356
3589.32	0.607422	0.00122101
3590.16	0.607452	0.00010907
3591.06	0.607422	0.000218842
3591.96	0.607452	0.000918579
3592.8	0.607452	0.000104218
3593.7	0.607483	0.000200531
3594.6	0.607391	0.000728455
3595.46	-0.697693	-0.0272339
3596.34	0.607422	0.000185364
3597.24	0.607391	0.000598755
3598.1	-0.697876	-0.0238678
3598.98	0.607422	0.000171692
3599.88	0.607361	0.00050415
3600.76	0.000158691	0.00140045
3601.62	0.607452	0.000158752
3602.52	0.607452	0.000431274
3603.4	0.00022583	0.000756531
3604.26	0.607452	0.000148926
3605.16	0.607422	0.000375854
3606.06	0.606354	0.0190155
3606.9	0.607452	0.000139526
3607.8	0.607422	0.00033136
3608.7	0.60672	0.013736
3609.54	0.607544	0.000131531
3610.44	0.607452	0.000295135
3611.34	0.6073	0.00343018
3612.18	0.607422	0.000123871
3613.08	0.607422	0.000265472
3613.98	0.607361	0.00178009
3614.82	0.607391	0.00011615
3615.72	0.607452	0.000240265
3616.62	0.6073	0.0012207
3617.46	0.607483	0.000110352
3618.36	0.607422	0.000219452
3619.26	0.607422	0.0009198
3620.1	0.607422	0.000104309
3621	0.607422	0.000201324
3621.9	0.607391	0.00072998
3622.76	-0.697693	-0.0272308
3623.64	0.607483	0.000186676
3624.54	0.607391	0.000599976
3625.4	-0.697968	-0.02388
3626.28	0.607452	0.00017218
3627.18	0.607391	0.000505371
3628.06	0.000152588	0.00139465
3628.92	0.607452	0.000160797
3629.82	0.607422	0.000432159
3630.7	0.00022583	0.000751038
3631.56	0.607422	0.000149902
3632.46	0.607422	0.000376953
3633.36	0.606384	0.0190094
3634.2	0.607422	0.000140533
3635.1	0.607391	0.000332031
3636	0.60675	0.0137421
3636.84	0.607513	0.000131683
3637.74	0.607422	0.000296448
3638.64	0.607361	0.00343719
3639.48	0.607452	0.000124237
3640.38	0.607391	0.000266571
3641.28	0.60733	0.00178192
3642.12	0.607483	0.000116974
3643.02	0.607422	0.000241089
3643.92	0.607361	0.00122284
3644.76	0.607422	0.000110077
3645.66	0.607422	0.000220703
3646.56	0.607391	0.000921326
3647.4	0.607422	0.000105194
3648.3	0.607483	0.000202087
3649.2	0.607361	0.000730591
3650.06	-0.697693	-0.0272339
3650.94	0.607513	0.000186218
3651.84	0.607361	0.000601196
3652.7	-0.697937	-0.023877
3653.58	0.607452	0.000172241
3654.48	0.607391	0.000506592
3655.37	0.00015564	0.00139008
3656.23	0.607422	0.000160522
3657.13	0.607422	0.000433411
3658.01	0.000244141	0.00074585
3658.87	0.607422	0.000149384
3659.77	0.607452	0.000378326
3660.67	0.606384	0.0190063
3661.51	0.607422	0.000141052
3662.41	0.607361	0.000332245
3663.31	0.60672	0.0137421
3664.15	0.607452	0.000131134
3665.05	0.607452	0.000297852
3665.95	0.60733	0.00344727
3666.79	0.607452	0.000124634
3667.69	0.607422	0.000268311
3668.59	0.607422	0.0017865
3669.43	0.607361	0.000117523
3670.33	0.607422	0.00024231
3671.23	0.60733	0.0012262
3672.07	0.607452	0.000111267
3672.97	0.607452	0.000221558
3673.87	0.607391	0.000923767
3674.71	0.607452	0.000106476
3675.61	0.607422	0.000202942
3676.51	0.607361	0.000732727
3677.37	-0.697723	-0.0272339
3678.25	0.607452	0.000186676
3679.15	0.607391	0.000603027
3680.01	-0.697906	-0.0238708
3680.89	0.607422	0.00017395
3681.79	0.607391	0.0005078125
3682.67	0.00017395	0.00138672
3683.53	0.607452	0.000161316
3684.43	0.607422	0.000434753
3685.31	0.000222778	0.000748596
3686.17	0.607452	0.000151367
3687.07	0.607422	0.000379761
3687.97	0.606323	0.0190094
3688.81	0.607452	0.000140259
3689.71	0.607391	0.000333893
3690.61	0.60675	0.0137695
3691.45	0.607422	0.000132599
3692.35	0.607483	0.000299011
3693.25	0.6073	0.00347351
3694.09	0.607452	0.000125366
3694.99	0.607483	0.000269196
3695.89	0.607391	0.00179321
3696.73	0.607422	0.000117859
3697.63	0.607452	0.000243347
3698.53	0.607361	0.00123108
3699.37	0.607422	0.000112183
3700.27	0.607391	0.000222015
3701.17	0.60733	0.000926819
3702.01	0.607422	0.000105133
3702.91	0.607483	0.000203888
3703.81	0.607361	0.000736084
3704.67	-0.697723	-0.0272491
3705.55	0.607422	0.000187988
3706.45	0.60733	0.000606384
3707.31	-0.697906	-0.0238861
3708.19	0.607391	0.0001745
3709.09	0.607422	0.000510254
3709.97	0.000167847	0.00139038
3710.83	0.607452	0.000162811
3711.73	0.607452	0.000437439
3712.61	0.000241089	0.000749817
3713.47	0.607483	0.000152069
3714.37	0.607452	0.000380981
3715.27	0.606384	0.0190186
3716.11	0.607452	0.000141998
3717.01	0.607391	0.000336517
3717.91	0.606812	0.0138
3718.75	0.607422	0.000132965
3719.65	0.607391	0.000299957
3720.55	0.607269	0.00348938
3721.39	0.607361	0.000125336
3722.29	0.607391	0.00026947
3723.19	0.60733	0.00180054
3724.03	0.607422	0.000118378
3724.93	0.607452	0.000244354
3725.83	0.6073	0.00123596
3726.67	0.607452	0.00011203
3727.57	0.607452	0.000224396
3728.47	0.60733	0.000931396
3729.31	0.607422	0.000106628
3730.21	0.607452	0.000204865
3731.11	0.607391	0.000739136
3731.97	-0.697754	-0.0272491
3732.85	0.607452	0.000189667
3733.75	0.607361	0.000607605
3734.61	-0.697906	-0.0238892
3735.49	0.607422	0.000175568
3736.39	0.607391	0.000512085
3737.27	0.00015564	0.00139038
3738.13	0.607422	0.000163635
3739.03	0.607422	0.000438416
3739.91	0.000231934	0.000748596
3740.77	0.607483	0.000152618
3741.67	0.607422	0.000382965
3742.57	0.606323	0.0190216
3743.41	0.607422	0.000142517
3744.31	0.607422	0.000338104
3745.21	0.60672	0.0138031
3746.05	0.607452	0.000134186
3746.95	0.607452	0.000302185
3747.85	0.6073	0.00349304
3748.69	0.607391	0.000125519
3749.59	0.607452	0.000271149
3750.49	0.6073	0.00180267
3751.33	0.607422	0.000119507
3752.23	0.607452	0.000245667
3753.13	0.60733	0.0012381
3753.97	0.607422	0.000112549
3754.87	0.607422	0.000224335
3755.77	0.607391	0.000932617
3756.61	0.607452	0.000106049
3757.51	0.607422	0.000206512
3758.41	0.607391	0.000740662
3759.27	-0.697693	-0.0272278
3760.15	0.607391	0.000190002
3761.05	0.607361	0.000608521
3761.91	-0.697937	-0.0238739
3762.79	0.607422	0.000176697
3763.69	0.607391	0.000513611
3764.57	0.000180054	0.0013974
3765.43	0.607483	0.000164307
3766.33	0.607422	0.000439789
3767.21	0.000247192	0.000753479
3768.07	0.607483	0.000152496
3768.97	0.607422	0.000384033
3769.87	0.606354	0.0190247
3770.71	0.607422	0.000143921
3771.61	0.607483	0.000339478
3772.51	0.60675	0.0138
3773.35	0.607483	0.000134064
3774.25	0.607452	0.000302399
3775.15	0.607361	0.00349609
3775.99	0.607422	0.000127319
3776.89	0.607422	0.000273163
3777.79	0.607361	0.0018045
3778.63	0.607391	0.00011969
3779.53	0.607483	0.000246918
3780.43	0.607391	0.00123932
3781.27	0.607483	0.000112762
3782.17	0.607361	0.000225647
3783.07	0.607391	0.000935059
3783.91	0.607452	0.000106628
3784.81	0.607422	0.000206329
3785.71	0.607422	0.000741272
3786.57	-0.697693	-0.027243
3787.45	0.607452	0.000190277
3788.35	0.607391	0.000610657
3789.21	-0.697968	-0.0238831
3790.09	0.607422	0.000176056
3790.99	0.607391	0.000513916
3791.87	0.000152588	0.00138947
3792.73	0.607422	0.000163849
3793.63	0.607452	0.000440918
3794.51	0.000213623	0.000743103
3795.37	0.607452	0.000153198
3796.27	0.607422	0.000384308
3797.17	0.606415	0.0190247
3798.01	0.607391	0.000144562
3798.91	0.607422	0.000339844
3799.81	0.606781	0.013797
3800.65	0.607422	0.000134521
3801.55	0.607452	0.00030365
3802.45	0.6073	0.00349945
3803.29	0.607391	0.000126129
3804.19	0.607483	0.00027301
3805.09	0.607361	0.00180634
3805.93	0.607422	0.000120728
3806.83	0.607422	0.000247131
3807.73	0.607391	0.00124176
3808.57	0.607422	0.000113525
3809.47	0.607422	0.000224884
3810.37	0.607361	0.00093689
3811.21	0.607361	0.000107086
3812.11	0.607422	0.000207184
3813.01	0.607391	0.000743713
3813.87	-0.697662	-0.0272461
3814.75	0.607422	0.000191589
3815.65	0.607391	0.000612488
3816.51	-0.697906	-0.0238831
3817.39	0.607452	0.000177856
3818.29	0.607391	0.000517273
3819.17	0.00017395	0.00138275
3820.03	0.607422	0.000164917
3820.93	0.607422	0.0004422
3821.81	0.00022583	0.000739746
3822.67	0.607452	0.000153473
3823.57	0.607422	0.000386658
3824.47	0.606354	0.0190186
3825.31	0.607483	0.000144073
3826.21	0.607452	0.00034082
3827.11	0.606689	0.0138062
3827.95	0.607422	0.000135193
3828.85	0.607422	0.000304413
3829.75	0.6073	0.00350952
3830.59	0.607422	0.000128021
3831.49	0.607483	0.000274689
3832.39	0.60733	0.0018103
3833.23	0.607422	0.000120361
3834.13	0.607452	0.000248993
3835.03	0.607391	0.00124512
3835.87	0.607452	0.000113892
3836.77	0.607422	0.000227417
3837.67	0.607361	0.00093811
3838.51	0.607422	0.000107971
3839.41	0.607452	0.00020874
3840.31	0.607361	0.000745239
3841.17	-0.697693	-0.02724
3842.05	0.607422	0.000191589
3842.95	0.607422	0.000614014
3843.81	-0.697937	-0.023877
3844.69	0.607422	0.000178192
3845.59	0.60733	0.000518799
3846.47	0.000140381	0.00138092
3847.33	0.607422	0.00016568
3848.23	0.607422	0.00044342
3849.11	0.000201416	0.0007421875
3849.97	0.607391	0.000155518
3850.87	0.607422	0.000387909
3851.77	0.606293	0.0190247
3852.61	0.607422	0.000144348
3853.51	0.607452	0.000341492
3854.41	0.60675	0.0138214
3855.25	0.607452	0.000136292
3856.15	0.607452	0.000305542
3857.05	0.60733	0.00352844
3857.89	0.607391	0.000127991
3858.79	0.607422	0.000275269
3859.69	0.607361	0.00181641
3860.53	0.607422	0.000120697
3861.43	0.607422	0.000249634
3862.33	0.607361	0.00124756
3863.17	0.607452	0.000114594
3864.07	0.607483	0.000227966
3864.97	0.607422	0.000941162
3865.81	0.607422	0.000107574
3866.71	0.607452	0.000209534
3867.61	0.6073	0.000748291
3868.47	-0.697632	-0.0272339
3869.35	0.607452	0.000193542
3870.25	0.607361	0.00061615
3871.11	-0.697906	-0.0238708
3871.99	0.607452	0.000177948
3872.89	0.607361	0.000519714
3873.77	0.000180054	0.00138428
3874.63	0.607452	0.000165649
3875.53	0.607422	0.000444885
3876.41	0.000228882	0.000742493
3877.27	0.607452	0.000155365
3878.17	0.607422	0.000388092
3879.07	0.606384	0.0190216
3879.91	0.607452	0.000145508
3880.81	0.607422	0.000343231
3881.71	0.60675	0.0138367
3882.55	0.607391	0.000135712
3883.45	0.607422	0.00030719
3884.35	0.60733	0.00353729
3885.19	0.607452	0.000128632
3886.09	0.607452	0.00027594
3886.99	0.60733	0.00181946
3887.83	0.607422	0.000122192
3888.73	0.607452	0.000249878
3889.63	0.6073	0.00125
3890.47	0.607391	0.000115448
3891.37	0.607422	0.000229187
3892.27	0.60733	0.000943909
3893.11	0.607483	0.0001091
3894.01	0.607422	0.000209808
3894.91	0.607361	0.000749817
3895.77	-0.697662	-0.0272308
3896.65	0.607422	0.000194092
3897.55	0.6073	0.000617371
3898.41	-0.697937	-0.0238586
3899.29	0.607452	0.000179474
3900.19	0.607422	0.000521851
3901.07	0.000158691	0.00138702
3901.93	0.607452	0.000166595
3902.83	0.607391	0.000446625
3903.71	0.000238037	0.000751038
3904.57	0.607422	0.000155731
3905.47	0.607422	0.000390747
3906.37	0.606323	0.0190277
3907.21	0.607452	0.000146118
3908.11	0.607452	0.000344849
3909.01	0.606689	0.0138428
3909.85	0.607422	0.000137238
3910.75	0.607361	0.000307281
3911.65	0.60733	0.00354675
3912.49	0.607422	0.00012912
3913.39	0.607483	0.000277191
3914.29	0.60733	0.00182343
3915.13	0.607422	0.000122498
3916.03	0.607452	0.000251556
3916.93	0.607361	0.00125397
3917.77	0.607422	0.000114746
3918.67	0.607391	0.000230225
3919.57	0.607361	0.000946655
3920.41	0.607391	0.000110046
3921.31	0.607483	0.00021109
3922.21	0.607391	0.000752258
3923.07	-0.697632	-0.027243
3923.95	0.607391	0.000194885
3924.85	0.607391	0.000619812
3925.71	-0.697998	-0.0238708
3926.59	0.607422	0.0001796875
3927.49	0.607361	0.000522461
3928.37	0.000146484	0.00138702
3929.23	0.607452	0.000167938
3930.13	0.607452	0.000448669
3931.01	0.000231934	0.000750427
3931.87	0.607452	0.000156067
3932.77	0.607422	0.000391693
3933.67	0.606415	0.0190399
3934.51	0.607422	0.000146851
3935.41	0.607452	0.000345917
3936.31	0.60672	0.0138489
3937.15	0.607452	0.000138092
3938.05	0.607391	0.000308411
3938.95	0.607361	0.00354828
3939.79	0.607452	0.000129822
3940.69	0.607422	0.000277405
3941.59	0.607361	0.00182465
3942.43	0.607483	0.00012323
3943.33	0.607452	0.000251678
3944.23	0.607391	0.00125519
3945.07	0.607422	0.000115845
3945.97	0.607452	0.000229828
3946.87	0.607422	0.000946655
3947.71	0.607422	0.000110443
3948.61	0.607422	0.000211426
3949.51	0.607361	0.000753174
3950.37	-0.697723	-0.0272339
3951.25	0.607391	0.000194275
3952.15	0.607422	0.000619812
3953.01	-0.697998	-0.023877
3953.89	0.607422	0.000180817
3954.79	0.607361	0.000523682
3955.67	0.00017395	0.00138031
3956.53	0.607452	0.000167847
3957.43	0.607391	0.000447327
3958.31	0.000244141	0.000743713
3959.17	0.607422	0.000156891
3960.07	0.607422	0.000391235
3960.97	0.606384	0.0190247
3961.81	0.607391	0.000147064
3962.71	0.607422	0.000345978
3963.61	0.60675	0.0138367
3964.45	0.607483	0.000137543
3965.35	0.607452	0.000308899
3966.25	0.6073	0.00349548
3967.09	0.607422	0.00012796
3967.99	0.607391	0.000273956
3968.89	0.607391	0.00179932
3969.73	0.607422	0.00012085
3970.63	0.607391	0.000247833
3971.53	0.607361	0.00123993
3972.37	0.607483	0.000113434
3973.27	0.607391	0.0002265625
3974.17	0.607361	0.000936584
3975.01	0.607422	0.000107483
3975.91	0.607391	0.000209351
3976.81	0.60733	0.00074646
3977.67	-0.697693	-0.0272583
3978.55	0.607422	0.000192474
3979.45	0.607422	0.000614624
3980.31	-0.697906	-0.0239044
3981.19	0.607452	0.000179291
3982.09	0.607361	0.000519104
3982.97	0.000167847	0.00136139
3983.83	0.607452	0.000165955
3984.73	0.607483	0.000446289
3985.61	0.000250244	0.000721741
3986.47	0.607452	0.000154999
3987.37	0.607452	0.000389984
3988.27	0.606354	0.0190063
3989.11	0.607483	0.000145386
3990.01	0.607391	0.000344482
3990.91	0.60672	0.013797
3991.75	0.607422	0.000136353
3992.65	0.607391	0.00030777
3993.55	0.607361	0.00351013
3994.39	0.607422	0.00012915
3995.29	0.607422	0.000277405
3996.19	0.6073	0.00181824
3997.03	0.607391	0.000121613
3997.93	0.607483	0.000251526
3998.83	0.607361	0.00125244
3999.67	0.607422	0.000115204
4000.57	0.607391	0.000229767
4001.47	0.607391	0.000946655
4002.31	0.607422	0.000109528
4003.21	0.607422	0.000210632
4004.11	0.607361	0.000754395
4004.97	-0.697754	-0.0272461
4005.85	0.607422	0.000194885
4006.75	0.607361	0.000620728
4007.61	-0.697906	-0.0238892
4008.49	0.607422	0.000180115
4009.39	0.607361	0.000523682
4010.27	0.000164795	0.00137787
4011.13	0.607391	0.000169098
4012.03	0.607452	0.000449036
4012.91	0.000234985	0.000734558
4013.77	0.607422	0.000156738
4014.67	0.607452	0.000392273
4015.57	0.606354	0.0190277
4016.41	0.607422	0.000148132
4017.31	0.607452	0.00034729
4018.21	0.60675	0.0138245
4019.05	0.607422	0.00013739
4019.95	0.607422	0.000309326
4020.85	0.60733	0.00352417
4021.69	0.607361	0.000130188
4022.59	0.607483	0.000279388
4023.49	0.607422	0.00182343
4024.33	0.607452	0.000122528
4025.23	0.607361	0.000253265
4026.13	0.607391	0.0012561
4026.97	0.607422	0.000116333
4027.87	0.607452	0.000230927
4028.77	0.607361	0.000949707
4029.61	0.607452	0.000111206
4030.51	0.607422	0.000211548
4031.41	0.607391	0.000755005
4032.27	-0.697693	-0.0272369
4033.15	0.607452	0.000194916
4034.05	0.607391	0.000621643
4034.91	-0.697937	-0.023877
4035.79	0.607422	0.000180267
4036.69	0.60733	0.000525513
4037.57	0.000180054	0.00139099
4038.43	0.607422	0.00016864
4039.33	0.607391	0.000450195
4040.21	0.000241089	0.000748901
4041.07	0.607452	0.00015683
4041.97	0.607452	0.000393341
4042.87	0.606354	0.0190369
4043.71	0.607422	0.000148102
4044.61	0.607422	0.000348419
4045.51	0.60675	0.0138397
4046.35	0.607513	0.000138611
4047.25	0.607391	0.000309814
4048.15	0.60733	0.00353333
4048.99	0.607452	0.000131226
4049.89	0.607452	0.000280029
4050.79	0.607361	0.0018277
4051.63	0.607422	0.000123596
4052.53	0.607483	0.000253326
4053.43	0.607361	0.00125946
4054.27	0.607422	0.000117676
4055.17	0.607422	0.000231873
4056.07	0.607391	0.000951233
4056.91	0.607391	0.000111572
4057.81	0.607422	0.000212189
4058.71	0.607422	0.000756836
4059.57	-0.697723	-0.0272308
4060.45	0.607452	0.000196625
4061.35	0.607361	0.000624695
4062.21	-0.697906	-0.0238647
4063.09	0.607452	0.000182495
4063.99	0.607391	0.000527039
4064.87	0.000180054	0.00139465
4065.73	0.607452	0.000169678
4066.63	0.607391	0.000451721
4067.51	0.000253296	0.000749817
4068.37	0.607452	0.000157593
4069.27	0.607422	0.000394257
4070.17	0.606354	0.0190369
4071.01	0.607483	0.000148895
4071.91	0.607452	0.000349457
4072.81	0.60672	0.0138428
4073.65	0.607452	0.00013916
4074.55	0.607391	0.00031076
4075.45	0.607269	0.00353119
4076.29	0.607391	0.000131592
4077.19	0.607452	0.000280579
4078.09	0.607361	0.00182892
4078.93	0.607422	0.000124176
4079.83	0.607452	0.00025473
4080.73	0.607422	0.00125977
4081.57	0.607422	0.000117798
4082.47	0.607391	0.00023175
4083.37	0.607391	0.000953369
4084.21	0.607391	0.000111542
4085.11	0.607483	0.000212402
4086.01	0.6073	0.000758972
4086.87	-0.697723	-0.0272247
4087.75	0.607391	0.000197388
4088.65	0.607361	0.000624695
4089.51	-0.697876	-0.0238617
4090.39	0.607391	0.00018222
4091.29	0.607361	0.000527954
4092.17	0.000167847	0.00139008
4093.03	0.607452	0.000169373
4093.93	0.607452	0.000452484
4094.81	0.000253296	0.00074646
4095.67	0.607452	0.000158844
4096.57	0.607452	0.000395203
4097.47	0.606354	0.0190308
4098.31	0.607422	0.000148895
4099.21	0.607422	0.000349274
4100.11	0.60672	0.0138397
4100.95	0.607391	0.000139832
4101.85	0.607483	0.000313171
4102.75	0.6073	0.00353943
4103.59	0.607452	0.0001315
4104.49	0.607422	0.000281158
4105.39	0.60733	0.00183136
4106.23	0.607483	0.000123657
4107.13	0.607452	0.000255432
4108.03	0.607361	0.00126221
4108.87	0.607422	0.000117828
4109.77	0.607422	0.000233032
4110.67	0.607361	0.00095459
4111.51	0.607452	0.000111847
4112.41	0.607452	0.000213684
4113.31	0.607452	0.000759888
4114.17	-0.697662	-0.0272186
4115.05	0.607452	0.000197479
4115.95	0.607361	0.00062561
4116.81	-0.697937	-0.0238586
4117.69	0.607452	0.00018158
4118.59	0.607391	0.00052887
4119.47	0.000180054	0.00139313
4120.33	0.607452	0.000170471
4121.23	0.607422	0.000453461
4122.11	0.000247192	0.000750122
4122.97	0.607422	0.00015921
4123.87	0.607452	0.000396393
4124.77	0.606323	0.0190369
4125.61	0.607361	0.00014917
4126.51	0.607391	0.000350311
4127.41	0.606689	0.0138489
4128.25	0.607452	0.000139465
4129.15	0.607391	0.00031308
4130.05	0.607391	0.00354431
4130.89	0.607391	0.000131744
4131.03	0.607422	0.000108917