File: Edgar/20240417/20240417/electrodeposition_pulsed_potential_B/data/pulses_1000_to_2000.txt
Time (s)	WE(1).Potential (V)	WE(1).Current (A)
1506.41	-0.697723	-0.0272461
1507.29	0.607422	6.23169e-05
1508.19	0.607422	0.000301178
1509.05	-0.697937	-0.0239258
1509.93	0.607452	7.37305e-05
1510.83	0.607483	0.000266144
1511.71	0.000192261	0.00180847
1512.57	0.607422	7.02209e-05
1513.47	0.607452	0.000229858
1514.35	0.000231934	0.000922546
1515.21	0.607483	6.66199e-05
1516.11	0.607452	0.000198486
1517.01	0.606384	0.0187775
1517.85	0.607452	6.18896e-05
1518.75	0.607452	0.000173706
1519.65	0.606903	0.0123566
1520.49	0.607452	5.65186e-05
1521.39	0.607452	0.000152802
1522.29	0.607361	0.00240234
1523.13	0.607422	5.49011e-05
1524.03	0.607452	0.000136383
1524.93	0.607422	0.00122223
1525.77	0.607452	5.05066e-05
1526.67	0.607422	0.000122253
1527.57	0.607391	0.000798645
1528.41	0.607422	4.7821e-05
1529.31	0.607452	0.000109955
1530.21	0.607361	0.000577698
1531.05	0.607452	4.47998e-05
1531.95	0.607452	9.95483e-05
1532.85	0.607422	0.000442413
1533.71	-0.697693	-0.0272552
1534.59	0.607483	9.14612e-05
1535.49	0.607391	0.000352936
1536.35	-0.697906	-0.0237213
1537.23	0.607361	8.30383e-05
1538.13	0.607391	0.000290863
1539.01	0.000161743	0.00227814
1539.87	0.607483	7.71484e-05
1540.77	0.607452	0.000243835
1541.65	0.000253296	0.00131012
1542.51	0.607422	7.00989e-05
1543.41	0.607452	0.000209351
1544.31	0.606293	0.0191956
1545.15	0.607422	6.65588e-05
1546.05	0.607483	0.000181824
1546.95	0.606812	0.0130096
1547.79	0.607452	6.03638e-05
1548.69	0.607422	0.000160278
1549.59	0.6073	0.00258942
1550.43	0.607422	5.6427e-05
1551.33	0.607422	0.000140564
1552.23	0.60733	0.0012735
1553.07	0.607422	5.37415e-05
1553.97	0.607422	0.000127197
1554.87	0.607391	0.000823669
1555.71	0.607483	5.01709e-05
1556.61	0.607391	0.000114044
1557.51	0.607391	0.000594788
1558.35	0.607422	4.74243e-05
1559.25	0.607391	0.000103638
1560.15	0.607422	0.000453339
1561.01	-0.697632	-0.0272614
1561.89	0.607483	9.35974e-05
1562.79	0.607452	0.000362701
1563.65	-0.697906	-0.0237122
1564.53	0.607452	8.65784e-05
1565.43	0.607391	0.000298004
1566.31	0.000177002	0.00231323
1567.17	0.607452	7.84607e-05
1568.07	0.607422	0.000251099
1568.95	0.000234985	0.00136017
1569.81	0.607391	7.34253e-05
1570.71	0.607422	0.000214111
1571.61	0.606384	0.019278
1572.45	0.607391	6.68945e-05
1573.35	0.607422	0.000186218
1574.25	0.606781	0.0131866
1575.09	0.607452	6.30493e-05
1575.99	0.607452	0.000163513
1576.89	0.6073	0.00266266
1577.73	0.607422	5.87769e-05
1578.63	0.607422	0.000145142
1579.53	0.60733	0.00129852
1580.37	0.607452	5.52063e-05
1581.27	0.607422	0.000129669
1582.17	0.607391	0.000839233
1583.01	0.607422	5.27954e-05
1583.91	0.607452	0.000116638
1584.81	0.607422	0.000605774
1585.65	0.607422	4.84314e-05
1586.55	0.607513	0.000105255
1587.45	0.607422	0.000462433
1588.31	-0.697662	-0.0272552
1589.19	0.607391	9.65881e-05
1590.09	0.607391	0.000368713
1590.95	-0.697937	-0.0237
1591.83	0.607483	8.78906e-05
1592.73	0.607361	0.000302856
1593.61	0.000158691	0.00231415
1594.47	0.607422	8.11462e-05
1595.37	0.607483	0.000255737
1596.25	0.00022583	0.00137238
1597.11	0.607422	7.49207e-05
1598.01	0.607513	0.000218323
1598.91	0.606384	0.0193054
1599.75	0.607452	7.00989e-05
1600.65	0.607452	0.000189148
1601.55	0.606781	0.0132446
1602.39	0.607452	6.5155e-05
1603.29	0.607483	0.000166107
1604.19	0.60733	0.0027005
1605.03	0.607422	6.01501e-05
1605.93	0.607452	0.000147278
1606.83	0.607361	0.00131653
1607.67	0.607422	5.6427e-05
1608.57	0.607483	0.000131775
1609.47	0.607391	0.000852051
1610.31	0.607422	5.40161e-05
1611.21	0.607391	0.00011908
1612.11	0.607391	0.000613403
1612.95	0.607422	5.03235e-05
1613.85	0.607422	0.00010788
1614.75	0.607483	0.00046991
1615.61	-0.697662	-0.0272491
1616.49	0.607483	9.73511e-05
1617.39	0.607483	0.00037442
1618.25	-0.697968	-0.0237061
1619.13	0.607391	9.04236e-05
1620.03	0.607452	0.000309814
1620.91	0.000137329	0.00227966
1621.77	0.607391	8.29468e-05
1622.67	0.607391	0.000259613
1623.55	0.000231934	0.00135742
1624.41	0.607391	7.61108e-05
1625.31	0.607452	0.00022171
1626.21	0.606323	0.0193054
1627.05	0.607452	7.10144e-05
1627.95	0.607422	0.000192108
1628.85	0.606781	0.0132843
1629.69	0.607483	6.67114e-05
1630.59	0.607422	0.000169556
1631.49	0.607391	0.00273132
1632.33	0.607422	6.20117e-05
1633.23	0.607422	0.000150177
1634.13	0.607391	0.00132935
1634.97	0.607452	5.77393e-05
1635.87	0.607391	0.000133759
1636.77	0.607391	0.000862122
1637.61	0.607513	5.50232e-05
1638.51	0.607422	0.000121368
1639.41	0.607361	0.000622253
1640.25	0.607452	5.1178e-05
1641.15	0.607361	0.00010968
1642.05	0.607422	0.00047644
1642.91	-0.697662	-0.027243
1643.79	0.607391	9.93652e-05
1644.69	0.607422	0.00037973
1645.55	-0.697876	-0.0237061
1646.43	0.607422	9.16748e-05
1647.33	0.607422	0.000313202
1648.21	0.000143433	0.00225891
1649.07	0.607361	8.45032e-05
1649.97	0.607391	0.000263306
1650.85	0.00022583	0.00134277
1651.71	0.607422	7.86133e-05
1652.61	0.607483	0.000225647
1653.51	0.606354	0.0193024
1654.35	0.607422	7.2998e-05
1655.25	0.607452	0.000196167
1656.15	0.606781	0.0132996
1656.99	0.607452	6.70471e-05
1657.89	0.607513	0.000172363
1658.79	0.60733	0.00275085
1659.63	0.607513	6.34155e-05
1660.53	0.607513	0.000152588
1661.43	0.60733	0.00134369
1662.27	0.607391	5.88074e-05
1663.17	0.607361	0.000136505
1664.07	0.60733	0.000871887
1664.91	0.607483	5.6366e-05
1665.81	0.607422	0.000123383
1666.71	0.607391	0.000630493
1667.55	0.607452	5.32532e-05
1668.45	0.607391	0.000111511
1669.35	0.607391	0.000483673
1670.21	-0.697693	-0.02724
1671.09	0.607422	0.000101471
1671.99	0.607483	0.000385803
1672.85	-0.697937	-0.0237122
1673.73	0.607452	9.32007e-05
1674.63	0.607422	0.000318024
1675.51	0.000152588	0.0022287
1676.37	0.607452	8.65784e-05
1677.27	0.607422	0.000268005
1678.15	0.000247192	0.00132782
1679.01	0.607452	7.97729e-05
1679.91	0.607422	0.000229095
1680.81	0.606384	0.0192932
1681.65	0.607422	7.44324e-05
1682.55	0.607422	0.000198761
1683.45	0.606812	0.0133209
1684.29	0.607452	6.97937e-05
1685.19	0.607452	0.000174957
1686.09	0.60733	0.00276978
1686.93	0.607422	6.51855e-05
1687.83	0.607422	0.000155121
1688.73	0.607361	0.00135529
1689.57	0.607483	6.10352e-05
1690.47	0.607452	0.000139557
1691.37	0.607361	0.000881042
1692.21	0.607422	5.77393e-05
1693.11	0.607391	0.000125275
1694.01	0.607361	0.000637512
1694.85	0.607391	5.48096e-05
1695.75	0.607422	0.000114655
1696.65	0.607391	0.0004888
1697.51	-0.697662	-0.0272156
1698.39	0.607452	0.000104248
1699.29	0.607452	0.000391144
1700.15	-0.697937	-0.0237091
1701.03	0.607483	9.52759e-05
1701.93	0.607422	0.00032193
1702.81	0.000149536	0.00220459
1703.67	0.607452	8.79517e-05
1704.57	0.607391	0.000271393
1705.45	0.000265503	0.00131714
1706.31	0.607452	8.16956e-05
1707.21	0.607422	0.000233093
1708.11	0.606293	0.0192932
1708.95	0.607483	7.52563e-05
1709.85	0.607452	0.000202423
1710.75	0.60672	0.0133484
1711.59	0.607483	7.09229e-05
1712.49	0.607391	0.000176941
1713.39	0.607361	0.00279724
1714.23	0.607422	6.64978e-05
1715.13	0.607452	0.000156494
1716.03	0.60733	0.00137024
1716.87	0.607422	6.21338e-05
1717.77	0.607391	0.000140839
1718.67	0.607361	0.000892334
1719.51	0.607452	5.9082e-05
1720.41	0.607422	0.000127808
1721.31	0.607361	0.000646057
1722.15	0.607452	5.56335e-05
1723.05	0.607452	0.000115631
1723.95	0.607422	0.000495575
1724.81	-0.697632	-0.0272278
1725.69	0.607452	0.000106537
1726.59	0.607452	0.000396362
1727.45	-0.697906	-0.0237213
1728.33	0.607422	9.75647e-05
1729.23	0.607422	0.000326141
1730.11	0.000152588	0.00216492
1730.97	0.607422	8.99658e-05
1731.87	0.607422	0.000276001
1732.75	0.000228882	0.00128754
1733.61	0.607422	8.255e-05
1734.51	0.607422	0.000237152
1735.41	0.606323	0.019281
1736.25	0.607422	7.78503e-05
1737.15	0.607483	0.000206329
1738.05	0.606812	0.0133911
1738.89	0.607483	7.22351e-05
1739.79	0.607422	0.000181
1740.69	0.60733	0.00283417
1741.53	0.607452	6.81152e-05
1742.43	0.607422	0.000160828
1743.33	0.60733	0.00138672
1744.17	0.607422	6.25916e-05
1745.07	0.607361	0.000144226
1745.97	0.607361	0.000901489
1746.81	0.607422	6.01501e-05
1747.71	0.607422	0.000129303
1748.61	0.607391	0.000654602
1749.45	0.607422	5.70068e-05
1750.35	0.607422	0.000118378
1751.25	0.607361	0.000504456
1752.11	-0.697632	-0.0272217
1752.99	0.607422	0.000108459
1753.89	0.607422	0.000401947
1754.75	-0.697937	-0.0237274
1755.63	0.607452	9.93652e-05
1756.53	0.607422	0.000331909
1757.41	0.000170898	0.00213318
1758.27	0.607391	9.16443e-05
1759.17	0.607452	0.000279205
1760.05	0.000241089	0.00127289
1760.91	0.607422	8.5083e-05
1761.81	0.607422	0.000239807
1762.71	0.606323	0.0192688
1763.55	0.607452	7.91016e-05
1764.45	0.607422	0.000208008
1765.35	0.606812	0.0134094
1766.19	0.607452	7.26624e-05
1767.09	0.607422	0.000183289
1767.99	0.60733	0.0028299
1768.83	0.607422	6.82983e-05
1769.73	0.607422	0.00016214
1770.63	0.60733	0.00137756
1771.47	0.607483	6.37207e-05
1772.37	0.607452	0.000145264
1773.27	0.607361	0.000901489
1774.11	0.607452	6.10046e-05
1775.01	0.607422	0.000131775
1775.91	0.607361	0.000654907
1776.75	0.607452	5.62134e-05
1777.65	0.607452	0.000118958
1778.55	0.607361	0.000503845
1779.41	-0.697693	-0.0272339
1780.29	0.607452	0.000108978
1781.19	0.607391	0.000403198
1782.05	-0.697876	-0.0237549
1782.93	0.607452	0.000100311
1783.83	0.60733	0.000331787
1784.71	0.000180054	0.00205627
1785.57	0.607483	9.16748e-05
1786.47	0.607391	0.000280792
1787.35	0.000216675	0.00119568
1788.21	0.607422	8.50525e-05
1789.11	0.607361	0.000240875
1790.01	0.606323	0.0191956
1790.85	0.607452	7.91016e-05
1791.75	0.607452	0.000209137
1792.65	0.606781	0.0132996
1793.49	0.607391	7.42798e-05
1794.39	0.607483	0.000184418
1795.29	0.60733	0.00280457
1796.13	0.607422	6.85425e-05
1797.03	0.607422	0.000163727
1797.93	0.607361	0.00139221
1798.77	0.607422	6.43616e-05
1799.67	0.607452	0.000147369
1800.57	0.607361	0.000911865
1801.41	0.607483	6.10657e-05
1802.31	0.607452	0.000132568
1803.21	0.60733	0.000663757
1804.05	0.607361	5.88989e-05
1804.95	0.607422	0.000120148
1805.85	0.607422	0.000511475
1806.71	-0.697662	-0.0272278
1807.59	0.607452	0.000111176
1808.49	0.607422	0.000408478
1809.35	-0.697937	-0.0237366
1810.23	0.607422	0.000101624
1811.13	0.607452	0.000337646
1812.01	0.000158691	0.0020697
1812.87	0.607452	9.3689e-05
1813.77	0.607452	0.000286011
1814.65	0.000228882	0.00121979
1815.51	0.607452	8.67615e-05
1816.41	0.607391	0.000245209
1817.31	0.606323	0.0192352
1818.15	0.607483	8.08411e-05
1819.05	0.607452	0.000213379
1819.95	0.606812	0.013385
1820.79	0.607452	7.5531e-05
1821.69	0.607391	0.000187042
1822.59	0.60733	0.00285645
1823.43	0.607483	7.07092e-05
1824.33	0.607422	0.000167175
1825.23	0.60733	0.00140961
1826.07	0.607422	6.72607e-05
1826.97	0.607422	0.000149536
1827.87	0.607391	0.000924377
1828.71	0.607422	6.28662e-05
1829.61	0.607422	0.00013562
1830.51	0.607391	0.000671387
1831.35	0.607452	5.98145e-05
1832.25	0.607452	0.000123169
1833.15	0.607422	0.000519104
1834.01	-0.697693	-0.0272125
1834.89	0.607452	0.000112061
1835.79	0.607452	0.000415497
1836.65	-0.697998	-0.0237274
1837.53	0.607422	0.000102936
1838.43	0.607452	0.000343811
1839.31	0.000177002	0.00205658
1840.17	0.607422	9.55505e-05
1841.07	0.607452	0.000289825
1841.95	0.000238037	0.00122009
1842.81	0.607483	8.82874e-05
1843.71	0.607452	0.000248535
1844.61	0.606323	0.0192505
1845.45	0.607452	8.24585e-05
1846.35	0.607391	0.000216187
1847.25	0.606781	0.013443
1848.09	0.607422	7.67212e-05
1848.99	0.607452	0.000191528
1849.89	0.607391	0.00289673
1850.73	0.607452	7.22656e-05
1851.63	0.607422	0.000169342
1852.53	0.607361	0.00142792
1853.37	0.607452	6.88171e-05
1854.27	0.607361	0.000151917
1855.17	0.60733	0.000935364
1856.01	0.607452	6.39954e-05
1856.91	0.607422	0.000137207
1857.81	0.607361	0.000680542
1858.65	0.607422	6.06384e-05
1859.55	0.607452	0.000124695
1860.45	0.607361	0.000525513
1861.31	-0.697723	-0.0272156
1862.19	0.607452	0.000114441
1863.09	0.607391	0.000421173
1863.95	-0.697906	-0.0237457
1864.83	0.607513	0.000105621
1865.73	0.607422	0.000347168
1866.61	0.000170898	0.00203491
1867.47	0.607483	9.76257e-05
1868.37	0.607422	0.000293365
1869.25	0.000219727	0.00120392
1870.11	0.607422	9.05457e-05
1871.01	0.607452	0.000251282
1871.91	0.606323	0.0192505
1872.75	0.607391	8.46558e-05
1873.65	0.607422	0.000219788
1874.55	0.606689	0.0134766
1875.39	0.607452	7.91321e-05
1876.29	0.607422	0.000192505
1877.19	0.607391	0.00292847
1878.03	0.607483	7.36694e-05
1878.93	0.607483	0.000172546
1879.83	0.60733	0.00144165
1880.67	0.607452	6.93359e-05
1881.57	0.607391	0.000155029
1882.47	0.607422	0.00094574
1883.31	0.607544	6.56738e-05
1884.21	0.607422	0.000139893
1885.11	0.607361	0.000688477
1885.95	0.607422	6.19812e-05
1886.85	0.607422	0.000128326
1887.75	0.607361	0.000531921
1888.61	-0.697601	-0.0272278
1889.49	0.607422	0.000117218
1890.39	0.607483	0.000426575
1891.25	-0.697937	-0.0237549
1892.13	0.607422	0.00010733
1893.03	0.607483	0.000351746
1893.91	0.000161743	0.00200531
1894.77	0.607483	9.8938e-05
1895.67	0.607483	0.000296997
1896.55	0.000222778	0.00119049
1897.41	0.607422	9.21936e-05
1898.31	0.607422	0.000254639
1899.21	0.606354	0.0192383
1900.05	0.607422	8.55408e-05
1900.95	0.607391	0.000221771
1901.85	0.60672	0.0134918
1902.69	0.607452	8.05054e-05
1903.59	0.607422	0.000196564
1904.49	0.60733	0.00293976
1905.33	0.607452	7.5592e-05
1906.23	0.607391	0.000174927
1907.13	0.60733	0.0014505
1907.97	0.607361	6.98853e-05
1908.87	0.607452	0.000156616
1909.77	0.607361	0.000952759
1910.61	0.607452	6.64368e-05
1911.51	0.607452	0.000142334
1912.41	0.607391	0.000694275
1913.25	0.607452	6.26221e-05
1914.15	0.607452	0.000128967
1915.05	0.607361	0.000537415
1915.91	-0.697632	-0.0272064
1916.79	0.607391	0.000117798
1917.69	0.607361	0.000429993
1918.55	-0.697937	-0.0237488
1919.43	0.607483	0.000108856
1920.33	0.607391	0.000355042
1921.21	0.000158691	0.00199127
1922.07	0.607483	0.000100342
1922.97	0.607422	0.000300232
1923.85	0.000222778	0.00118225
1924.71	0.607452	9.23767e-05
1925.61	0.607452	0.000258545
1926.51	0.606323	0.0192261
1927.35	0.607422	8.64868e-05
1928.25	0.607391	0.000225281
1929.15	0.606781	0.0134735
1929.99	0.607452	8.05664e-05
1930.89	0.607452	0.000197815
1931.79	0.6073	0.0029364
1932.63	0.607483	7.67822e-05
1933.53	0.607391	0.0001763
1934.43	0.607361	0.00145691
1935.27	0.607452	7.09534e-05
1936.17	0.607452	0.000158539
1937.07	0.607391	0.000958557
1937.91	0.607422	6.6864e-05
1938.81	0.607422	0.000144073
1939.71	0.607391	0.000699463
1940.55	0.607422	6.40259e-05
1941.45	0.607452	0.000130646
1942.35	0.607391	0.000541687
1943.21	-0.697723	-0.0272186
1944.09	0.607452	0.000119537
1944.99	0.607391	0.000433197
1945.85	-0.697906	-0.0237671
1946.73	0.607483	0.000110718
1947.63	0.607391	0.00035849
1948.51	0.000161743	0.00196899
1949.37	0.607452	0.0001015625
1950.27	0.607452	0.000303589
1951.15	0.000241089	0.00116089
1952.01	0.607452	9.49707e-05
1952.91	0.607452	0.000261536
1953.81	0.606293	0.0192139
1954.65	0.607483	8.70361e-05
1955.55	0.607483	0.000227997
1956.45	0.60675	0.0134888
1957.29	0.607391	8.28552e-05
1958.19	0.607422	0.00020166
1959.09	0.607391	0.00295441
1959.93	0.607483	7.69348e-05
1960.83	0.607422	0.00017923
1961.73	0.6073	0.00146606
1962.57	0.607391	7.24487e-05
1963.47	0.607483	0.0001604
1964.37	0.607361	0.000966187
1965.21	0.607483	6.90613e-05
1966.11	0.607452	0.000145721
1967.01	0.607361	0.000705566
1967.85	0.607452	6.41785e-05
1968.75	0.607452	0.000131775
1969.65	0.607361	0.000545044
1970.51	-0.697693	-0.0272034
1971.39	0.607483	0.000122101
1972.29	0.607391	0.000436646
1973.15	-0.697906	-0.0237579
1974.03	0.607452	0.000111664
1974.93	0.607422	0.000362305
1975.81	0.00015564	0.00193787
1976.67	0.607483	0.000103607
1977.57	0.607391	0.000306793
1978.45	0.000213623	0.00115845
1979.31	0.607422	9.57336e-05
1980.21	0.607483	0.00026297
1981.11	0.606323	0.0191986
1981.95	0.607452	8.86536e-05
1982.85	0.607422	0.000229767
1983.75	0.606842	0.013443
1984.59	0.607422	8.34045e-05
1985.49	0.607483	0.000202789
1986.39	0.60733	0.00294037
1987.23	0.607391	7.74536e-05
1988.13	0.607391	0.000181
1989.03	0.607361	0.00147034
1989.87	0.607422	7.31812e-05
1990.77	0.607483	0.000162018
1991.67	0.607361	0.000966797
1992.51	0.607452	6.84509e-05
1993.41	0.607452	0.00014679
1994.31	0.607361	0.000708008
1995.15	0.607483	6.43921e-05
1996.05	0.607391	0.000134857
1996.95	0.60733	0.000548706
1997.81	-0.697662	-0.0271942
1998.69	0.607422	0.000122894
1999.59	0.607422	0.000441589
2000.45	-0.697906	-0.0237518
2001.33	0.607452	0.000113861
2002.23	0.607452	0.000365326
2003.11	0.000161743	0.00194031
2003.97	0.607452	0.000104401
2004.87	0.607422	0.000308746
2005.75	0.000253296	0.00113892
2006.61	0.607422	9.6405e-05
2007.51	0.607391	0.000266449
2008.41	0.606354	0.0191711
2009.25	0.607452	8.96301e-05
2010.15	0.607452	0.000232269
2011.05	0.606781	0.0134338
2011.89	0.607483	8.43811e-05
2012.79	0.607483	0.00020517
2013.69	0.607391	0.00294861
2014.53	0.607483	7.86438e-05
2015.43	0.607452	0.000183075
2016.33	0.607422	0.00147614
2017.17	0.607452	7.49817e-05
2018.07	0.607452	0.000164673
2018.97	0.607361	0.000976257
2019.81	0.607422	6.90308e-05
2020.71	0.607422	0.000148926
2021.61	0.607391	0.000713806
2022.45	0.607422	6.5918e-05
2023.35	0.607452	0.000135071
2024.25	0.60733	0.000550842
2025.11	-0.697693	-0.0270996
2025.99	0.607391	0.00012381
2026.89	0.607422	0.000444244
2027.75	-0.697906	-0.0236633
2028.63	0.607452	0.000113708
2029.53	0.607422	0.000367645
2030.41	0.000143433	0.00196442
2031.27	0.607513	0.000105957
2032.17	0.607452	0.000312042
2033.05	0.000219727	0.00115997
2033.91	0.607483	9.78088e-05
2034.81	0.607483	0.000267822
2035.71	0.606354	0.0191864
2036.55	0.607483	9.17358e-05
2037.45	0.607452	0.000233795
2038.35	0.60675	0.0134064
2039.19	0.607452	8.60291e-05
2040.09	0.607452	0.000206879
2040.99	0.607361	0.00293213
2041.83	0.607452	8.05664e-05
2042.73	0.607422	0.000184937
2043.63	0.6073	0.00147858
2044.47	0.607391	7.4585e-05
2045.37	0.607483	0.000166473
2046.27	0.607391	0.00098175
2047.11	0.607361	7.00073e-05
2048.01	0.607422	0.000150421
2048.91	0.60733	0.000718689
2049.75	0.607452	6.63757e-05
2050.65	0.607483	0.000136841
2051.55	0.607361	0.000558777
2052.41	-0.697693	-0.0271576
2053.29	0.607391	0.000125702
2054.19	0.607452	0.000449463
2055.05	-0.697937	-0.0237122
2055.93	0.607544	0.000116241
2056.83	0.607391	0.000372955
2057.71	0.00015564	0.00191956
2058.57	0.607452	0.000107697
2059.47	0.607422	0.000316101
2060.35	0.000234985	0.00113739
2061.21	0.607452	9.97925e-05
2062.11	0.607483	0.000271515
2063.01	0.606323	0.0191833
2063.85	0.607422	9.30786e-05
2064.75	0.607422	0.000237
2065.65	0.606781	0.0134644
2066.49	0.607422	8.63342e-05
2067.39	0.607483	0.000209534
2068.29	0.6073	0.00297333
2069.13	0.607483	8.05054e-05
2070.03	0.607452	0.000186707
2070.93	0.607391	0.00149475
2071.77	0.607422	7.56836e-05
2072.67	0.607422	0.000167786
2073.57	0.607361	0.000989685
2074.41	0.607452	7.17163e-05
2075.31	0.607391	0.000152344
2076.21	0.607361	0.000726929
2077.05	0.607452	6.74438e-05
2077.95	0.607452	0.00013855
2078.85	0.607361	0.000563965
2079.71	-0.697662	-0.027179
2080.59	0.607391	0.000127319
2081.49	0.607452	0.000453888
2082.35	-0.697968	-0.0237427
2083.23	0.607483	0.00011673
2084.13	0.607452	0.000375977
2085.01	0.000152588	0.00189728
2085.87	0.607422	0.000108246
2086.77	0.607452	0.000318329
2087.65	0.000216675	0.00112152
2088.51	0.607483	0.000100922
2089.41	0.607391	0.000274323
2090.31	0.606354	0.0191803
2091.15	0.607452	9.39331e-05
2092.05	0.607452	0.000240326
2092.95	0.60675	0.0134949
2093.79	0.607483	8.76465e-05
2094.69	0.607422	0.000211395
2095.59	0.60733	0.00300323
2096.43	0.607452	8.16345e-05
2097.33	0.607483	0.000188843
2098.23	0.607361	0.00150696
2099.07	0.607483	7.66296e-05
2099.97	0.607452	0.000169525
2100.87	0.607391	0.000998535
2101.71	0.607452	7.24792e-05
2102.61	0.607452	0.000154419
2103.51	0.607391	0.000733643
2104.35	0.607452	6.91223e-05
2105.25	0.607422	0.000140411
2106.15	0.607391	0.000569763
2107.01	-0.697693	-0.0272064
2107.89	0.607391	0.000128906
2108.79	0.607452	0.000458435
2109.65	-0.697937	-0.0237793
2110.53	0.607452	0.000118408
2111.43	0.607483	0.000380188
2112.31	0.000158691	0.00187195
2113.17	0.607422	0.000108978
2114.07	0.607452	0.000322296
2114.95	0.000198364	0.00110657
2115.81	0.607452	0.000101685
2116.71	0.607452	0.000277985
2117.61	0.606323	0.0191925
2118.45	0.607452	9.47571e-05
2119.35	0.607483	0.000242584
2120.25	0.60675	0.0135284
2121.09	0.607391	8.83484e-05
2121.99	0.607483	0.000214935
2122.89	0.607208	0.00303497
2123.73	0.607513	8.29773e-05
2124.63	0.607483	0.00019223
2125.53	0.6073	0.00151825
2126.37	0.607422	7.73926e-05
2127.27	0.607391	0.000171753
2128.17	0.60733	0.00100739
2129.01	0.607422	7.33643e-05
2129.91	0.607422	0.000156097
2130.81	0.607391	0.000740051
2131.65	0.607422	6.87256e-05
2132.55	0.607422	0.00014212
2133.45	0.607452	0.000574951
2134.31	-0.697662	-0.0272247
2135.19	0.607513	0.000130493
2136.09	0.607452	0.000462463
2136.95	-0.697998	-0.0238037
2137.83	0.607391	0.000119232
2138.73	0.607452	0.000383698
2139.61	0.000164795	0.00185089
2140.47	0.607422	0.000111053
2141.37	0.607452	0.000325592
2142.25	0.000228882	0.00108887
2143.11	0.607422	0.000102264
2144.01	0.607391	0.000280121
2144.91	0.606415	0.0191833
2145.75	0.607422	9.58862e-05
2146.65	0.607422	0.000245148
2147.55	0.60672	0.0135345
2148.39	0.607391	8.9447e-05
2149.29	0.607452	0.000217102
2150.19	0.60733	0.00305328
2151.03	0.607391	8.36487e-05
2151.93	0.607513	0.000194427
2152.83	0.607361	0.00152924
2153.67	0.607452	7.91931e-05
2154.57	0.607483	0.000174408
2155.47	0.607391	0.0010144
2156.31	0.607452	7.41577e-05
2157.21	0.607452	0.000157837
2158.11	0.607361	0.000744629
2158.95	0.607452	7.01904e-05
2159.85	0.607452	0.000143951
2160.75	0.607361	0.000579834
2161.61	-0.697723	-0.0272339
2162.49	0.607452	0.00013147
2163.39	0.607422	0.000466888
2164.25	-0.697906	-0.0238129
2165.13	0.607452	0.000121582
2166.03	0.607452	0.000388214
2166.91	0.000170898	0.00182312
2167.77	0.607422	0.000112061
2168.67	0.607422	0.00032843
2169.55	0.000219727	0.00107178
2170.41	0.607422	0.000104736
2171.31	0.607483	0.000283417
2172.21	0.606354	0.0191742
2173.05	0.607452	9.69543e-05
2173.95	0.607422	0.000247009
2174.85	0.606781	0.0135345
2175.69	0.607422	9.03931e-05
2176.59	0.607513	0.000219238
2177.49	0.60733	0.00306213
2178.33	0.607483	8.43506e-05
2179.23	0.607452	0.00019635
2180.13	0.607361	0.00153564
2180.97	0.607422	7.9071e-05
2181.87	0.607452	0.000176453
2182.77	0.60733	0.00102081
2183.61	0.607422	7.51648e-05
2184.51	0.607452	0.000160065
2185.41	0.607361	0.000750122
2186.25	0.607391	7.06787e-05
2187.15	0.607452	0.000145203
2188.05	0.607422	0.000584106
2188.91	-0.697754	-0.0272217
2189.79	0.607483	0.000133759
2190.69	0.607452	0.000470154
2191.55	-0.697937	-0.0238159
2192.43	0.607391	0.000122803
2193.33	0.607422	0.000390472
2194.21	0.00015564	0.00180634
2195.07	0.607422	0.000113312
2195.97	0.607391	0.000331818
2196.85	0.00020752	0.00105621
2197.71	0.607452	0.000104736
2198.61	0.607391	0.000285126
2199.51	0.606293	0.019165
2200.35	0.607452	9.80835e-05
2201.25	0.607422	0.000250488
2202.15	0.60675	0.0135284
2202.99	0.607422	9.14917e-05
2203.89	0.607422	0.00022171
2204.79	0.607361	0.00307129
2205.63	0.607391	8.56934e-05
2206.53	0.607483	0.000196747
2207.43	0.607361	0.00154419
2208.27	0.607483	8.07495e-05
2209.17	0.607452	0.000177063
2210.07	0.607391	0.00102722
2210.91	0.607483	7.55005e-05
2211.81	0.607452	0.000160461
2212.71	0.607391	0.00075592
2213.55	0.607452	7.09534e-05
2214.45	0.607452	0.000146149
2215.35	0.607361	0.000588074
2216.21	-0.697693	-0.0272278
2217.09	0.607422	0.000134033
2217.99	0.607422	0.00047406
2218.85	-0.697937	-0.023822
2219.73	0.607452	0.000123413
2220.63	0.607452	0.000393951
2221.51	0.000134277	0.00179077
2222.37	0.607391	0.000115173
2223.27	0.607452	0.000334473
2224.15	0.000241089	0.0010495
2225.01	0.607391	0.000106201
2225.91	0.607483	0.000288727
2226.81	0.606354	0.0191681
2227.65	0.607422	9.87854e-05
2228.55	0.607422	0.000252258
2229.45	0.60672	0.013559
2230.29	0.607452	9.23462e-05
2231.19	0.607483	0.000222443
2232.09	0.60733	0.00309143
2232.93	0.607452	8.63342e-05
2233.83	0.607452	0.000198578
2234.73	0.607391	0.00155365
2235.57	0.607422	8.19702e-05
2236.47	0.607422	0.000178284
2237.37	0.60733	0.00103546
2238.21	0.607391	7.66907e-05
2239.11	0.607422	0.000161957
2240.01	0.607361	0.000761414
2240.85	0.607452	7.18994e-05
2241.75	0.607422	0.000147614
2242.65	0.607391	0.000592651
2243.51	-0.697723	-0.0272247
2244.39	0.607391	0.000135376
2245.29	0.607422	0.000478302
2246.15	-0.697937	-0.023819
2247.03	0.607452	0.000125641
2247.93	0.607422	0.000398468
2248.81	0.000177002	0.00177582
2249.67	0.607483	0.00011618
2250.57	0.607422	0.000338409
2251.45	0.000234985	0.00104401
2252.31	0.607422	0.000106934
2253.21	0.607422	0.000291046
2254.11	0.606384	0.0191711
2254.95	0.607422	0.000100311
2255.85	0.607452	0.000254852
2256.75	0.606781	0.0135773
2257.59	0.607422	9.35364e-05
2258.49	0.607391	0.000224854
2259.39	0.60733	0.00311157
2260.23	0.607452	8.74634e-05
2261.13	0.607361	0.000201691
2262.03	0.607361	0.00156403
2262.87	0.607452	8.17871e-05
2263.77	0.607452	0.000181396
2264.67	0.607361	0.00104218
2265.51	0.607361	7.65686e-05
2266.41	0.607483	0.000164551
2267.31	0.607422	0.000768433
2268.15	0.607452	7.26318e-05
2269.05	0.607452	0.000150238
2269.95	0.607422	0.000598145
2270.81	-0.697723	-0.0272186
2271.69	0.607422	0.000137054
2272.59	0.607452	0.000482697
2273.45	-0.697998	-0.0238037
2274.33	0.607422	0.000126984
2275.23	0.607422	0.000402039
2276.11	0.00015564	0.00176086
2276.97	0.607422	0.000115723
2277.87	0.607422	0.000340942
2278.75	0.00022583	0.00103455
2279.61	0.607452	0.000109283
2280.51	0.607422	0.000295135
2281.41	0.606354	0.0191742
2282.25	0.607422	0.000101654
2283.15	0.607391	0.00025766
2284.05	0.606781	0.0135925
2284.89	0.607452	9.42688e-05
2285.79	0.607422	0.000227417
2286.69	0.607391	0.00313202
2287.53	0.607422	8.83179e-05
2288.43	0.607422	0.000203766
2289.33	0.6073	0.00157318
2290.17	0.607391	8.33435e-05
2291.07	0.607483	0.000182556
2291.97	0.60733	0.00104919
2292.81	0.607422	7.86438e-05
2293.71	0.607452	0.000165894
2294.61	0.607422	0.000773315
2295.45	0.607483	7.49207e-05
2296.35	0.607452	0.000151398
2297.25	0.607391	0.000602417
2298.11	-0.697693	-0.0272217
2298.99	0.607452	0.00013855
2299.89	0.607422	0.000486481
2300.75	-0.697937	-0.0238159
2301.63	0.607452	0.000128082
2302.53	0.607422	0.000404846
2303.41	0.00017395	0.00175049
2304.27	0.607513	0.000117523
2305.17	0.607422	0.000343475
2306.05	0.000222778	0.00102844
2306.91	0.607422	0.000109711
2307.81	0.607452	0.000296661
2308.71	0.606354	0.019162
2309.55	0.607452	0.000101501
2310.45	0.607422	0.000260162
2311.35	0.606812	0.0135956
2312.19	0.607391	9.43604e-05
2313.09	0.607483	0.000230164
2313.99	0.607361	0.00314056
2314.83	0.607422	8.88062e-05
2315.73	0.607391	0.00020459
2316.63	0.607361	0.00158051
2317.47	0.607391	8.41064e-05
2318.37	0.607361	0.00018457
2319.27	0.607361	0.0010553
2320.11	0.607452	7.96814e-05
2321.01	0.607422	0.000167938
2321.91	0.607361	0.000777893
2322.75	0.607452	7.49817e-05
2323.65	0.607422	0.000152466
2324.55	0.607361	0.000606384
2325.41	-0.697723	-0.0272217
2326.29	0.607452	0.000139862
2327.19	0.607422	0.000489838
2328.05	-0.697937	-0.0238159
2328.93	0.607422	0.000129425
2329.83	0.607452	0.000407379
2330.71	0.000167847	0.00173584
2331.57	0.607452	0.000119446
2332.47	0.607452	0.000346588
2333.35	0.000244141	0.0010144
2334.21	0.607452	0.000109833
2335.11	0.607422	0.00029892
2336.01	0.606384	0.0191528
2336.85	0.607452	0.000102753
2337.75	0.607422	0.000261658
2338.65	0.606781	0.0135956
2339.49	0.607452	9.60083e-05
2340.39	0.607483	0.000231476
2341.29	0.607269	0.00315033
2342.13	0.607452	9.03625e-05
2343.03	0.607422	0.000206543
2343.93	0.607391	0.00158661
2344.77	0.607391	8.52356e-05
2345.67	0.607391	0.00018512
2346.57	0.607391	0.0010614
2347.41	0.607422	7.95898e-05
2348.31	0.607483	0.000167999
2349.21	0.607391	0.000782471
2350.05	0.607452	7.61719e-05
2350.95	0.607391	0.000154602
2351.85	0.607361	0.000610352
2352.71	-0.697693	-0.0272156
2353.59	0.607422	0.000141266
2354.49	0.607452	0.000493561
2355.35	-0.697876	-0.023822
2356.23	0.607422	0.000130371
2357.13	0.607422	0.000410889
2358.01	0.000167847	0.00171478
2358.87	0.607391	0.000119934
2359.77	0.607483	0.000348297
2360.65	0.000234985	0.000989075
2361.51	0.607422	0.000111023
2362.41	0.607452	0.000300262
2363.31	0.606384	0.0191284
2364.15	0.607361	0.000102325
2365.05	0.607391	0.000262695
2365.95	0.606781	0.0135437
2366.79	0.607452	9.70459e-05
2367.69	0.607422	0.000233124
2368.59	0.60733	0.00312592
2369.43	0.607422	9.08508e-05
2370.33	0.607452	0.000208069
2371.23	0.60733	0.00158508
2372.07	0.607391	8.56018e-05
2372.97	0.607391	0.000187103
2373.87	0.607391	0.00106201
2374.71	0.607452	8.11157e-05
2375.61	0.607422	0.000169098
2376.51	0.607361	0.000784302
2377.35	0.607452	7.60498e-05
2378.25	0.607391	0.000154541
2379.15	0.607391	0.000612488
2380.01	-0.697723	-0.0272156
2380.89	0.607452	0.000141815
2381.79	0.607391	0.000495575
2382.65	-0.697906	-0.0238159
2383.53	0.607422	0.000131134
2384.43	0.607452	0.000411835
2385.31	0.000177002	0.00169525
2386.17	0.607452	0.000120544
2387.07	0.607422	0.00035025
2387.95	0.000228882	0.000984802
2388.81	0.607422	0.000112488
2389.71	0.607391	0.000302338
2390.61	0.606354	0.0191254
2391.45	0.607422	0.000104645
2392.35	0.607452	0.000264954
2393.25	0.60675	0.0135681
2394.09	0.607391	9.77783e-05
2394.99	0.607452	0.000233948
2395.89	0.60733	0.00314301
2396.73	0.607422	9.198e-05
2397.63	0.607452	0.000209747
2398.53	0.607361	0.00159302
2399.37	0.607391	8.62427e-05
2400.27	0.607422	0.000187897
2401.17	0.607422	0.00106812
2402.01	0.607422	8.1604e-05
2402.91	0.607422	0.000171295
2403.81	0.607391	0.000788574
2404.65	0.607452	7.63855e-05
2405.55	0.607391	0.000155762
2406.45	0.607422	0.000616455
2407.31	-0.697662	-0.0272308
2408.19	0.607452	0.000142181
2409.09	0.607391	0.000500793
2409.95	-0.697906	-0.0238342
2410.83	0.607391	0.000132385
2411.73	0.607452	0.000414612
2412.61	0.000180054	0.00169495
2413.47	0.607391	0.000121704
2414.37	0.607452	0.000352783
2415.25	0.000241089	0.000988464
2416.11	0.607483	0.000114502
2417.01	0.607422	0.000305573
2417.91	0.606354	0.0191437
2418.75	0.607391	0.000105408
2419.65	0.607422	0.000267487
2420.55	0.60672	0.01362
2421.39	0.607452	9.95483e-05
2422.29	0.607391	0.000236969
2423.19	0.607361	0.00318085
2424.03	0.607452	9.33228e-05
2424.93	0.607391	0.000211609
2425.83	0.607361	0.00160797
2426.67	0.607452	8.74939e-05
2427.57	0.607452	0.000190948
2428.47	0.6073	0.00107758
2429.31	0.607422	8.3374e-05
2430.21	0.607422	0.000174286
2431.11	0.607361	0.000795288
2431.95	0.607391	7.82776e-05
2432.85	0.607422	0.000157837
2433.75	0.607422	0.000622559
2434.61	-0.697632	-0.0272217
2435.49	0.607422	0.000144989
2436.39	0.607391	0.000505066
2437.25	-0.697937	-0.0238129
2438.13	0.607452	0.000133667
2439.03	0.607422	0.000419373
2439.91	0.00017395	0.00169403
2440.77	0.607422	0.000124207
2441.67	0.607452	0.00035675
2442.55	0.000256348	0.00098877
2443.41	0.607452	0.000115173
2444.31	0.607452	0.000308472
2445.21	0.606384	0.0191528
2446.05	0.607452	0.000106415
2446.95	0.607361	0.00026947
2447.85	0.606812	0.0136292
2448.69	0.607361	9.99451e-05
2449.59	0.607422	0.000239227
2450.49	0.607361	0.00319305
2451.33	0.607483	9.38416e-05
2452.23	0.607422	0.000213806
2453.13	0.60733	0.00161591
2453.97	0.607422	8.86536e-05
2454.87	0.607422	0.000192444
2455.77	0.607391	0.00108368
2456.61	0.607452	8.3313e-05
2457.51	0.607422	0.000174622
2458.41	0.607391	0.000801392
2459.25	0.607422	7.93457e-05
2460.15	0.607422	0.00015863
2461.05	0.607391	0.00062561
2461.91	-0.697693	-0.0272217
2462.79	0.607452	0.000145355
2463.69	0.60733	0.000508423
2464.55	-0.697937	-0.023822
2465.43	0.607422	0.000133911
2466.33	0.607422	0.000422302
2467.21	0.00017395	0.00167603
2468.07	0.607422	0.000125275
2468.97	0.607391	0.000358917
2469.85	0.000234985	0.000975647
2470.71	0.607391	0.000116058
2471.61	0.607452	0.000310547
2472.51	0.606354	0.0191376
2473.35	0.607483	0.000107941
2474.25	0.607422	0.000272034
2475.15	0.606812	0.0136261
2475.99	0.607452	0.000102234
2476.89	0.607422	0.000240814
2477.79	0.6073	0.00319794
2478.63	0.607483	9.60999e-05
2479.53	0.607452	0.000215179
2480.43	0.607361	0.00162048
2481.27	0.607452	8.93555e-05
2482.17	0.607422	0.000194061
2483.07	0.607361	0.00108673
2483.91	0.607483	8.44727e-05
2484.81	0.607452	0.00017511
2485.71	0.6073	0.000802917
2486.55	0.607422	7.93457e-05
2487.45	0.607422	0.000160217
2488.35	0.607391	0.000628357
2489.21	-0.697693	-0.0272278
2490.09	0.607452	0.000147095
2490.99	0.607361	0.000510559
2491.85	-0.697876	-0.0238373
2492.73	0.607422	0.000134521
2493.63	0.607422	0.000424194
2494.51	0.000170898	0.00165436
2495.37	0.607452	0.000125732
2496.27	0.607452	0.000361206
2497.15	0.00022583	0.000959167
2498.01	0.607422	0.000116364
2498.91	0.607483	0.000311951
2499.81	0.606384	0.0191223
2500.65	0.607452	0.00010907
2501.55	0.607422	0.000273743
2502.45	0.606812	0.013623
2503.29	0.607452	0.000101318
2504.19	0.607452	0.000241943
2505.09	0.607361	0.0031955
2505.93	0.607452	9.56421e-05
2506.83	0.607452	0.000216919
2507.73	0.607391	0.00162323
2508.57	0.607452	9.01794e-05
2509.47	0.607391	0.00019516
2510.37	0.607391	0.0010907
2511.21	0.607452	8.48694e-05
2512.11	0.607452	0.000176239
2513.01	0.607361	0.000807495
2513.85	0.607452	8.10852e-05
2514.75	0.607422	0.000160919
2515.65	0.607361	0.000631714
2516.51	-0.697693	-0.0272217
2517.39	0.607422	0.00014801
2518.29	0.607361	0.000513916
2519.15	-0.697937	-0.0238312
2520.03	0.607422	0.000137146
2520.93	0.607422	0.000427795
2521.81	0.000177002	0.00164154
2522.67	0.607391	0.000127197
2523.57	0.607452	0.000363495
2524.45	0.000234985	0.000952454
2525.31	0.607422	0.000118103
2526.21	0.607452	0.000314728
2527.11	0.606384	0.0191193
2527.95	0.607452	0.00010965
2528.85	0.607483	0.000274719
2529.75	0.606781	0.01362
2530.59	0.607422	0.000103027
2531.49	0.607422	0.000243958
2532.39	0.607391	0.00319855
2533.23	0.607391	9.6344e-05
2534.13	0.607452	0.000217072
2535.03	0.60733	0.00162872
2535.87	0.607452	9.08508e-05
2536.77	0.607452	0.000196442
2537.67	0.60733	0.00109497
2538.51	0.607483	8.57239e-05
2539.41	0.607452	0.000177795
2540.31	0.607361	0.000811768
2541.15	0.607452	8.10852e-05
2542.05	0.607422	0.000162262
2542.95	0.6073	0.000635376
2543.81	-0.697693	-0.0272156
2544.69	0.607452	0.000149994
2545.59	0.607361	0.000517273
2546.45	-0.697937	-0.0238281
2547.33	0.607422	0.000137451
2548.23	0.607422	0.000429413
2549.11	0.00017395	0.00163849
2549.97	0.607391	0.000128052
2550.87	0.607452	0.000366211
2551.75	0.000231934	0.000949097
2552.61	0.607422	0.00011853
2553.51	0.607452	0.000316406
2554.41	0.606354	0.0191223
2555.25	0.607452	0.000110596
2556.15	0.607452	0.000277496
2557.05	0.60675	0.0136353
2557.89	0.607422	0.000103882
2558.79	0.607422	0.000244904
2559.69	0.60733	0.00321716
2560.53	0.607452	9.81445e-05
2561.43	0.607391	0.000219269
2562.33	0.607361	0.00163574
2563.17	0.607452	9.22546e-05
2564.07	0.607422	0.000197083
2564.97	0.607361	0.00110107
2565.81	0.607452	8.66089e-05
2566.71	0.607422	0.000178833
2567.61	0.607361	0.000817261
2568.45	0.607452	8.22144e-05
2569.35	0.607422	0.000164093
2570.25	0.60733	0.000640259
2571.11	-0.697693	-0.0272095
2571.99	0.607422	0.000151123
2572.89	0.60733	0.000519714
2573.75	-0.697937	-0.023819
2574.63	0.607422	0.000140106
2575.53	0.607422	0.000433472
2576.41	0.000161743	0.0016272
2577.27	0.607452	0.000129028
2578.17	0.607483	0.000368713
2579.05	0.000234985	0.000946655
2579.91	0.607422	0.000120239
2580.81	0.607422	0.000319275
2581.71	0.606415	0.0191193
2582.55	0.607391	0.000112457
2583.45	0.607391	0.00027829
2584.35	0.606812	0.0136475
2585.19	0.607422	0.000104828
2586.09	0.607391	0.000247375
2586.99	0.607391	0.00322815
2587.83	0.607452	9.88464e-05
2588.73	0.607422	0.000222046
2589.63	0.60733	0.00164368
2590.47	0.607452	9.32007e-05
2591.37	0.607422	0.000200104
2592.27	0.607422	0.00110718
2593.11	0.607422	8.7677e-05
2594.01	0.607452	0.000180969
2594.91	0.607361	0.000821228
2595.75	0.607452	8.37708e-05
2596.65	0.607422	0.000165863
2597.55	0.607391	0.000644226
2598.41	-0.697693	-0.0272064
2599.29	0.607452	0.000151855
2600.19	0.607391	0.000523682
2601.05	-0.697937	-0.023819
2601.93	0.607483	0.000141052
2602.83	0.607422	0.000435394
2603.71	0.000183105	0.00161621
2604.57	0.607452	0.000129913
2605.47	0.607452	0.000370453
2606.35	0.000238037	0.000937195
2607.21	0.607422	0.000121033
2608.11	0.607452	0.000320679
2609.01	0.606293	0.0191071
2609.85	0.607422	0.000112915
2610.75	0.607391	0.000281616
2611.65	0.60675	0.0136475
2612.49	0.607483	0.000106079
2613.39	0.607422	0.000248871
2614.29	0.607361	0.00322998
2615.13	0.607452	9.94263e-05
2616.03	0.607422	0.000222809
2616.93	0.60733	0.00164703
2617.77	0.607422	9.47876e-05
2618.67	0.607422	0.000201294
2619.57	0.60733	0.00111145
2620.41	0.607391	8.91113e-05
2621.31	0.607422	0.000182831
2622.21	0.607361	0.000824585
2623.05	0.607452	8.40759e-05
2623.95	0.607391	0.000166656
2624.85	0.607422	0.000645752
2625.71	-0.697632	-0.0272034
2626.59	0.607422	0.000153687
2627.49	0.607391	0.000526428
2628.35	-0.697876	-0.023822
2629.23	0.607452	0.000141327
2630.13	0.607391	0.000436584
2631.01	0.000180054	0.00160065
2631.87	0.607513	0.000131439
2632.77	0.607422	0.000371857
2633.65	0.000253296	0.0009198
2634.51	0.607422	0.000121246
2635.41	0.607513	0.000321686
2636.31	0.606415	0.0190887
2637.15	0.607422	0.00011438
2638.05	0.607422	0.000282776
2638.95	0.60672	0.0136261
2639.79	0.607452	0.000106537
2640.69	0.607422	0.000250671
2641.59	0.607391	0.00322906
2642.43	0.607422	9.97925e-05
2643.33	0.607483	0.00022403
2644.23	0.607361	0.00164978
2645.07	0.607391	9.44824e-05
2645.97	0.607391	0.000202576
2646.87	0.607361	0.00111267
2647.71	0.607452	8.84705e-05
2648.61	0.607483	0.00018399
2649.51	0.60733	0.000826111
2650.35	0.607361	8.5022e-05
2651.25	0.607422	0.000167664
2652.15	0.607361	0.000649414
2653.01	-0.697754	-0.0272095
2653.89	0.607483	0.00015448
2654.79	0.607391	0.000527649
2655.65	-0.697876	-0.0238312
2656.53	0.607452	0.000142548
2657.43	0.607483	0.000438995
2658.31	0.00015564	0.00158081
2659.17	0.607422	0.000131927
2660.07	0.607422	0.000374634
2660.95	0.000231934	0.000901794
2661.81	0.607452	0.000123138
2662.71	0.607452	0.000323944
2663.61	0.606354	0.0190735
2664.45	0.607452	0.000114929
2665.35	0.607391	0.000285034
2666.25	0.606781	0.0136169
2667.09	0.607422	0.000107971
2667.99	0.607422	0.000251526
2668.89	0.607361	0.00323273
2669.73	0.607483	0.000100708
2670.63	0.607391	0.000226288
2671.53	0.607361	0.00165436
2672.37	0.607422	9.53979e-05
2673.27	0.607422	0.000204407
2674.17	0.607361	0.00111664
2675.01	0.607483	9.03625e-05
2675.91	0.607391	0.000184662
2676.81	0.607391	0.000830383
2677.65	0.607483	8.57849e-05
2678.55	0.607483	0.000169037
2679.45	0.607391	0.000650024
2680.31	-0.697662	-0.0272064
2681.19	0.607452	0.000155304
2682.09	0.60733	0.000530701
2682.95	-0.697906	-0.0238281
2683.83	0.607452	0.000142548
2684.73	0.607452	0.000441132
2685.61	0.000167847	0.00157288
2686.47	0.607483	0.00013324
2687.37	0.607422	0.000376373
2688.25	0.000228882	0.00089386
2689.11	0.607422	0.000124115
2690.01	0.607422	0.000326355
2690.91	0.606323	0.0190674
2691.75	0.607422	0.000115387
2692.65	0.607422	0.000286194
2693.55	0.60675	0.013623
2694.39	0.607422	0.000109283
2695.29	0.607391	0.000253601
2696.19	0.6073	0.00325012
2697.03	0.607483	0.000102814
2697.93	0.607422	0.000227081
2698.83	0.60733	0.00166107
2699.67	0.607452	9.63745e-05
2700.57	0.607483	0.000204437
2701.47	0.607361	0.00112183
2702.31	0.607422	9.10339e-05
2703.21	0.607391	0.000186127
2704.11	0.607361	0.000832825
2704.95	0.607483	8.67615e-05
2705.85	0.607391	0.00017038
2706.75	0.6073	0.000654297
2707.61	-0.697662	-0.0272125
2708.49	0.607452	0.000156586
2709.39	0.60733	0.000532837
2710.25	-0.697906	-0.023822
2711.13	0.607483	0.000144592
2712.03	0.607422	0.000444122
2712.91	0.000164795	0.00156281
2713.77	0.607452	0.000134277
2714.67	0.607391	0.000378326
2715.55	0.000222778	0.000888367
2716.41	0.607422	0.000125488
2717.31	0.607483	0.000327637
2718.21	0.606323	0.0190765
2719.05	0.607452	0.000117126
2719.95	0.607422	0.000287872
2720.85	0.60675	0.0136261
2721.69	0.607452	0.000110077
2722.59	0.607452	0.000255005
2723.49	0.6073	0.00325256
2724.33	0.607452	0.000102661
2725.23	0.607422	0.00022818
2726.13	0.607361	0.00166504
2726.97	0.607361	9.68933e-05
2727.87	0.607422	0.000206665
2728.77	0.6073	0.0011261
2729.61	0.607391	9.14307e-05
2730.51	0.607452	0.000187836
2731.41	0.607422	0.000837402
2732.25	0.607452	8.67615e-05
2733.15	0.607422	0.000171478
2734.05	0.607361	0.000657959
2734.91	-0.697662	-0.0272064
2735.79	0.607422	0.000157898
2736.69	0.607391	0.000536499
2737.55	-0.697906	-0.0238312
2738.43	0.607452	0.000146027
2739.33	0.607391	0.000446686
2740.21	0.00015564	0.00155945
2741.07	0.607422	0.000134888
2741.97	0.607422	0.00038089
2742.85	0.000219727	0.000884705
2743.71	0.607483	0.000126312
2744.61	0.607361	0.000330322
2745.51	0.606293	0.0190704
2746.35	0.607452	0.000118042
2747.25	0.607452	0.000290344
2748.15	0.60675	0.0136444
2748.99	0.607422	0.000110016
2749.89	0.607422	0.000258026
2750.79	0.60733	0.00326538
2751.63	0.607452	0.000104248
2752.53	0.607483	0.000230835
2753.43	0.60733	0.00167084
2754.27	0.607391	9.78088e-05
2755.17	0.607452	0.000208069
2756.07	0.607391	0.00113007
2756.91	0.607452	9.24988e-05
2757.81	0.607513	0.000189453
2758.71	0.60733	0.000841675
2759.55	0.607452	8.70972e-05
2760.45	0.607391	0.000172882
2761.35	0.60733	0.000661926
2762.21	-0.697662	-0.0272003
2763.09	0.607483	0.000159332
2763.99	0.607391	0.000539246
2764.85	-0.697906	-0.0238251
2765.73	0.607452	0.000146484
2766.63	0.607422	0.000449097
2767.51	0.00015564	0.00155365
2768.37	0.607452	0.000136719
2769.27	0.607422	0.000383026
2770.15	0.000219727	0.000882874
2771.01	0.607513	0.000127197
2771.91	0.607452	0.000331573
2772.81	0.606384	0.0190674
2773.65	0.607452	0.000118286
2774.55	0.607422	0.000291931
2775.45	0.606781	0.0136505
2776.29	0.607452	0.000111359
2777.19	0.607422	0.000258972
2778.09	0.607361	0.00327789
2778.93	0.607452	0.000104919
2779.83	0.607391	0.00023291
2780.73	0.607361	0.00167755
2781.57	0.607513	9.88159e-05
2782.47	0.607422	0.000208801
2783.37	0.60733	0.00113495
2784.21	0.607422	9.2804e-05
2785.11	0.607452	0.000190674
2786.01	0.607391	0.000845337
2786.85	0.607483	8.81042e-05
2787.75	0.607483	0.000174377
2788.65	0.607361	0.0006640625
2789.51	-0.697662	-0.0271973
2790.39	0.607391	0.00016095
2791.29	0.60733	0.000541687
2792.15	-0.697937	-0.0238281
2793.03	0.607391	0.000148956
2793.93	0.607483	0.000452972
2794.81	0.000167847	0.00154724
2795.67	0.607452	0.000138214
2796.57	0.607483	0.000386169
2797.45	0.00022583	0.000882263
2798.31	0.607452	0.000128082
2799.21	0.607422	0.000334229
2800.11	0.606354	0.0190552
2800.95	0.607422	0.000118195
2801.85	0.607483	0.000289276
2802.75	0.60675	0.0135529
2803.59	0.607422	0.000110565
2804.49	0.607422	0.000257172
2805.39	0.607361	0.00320618
2806.23	0.607452	0.000103119
2806.37	0.607422	8.40759e-05