File: Edgar/20240417/20240417/electrodeposition_pulsed_potential_B/data/pulses_0_to_1000.txt
Time (s)	WE(1).Potential (V)	WE(1).Current (A)
181.576	-0.699738	-0.00428223
182.456	0.606781	3.2959e-06
183.356	0.607849	-2.01416e-06
184.216	-0.698883	-0.0041568
185.096	0.606873	2.65503e-06
185.996	0.608337	-4.79126e-06
186.876	-0.000112915	0.000510254
187.736	0.60733	2.74658e-07
188.636	0.606598	7.99561e-06
189.516	0.000942993	-7.04956e-06
190.376	0.606567	5.7373e-06
191.276	0.607178	2.62451e-06
192.176	0.608124	4.74548e-05
193.016	0.608215	-7.93457e-06
193.916	0.606689	5.0354e-06
194.816	0.607849	9.39941e-06
195.656	0.607758	-4.02832e-06
196.556	0.606659	4.79126e-06
197.456	0.608246	2.71606e-06
198.296	0.608246	-7.1106e-06
199.196	0.607544	7.32422e-07
200.096	0.607941	-7.01904e-07
200.936	0.606567	5.34058e-06
201.836	0.60675	5.0354e-06
202.736	0.606995	3.26538e-06
203.576	0.608002	-6.37817e-06
204.476	0.60788	-3.41797e-06
205.376	0.606934	3.38745e-06
206.216	0.606812	1.67847e-06
207.116	0.608154	-6.65283e-06
208.016	0.606781	4.88281e-06
208.876	-0.697906	-0.0122711
209.756	0.607391	2.01416e-06
210.656	0.607025	1.25122e-06
211.516	-0.698059	-0.00800781
212.396	0.607452	-3.69263e-06
213.296	0.606934	2.92969e-06
214.176	0.000933838	0.00618225
215.036	0.607208	3.96729e-07
215.936	0.608124	-7.32422e-06
216.816	7.32422e-05	8.41064e-05
217.676	0.60791	-5.15747e-06
218.576	0.608093	-5.98145e-06
219.476	0.607941	0.000122986
220.316	0.606689	3.87573e-06
221.216	0.607574	-2.01416e-06
222.116	0.606689	1.46484e-05
222.956	0.607178	1.00708e-06
223.856	0.608215	-7.26318e-06
224.756	0.608276	-5.37109e-06
225.596	0.606628	4.15039e-06
226.496	0.608337	-7.38525e-06
227.396	0.608032	-2.10571e-06
228.236	0.608185	-5.61523e-06
229.136	0.606934	3.32642e-06
230.036	0.607117	1.95313e-06
230.876	0.608032	-6.56128e-06
231.776	0.608154	-5.43213e-06
232.676	0.606628	6.80542e-06
233.516	0.608124	-7.38525e-06
234.416	0.60672	3.26538e-06
235.316	0.606995	2.22778e-06
236.176	-0.699188	-0.016626
237.056	0.608246	-7.26318e-06
237.956	0.607971	-4.88281e-06
238.816	-0.69809	-0.0105377
239.696	0.606903	7.32422e-07
240.596	0.606964	2.80762e-06
241.476	0.000561523	0.00872498
242.336	0.606659	4.30298e-06
243.236	0.608337	-5.5542e-06
244.116	-0.000454712	0.00190674
244.976	0.607208	2.28882e-06
245.876	0.607239	1.09863e-06
246.776	0.607666	0.00112244
247.616	0.60675	2.99072e-06
248.516	0.607117	1.98364e-06
249.416	0.60733	2.67944e-05
250.256	0.60788	-4.85229e-06
251.156	0.606842	2.92969e-06
252.056	0.606659	9.46045e-06
252.896	0.607941	-5.52368e-06
253.796	0.606903	9.15527e-07
254.696	0.607452	7.32422e-07
255.536	0.608429	-7.62939e-06
256.436	0.607635	-2.59399e-06
257.336	0.607758	-2.86865e-06
258.176	0.607452	-3.479e-06
259.076	0.607819	-4.02832e-06
259.976	0.607178	2.71606e-06
260.816	0.60791	-6.34766e-06
261.716	0.607574	-2.13623e-07
262.616	0.607269	3.66211e-07
263.476	-0.699066	-0.0192657
264.356	0.608002	-5.37109e-06
265.256	0.606781	4.24194e-06
266.116	-0.699402	-0.0127014
266.996	0.607971	-5.95093e-06
267.896	0.607056	3.32642e-06
268.776	0.000582886	0.00917358
269.636	0.608215	-8.05664e-06
270.536	0.607605	1.06812e-06
271.416	-0.000183105	0.00337036
272.276	0.607941	-3.50952e-06
273.176	0.606628	3.9978e-06
274.076	0.608215	0.00762634
274.916	0.607666	-2.47192e-06
275.816	0.608337	-6.95801e-06
276.716	0.608429	8.20007e-05
277.556	0.608307	-8.60596e-06
278.456	0.606598	2.71606e-06
279.356	0.607788	1.04675e-05
280.196	0.606537	5.15747e-06
281.096	0.60675	3.72314e-06
281.996	0.607422	2.47192e-06
282.836	0.608063	-7.78198e-06
283.736	0.60675	4.30298e-06
284.636	0.607971	-3.05176e-06
285.476	0.607849	-5.06592e-06
286.376	0.608063	-7.59888e-06
287.276	0.607758	-2.96021e-06
288.116	0.607971	-6.86646e-06
289.016	0.606567	3.63159e-06
289.916	0.607117	2.59399e-06
290.776	-0.698883	-0.0210876
291.656	0.607697	-3.38745e-06
292.556	0.607239	1.64795e-06
293.416	-0.6987	-0.0143585
294.296	0.608215	-8.78906e-06
295.196	0.60672	3.14331e-06
296.076	0.000595093	0.0089447
296.936	0.606567	2.38037e-06
297.836	0.608246	-7.1106e-06
298.716	0.00108643	0.00401642
299.576	0.60672	4.27246e-06
300.476	0.607025	1.61743e-06
301.376	0.606995	0.012561
302.216	0.607758	-5.21851e-06
303.116	0.606659	4.11987e-06
304.016	0.607544	0.00023587
304.856	0.606628	4.11987e-06
305.756	0.606995	4.05884e-06
306.656	0.607483	3.8269e-05
307.496	0.606659	5.09644e-06
308.396	0.606781	2.99072e-06
309.296	0.60672	1.55945e-05
310.136	0.607727	-4.05884e-06
311.036	0.60675	2.62451e-06
311.936	0.606659	7.14111e-06
312.776	0.608307	-8.05664e-06
313.676	0.608093	-8.66699e-06
314.576	0.60675	5.61523e-06
315.416	0.606567	4.76074e-06
316.316	0.606659	3.8147e-06
317.216	0.608276	-6.43921e-06
318.076	-0.698151	-0.0223694
318.956	0.606781	3.17383e-06
319.856	0.607819	-5.95093e-06
320.716	-0.698303	-0.0155823
321.596	0.607056	1.86157e-06
322.496	0.607483	-1.25122e-06
323.376	-0.00105286	0.00852661
324.236	0.606567	4.69971e-06
325.136	0.608124	-6.22559e-06
326.016	3.96729e-05	0.00424683
326.876	0.60788	-5.98145e-06
327.776	0.607056	1.40381e-06
328.676	0.606018	0.0145447
329.516	0.606598	4.63867e-06
330.416	0.60675	6.80542e-06
331.316	0.607605	0.000518188
332.156	0.606934	-1.2207e-06
333.056	0.608093	-6.43921e-06
333.956	0.606628	8.48999e-05
334.796	0.607208	3.05176e-08
335.696	0.608032	-6.43921e-06
336.596	0.606537	3.07007e-05
337.436	0.607513	-4.18091e-06
338.336	0.606812	4.15039e-06
339.236	0.607147	1.00098e-05
340.076	0.607697	-5.27954e-06
340.976	0.607819	-5.79834e-06
341.876	0.607605	7.62939e-07
342.716	0.60788	-1.92261e-06
343.616	0.606659	3.50952e-06
344.516	0.60672	6.01196e-06
345.376	-0.697723	-0.0233215
346.256	0.608032	-5.95093e-06
347.156	0.607208	-2.0752e-06
348.016	-0.698883	-0.0165771
348.896	0.606781	1.80054e-06
349.796	0.606659	6.74438e-06
350.676	-0.000265503	0.00805664
351.536	0.607117	-3.05176e-08
352.436	0.607941	-3.87573e-06
353.316	6.10352e-05	0.00424683
354.176	0.606689	3.66211e-06
355.076	0.608246	-6.28662e-06
355.976	0.605988	0.0157349
356.816	0.608185	-7.8125e-06
357.716	0.607086	7.32422e-07
358.616	0.608185	0.000901489
359.456	0.607239	-2.38037e-06
360.356	0.607147	1.34277e-06
361.256	0.607849	0.00012912
362.096	0.608093	-6.74438e-06
362.996	0.60672	4.76074e-06
363.896	0.608246	3.83301e-05
364.736	0.608246	-8.17871e-06
365.636	0.607239	2.31934e-06
366.536	0.607483	1.76086e-05
367.376	0.608307	-9.27734e-06
368.276	0.608124	-5.88989e-06
369.176	0.60791	3.78418e-06
370.016	0.607178	9.15527e-08
370.916	0.606689	4.60815e-06
371.816	0.607025	4.15039e-06
372.676	-0.697144	-0.024054
373.556	0.608246	-8.23975e-06
374.456	0.608276	-5.34058e-06
375.316	-0.698761	-0.0173828
376.196	0.608215	-7.59888e-06
377.096	0.606659	6.53076e-06
377.976	0.00045166	0.00762024
378.836	0.607849	-4.36401e-06
379.736	0.608215	-5.40161e-06
380.616	0.000967407	0.00419098
381.476	0.608002	-5.21851e-06
382.376	0.608429	-7.26318e-06
383.276	0.606812	0.0165436
384.116	0.606537	4.97437e-06
385.016	0.606781	3.75366e-06
385.916	0.608215	0.00138763
386.756	0.60672	2.44141e-06
387.656	0.607422	-1.28174e-06
388.556	0.60788	0.000206818
389.396	0.608063	-7.08008e-06
390.296	0.607544	-1.83105e-06
391.196	0.608276	6.10962e-05
392.036	0.607513	-3.63159e-06
392.936	0.60672	3.50952e-06
393.836	0.608185	2.28271e-05
394.676	0.608307	-6.46973e-06
395.576	0.606628	5.06592e-06
396.476	0.606842	1.75781e-05
397.316	0.606995	1.37329e-06
398.216	0.608276	-7.17163e-06
399.116	0.606689	1.19019e-05
399.976	-0.698669	-0.0246155
400.856	0.608246	-5.31006e-06
401.756	0.606628	9.15527e-06
402.616	-0.699066	-0.0180359
403.496	0.606598	3.75366e-06
404.396	0.607147	4.66919e-06
405.276	0.000799561	0.00722992
406.136	0.606689	4.69971e-06
407.036	0.608337	-3.20435e-06
407.916	-0.000622559	0.00411163
408.776	0.607361	1.25122e-06
409.676	0.608246	-6.50024e-06
410.576	0.60614	0.01716
411.416	0.606781	2.0752e-06
412.316	0.607971	-4.79126e-06
413.216	0.608185	0.00199524
414.056	0.608154	-7.17163e-06
414.956	0.608124	-5.15747e-06
415.856	0.607178	0.00030545
416.696	0.607147	1.15967e-06
417.596	0.607819	-3.63159e-06
418.496	0.608185	9.27124e-05
419.336	0.607666	-1.19019e-06
420.236	0.607758	-3.9978e-06
421.136	0.606781	4.81262e-05
421.976	0.60791	-4.36401e-06
422.876	0.607025	1.64795e-06
423.776	0.607574	2.4231e-05
424.616	0.607605	-5.5542e-06
425.516	0.606964	6.10352e-08
426.416	0.607849	9.0332e-06
427.276	-0.698639	-0.0250702
428.156	0.607208	5.79834e-07
429.056	0.60672	1.12e-05
429.916	-0.697937	-0.0185883
430.796	0.606689	4.21143e-06
431.696	0.608368	-3.20435e-06
432.576	-0.000741577	0.00688873
433.436	0.606903	1.06812e-06
434.336	0.60672	7.32422e-06
435.216	-0.000665283	0.00401062
436.076	0.606659	4.15039e-06
436.976	0.607178	4.08936e-06
437.876	0.605896	0.0176025
438.716	0.606659	3.90625e-06
439.616	0.608215	-5.15747e-06
440.516	0.606537	0.00274719
441.356	0.608215	-8.63647e-06
442.256	0.607269	-3.75366e-06
443.156	0.607574	0.000408264
443.996	0.606567	4.91333e-06
444.896	0.607391	-5.49316e-07
445.796	0.606903	0.000142761
446.636	0.608276	-9.12476e-06
447.536	0.60675	4.73022e-06
448.436	0.607452	5.89905e-05
449.276	0.607849	-4.69971e-06
450.176	0.607208	-1.86157e-06
451.076	0.608276	2.57874e-05
451.916	0.606903	4.5166e-06
452.816	0.608246	-7.32422e-06
453.716	0.607086	1.88599e-05
454.576	-0.697968	-0.0254578
455.456	0.607422	-2.59399e-06
456.356	0.607391	1.2207e-05
457.216	-0.699005	-0.019101
458.096	0.608093	-5.06592e-06
458.996	0.607941	1.46484e-06
459.876	-0.000320435	0.00654907
460.736	0.607635	-1.98364e-06
461.636	0.60675	8.54492e-06
462.516	0.000811768	0.00383667
463.376	0.607269	1.46484e-06
464.276	0.608154	-1.77002e-06
465.176	0.606964	0.0179016
466.016	0.607513	-2.56348e-06
466.916	0.607941	-1.58691e-06
467.816	0.607849	0.00355499
468.656	0.607666	-5.37109e-06
469.556	0.606934	4.05884e-06
470.456	0.6073	0.000520935
471.296	0.608154	-7.14111e-06
472.196	0.606689	4.63867e-06
473.096	0.608337	0.000178558
473.936	0.608246	-8.11768e-06
474.836	0.606873	6.43921e-06
475.736	0.606628	9.06372e-05
476.576	0.607849	-2.65503e-06
477.476	0.608276	-5.64575e-06
478.376	0.60788	4.3457e-05
479.216	0.607269	4.27246e-07
480.116	0.606964	3.11279e-06
481.016	0.607086	3.07007e-05
481.876	-0.698608	-0.0257416
482.756	0.606537	6.04248e-06
483.656	0.608215	1.01624e-05
484.516	-0.69809	-0.0195221
485.396	0.60788	-4.08936e-06
486.296	0.608032	5.82886e-06
487.176	-0.000747681	0.00626038
488.036	0.608032	-6.22559e-06
488.936	0.606873	1.0376e-05
489.816	0.000286865	0.00372589
490.676	0.608215	-6.86646e-06
491.576	0.606873	9.79614e-06
492.476	0.606323	0.0181824
493.316	0.606659	4.79126e-06
494.216	0.608246	-3.78418e-06
495.116	0.606567	0.00464783
495.956	0.607391	-2.19727e-06
496.856	0.606995	5.46265e-06
497.756	0.608032	0.000631409
498.596	0.606781	2.92969e-06
499.496	0.607422	3.32642e-06
500.396	0.607574	0.000230377
501.236	0.608032	-7.75146e-06
502.136	0.607239	9.76562e-07
503.036	0.607147	0.000114014
503.876	0.608093	-5.82886e-06
504.776	0.608185	-6.04248e-06
505.676	0.606628	7.03125E-05
506.516	0.606995	0
507.416	0.607941	-3.02124e-06
508.316	0.606659	4.34265e-05
509.176	-0.698181	-0.026004
510.056	0.607666	-1.89209e-06
510.956	0.606659	2.94189e-05
511.816	-0.698883	-0.01987
512.696	0.607391	-1.46484e-06
513.596	0.606873	1.95007e-05
514.476	0.000802612	0.00596954
515.336	0.606598	5.18799e-06
516.236	0.607056	1.23596e-05
517.116	0.000588989	0.00360474
517.976	0.608307	-7.62939e-06
518.876	0.607941	3.78418e-06
519.776	0.607025	0.0183777
520.616	0.608185	-5.52368e-06
521.516	0.608032	-2.74658e-07
522.416	0.607971	0.00604401
523.256	0.607483	-1.92261e-06
524.156	0.608246	-4.08936e-06
525.056	0.60733	0.000746765
525.896	0.608368	-7.87354e-06
526.796	0.606689	8.23975e-06
527.696	0.608093	0.000277863
528.536	0.607971	-5.58472e-06
529.436	0.606628	7.47681e-06
530.336	0.607147	0.000146881
531.176	0.608093	-6.80542e-06
532.076	0.608154	-4.79126e-06
532.976	0.607422	8.04138e-05
533.816	0.608063	-5.92041e-06
534.716	0.608307	-6.16455e-06
535.616	0.607544	4.82788e-05
536.476	-0.698425	-0.0262238
537.356	0.607697	-2.68555e-06
538.256	0.606689	3.86963e-05
539.116	-0.697327	-0.0202148
539.996	0.608276	-6.95801e-06
540.896	0.608154	1.6571e-05
541.776	-0.000384521	0.00572296
542.636	0.608276	-7.23267e-06
543.536	0.607941	1.26648e-05
544.416	0.000970459	0.00347534
545.276	0.608246	-6.80542e-06
546.176	0.607758	9.24683e-06
547.076	0.605774	0.018573
547.916	0.60791	-4.60815e-06
548.816	0.607025	1.41296e-05
549.716	0.608032	0.00760193
550.556	0.608368	-7.75146e-06
551.456	0.607971	3.75366e-06
552.356	0.606567	0.000863342
553.196	0.608246	-7.75146e-06
554.096	0.606781	9.73511e-06
554.996	0.60672	0.000337799
555.836	0.606659	4.5166e-06
556.736	0.607361	2.99072e-06
557.636	0.606934	0.000174011
558.476	0.607361	-6.40869e-07
559.376	0.606873	5.79834e-06
560.276	0.608032	9.8114e-05
561.116	0.607574	-1.80054e-06
562.016	0.60733	1.15967e-06
562.916	0.607666	6.36597e-05
563.776	-0.697113	-0.0264038
564.656	0.606995	4.73022e-06
565.556	0.607025	4.59595e-05
566.416	-0.697784	-0.0205322
567.296	0.607635	1.7395e-06
568.196	0.606628	3.68347e-05
569.076	-0.000109863	0.0055014
569.936	0.608002	-2.7771e-06
570.836	0.606659	2.90527e-05
571.716	-0.000592041	0.00335907
572.576	0.606598	5.70679e-06
573.476	0.608154	1.40991e-05
574.376	0.607056	0.018689
575.216	0.608337	-6.95801e-06
576.116	0.607971	8.91113e-06
577.016	0.606537	0.00882263
577.856	0.608093	-4.91333e-06
578.756	0.606812	1.27563e-05
579.656	0.60675	0.000969849
580.496	0.606598	5.85937e-06
581.396	0.608276	3.75366e-06
582.296	0.606659	0.000386627
583.136	0.608154	-6.46973e-06
584.036	0.608032	1.12915e-06
584.936	0.606842	0.000206024
585.776	0.608307	-8.11768e-06
586.676	0.606781	1.03149e-05
587.576	0.60675	0.000127502
588.416	0.607513	-2.89917e-06
589.316	0.608307	-2.47192e-06
590.216	0.607178	8.3374e-05
591.076	-0.697266	-0.0265442
591.956	0.60788	2.13623e-06
592.856	0.607056	5.79834e-05
593.716	-0.697845	-0.0207855
594.596	0.608276	-3.9978e-06
595.496	0.606964	4.46472e-05
596.376	-0.000759888	0.00528503
597.236	0.608124	-2.99072e-06
598.136	0.608215	2.27051e-05
599.016	0.000137329	0.00322205
599.876	0.607208	-1.2207e-07
600.776	0.606812	2.82288e-05
601.676	0.607208	0.0187805
602.516	0.607117	2.34985e-06
603.416	0.607025	2.07214e-05
604.316	0.606293	0.00957947
605.156	0.607574	-1.0376e-06
606.056	0.606598	2.24304e-05
606.956	0.607513	0.0010614
607.796	0.608185	-6.2561e-06
608.696	0.607697	9.52148e-06
609.596	0.608246	0.00042041
610.436	0.606964	3.479e-06
611.336	0.606903	1.08948e-05
612.236	0.608246	0.000226379
613.076	0.607819	-3.96729e-06
613.976	0.607178	9.27734e-06
614.876	0.608185	0.00013797
615.716	0.606689	5.43213e-06
616.616	0.608337	-6.71387e-07
617.516	0.606659	0.000101379
618.376	-0.697113	-0.0266724
619.256	0.606812	8.8501e-06
620.156	0.606659	7.44934e-05
621.016	-0.697235	-0.021051
621.896	0.60733	4.05884e-06
622.796	0.607788	5.07202e-05
623.676	-0.000244141	0.00508301
624.536	0.606995	9.27734e-06
625.436	0.606659	4.40979e-05
626.316	0.0010376	0.00311127
627.176	0.606842	7.20215e-06
628.076	0.607269	3.26843e-05
628.976	0.606506	0.0188843
629.816	0.608276	-3.84521e-06
630.716	0.60675	3.01208e-05
631.616	0.607544	0.0101654
632.456	0.608215	-4.39453e-06
633.356	0.607025	2.21863e-05
634.256	0.607758	0.00116028
635.096	0.606659	7.35474e-06
635.996	0.607635	1.25122e-05
636.896	0.608032	0.000469421
637.736	0.606812	4.97437e-06
638.636	0.607361	1.14136e-05
639.536	0.608246	0.000254242
640.376	0.607025	3.17383e-06
641.276	0.606628	1.50452e-05
642.176	0.608246	0.000159363
643.016	0.608002	-1.09863e-06
643.916	0.608246	2.7771e-06
644.816	0.608124	0.000106537
645.676	-0.69693	-0.0267334
646.556	0.607513	4.69971e-06
647.456	0.606598	8.88977e-05
648.316	-0.697571	-0.0212555
649.196	0.608368	9.15527e-07
650.096	0.607758	5.69458e-05
650.976	-0.00071106	0.00492004
651.836	0.607239	7.2937e-06
652.736	0.606842	5.02319e-05
653.616	-0.000509644	0.00302063
654.476	0.608246	-1.92261e-06
655.376	0.608276	2.97546e-05
656.276	0.605591	0.018985
657.116	0.608002	-1.52588e-06
658.016	0.607117	3.27759e-05
658.916	0.607727	0.0105988
659.756	0.606873	6.86646e-06
660.656	0.606567	2.98462e-05
661.556	0.606476	0.0012674
662.396	0.607666	3.96729e-07
663.296	0.606903	2.5238e-05
664.196	0.607574	0.000517578
665.036	0.607178	5.15747e-06
665.936	0.607788	1.5686e-05
666.836	0.60675	0.000294952
667.676	0.606659	8.23975e-06
668.576	0.607269	1.52893e-05
669.476	0.607971	0.00018103
670.316	0.606598	7.32422e-06
671.216	0.606934	1.70288e-05
672.116	0.608246	0.000122223
672.976	-0.697083	-0.0267944
673.856	0.60675	1.28479e-05
674.756	0.606628	9.93652e-05
675.616	-0.697876	-0.0214539
676.496	0.608185	2.16675e-06
677.396	0.606659	7.74841e-05
678.276	0.000793457	0.00473114
679.136	0.607117	1.0376e-05
680.036	0.607758	5.54504e-05
680.916	-0.000201416	0.00291504
681.776	0.608276	-5.79834e-07
682.676	0.607666	4.22974e-05
683.576	0.606049	0.019043
684.416	0.608185	9.15527e-07
685.316	0.608093	2.99377e-05
686.216	0.607788	0.0109497
687.056	0.60675	1.10474e-05
687.956	0.60672	3.69873e-05
688.856	0.60733	0.00135437
689.696	0.607452	3.38745e-06
690.596	0.607513	2.58484e-05
691.496	0.608002	0.000557861
692.336	0.608032	-7.93457e-07
693.236	0.607269	2.18201e-05
694.136	0.607239	0.000317169
694.976	0.607574	2.92969e-06
695.876	0.60672	2.43225e-05
696.776	0.608063	0.000200958
697.616	0.607147	5.06592e-06
698.516	0.608337	1.03149e-05
699.416	0.608124	0.000138733
700.276	-0.697205	-0.0268738
701.156	0.608215	6.62231e-06
702.056	0.608154	0.000100616
702.916	-0.698364	-0.0216888
703.796	0.606628	1.69678e-05
704.696	0.607391	7.86438e-05
705.576	-0.000540161	0.00454407
706.436	0.606537	1.88293e-05
707.336	0.606689	7.00684e-05
708.216	0.000997925	0.00276825
709.076	0.606842	1.2207e-05
709.976	0.608246	4.56848e-05
710.876	0.6073	0.0190765
711.716	0.607849	5.0354e-06
712.616	0.606628	4.82788e-05
713.516	0.60675	0.0111664
714.356	0.608276	4.88281e-07
715.256	0.608124	3.01514e-05
716.156	0.606628	0.00143494
716.996	0.606689	1.297e-05
717.896	0.608124	2.40173e-05
718.796	0.606842	0.000604553
719.636	0.60672	1.05286e-05
720.536	0.608276	1.95007e-05
721.436	0.607819	0.000337341
722.276	0.607361	4.15039e-06
723.176	0.607544	1.77917e-05
724.076	0.60733	0.000224548
724.916	0.607574	5.67627e-06
725.816	0.608032	1.45874e-05
726.716	0.608063	0.000153656
727.576	-0.696991	-0.0269073
728.456	0.608032	1.28479e-05
729.356	0.607727	0.00011322
730.216	-0.698486	-0.0218414
731.096	0.60675	1.65405e-05
731.996	0.607086	9.37195e-05
732.876	-0.000680542	0.00439484
733.736	0.606781	1.82495e-05
734.636	0.606659	7.87964e-05
735.516	0.000970459	0.00267761
736.376	0.608307	5.85937e-06
737.276	0.607727	5.55725e-05
738.176	0.60553	0.0191071
739.016	0.60672	1.5686e-05
739.916	0.606628	5.38025e-05
740.816	0.606873	0.0113831
741.656	0.608154	3.02124e-06
742.556	0.606842	4.55933e-05
743.456	0.607544	0.00150604
744.296	0.608185	1.15967e-06
745.196	0.608276	2.93884e-05
746.096	0.606476	0.000646057
746.936	0.60675	1.22986e-05
747.836	0.60791	2.31323e-05
748.736	0.607544	0.000368164
749.576	0.607544	8.05664e-06
750.476	0.607269	2.59094e-05
751.376	0.607819	0.000240936
752.216	0.607086	7.23267e-06
753.116	0.606995	2.60925e-05
754.016	0.608307	0.000166199
754.876	-0.698517	-0.0269012
755.756	0.607544	1.62048e-05
756.656	0.608032	0.000125824
757.516	-0.698853	-0.0219543
758.396	0.607117	1.953125E-05
759.296	0.608276	9.47571e-05
760.176	-0.000427246	0.00426025
761.036	0.606781	2.01416e-05
761.936	0.607391	8.26416e-05
762.816	-0.000320435	0.00259949
763.676	0.606903	1.69983e-05
764.576	0.606628	7.14722e-05
765.476	0.606842	0.0191406
766.316	0.607849	1.03149e-05
767.216	0.606812	5.92346e-05
768.116	0.607666	0.0115753
768.956	0.608002	6.89697e-06
769.856	0.606842	5.05371e-05
770.756	0.607758	0.00158173
771.596	0.606995	1.36108e-05
772.496	0.606598	4.37927e-05
773.396	0.607147	0.000677795
774.236	0.606659	1.33362e-05
775.136	0.607819	3.15552e-05
776.036	0.608093	0.000388062
776.876	0.608246	2.53296e-06
777.776	0.608154	2.45972e-05
778.676	0.606567	0.000267578
779.516	0.60733	8.45337e-06
780.416	0.607391	2.31628e-05
781.316	0.608154	0.00018222
782.176	-0.69809	-0.0269409
783.056	0.607269	2.35291e-05
783.956	0.60675	0.000146118
784.816	-0.698853	-0.0221039
785.696	0.608276	1.44958e-05
786.596	0.60672	0.000116486
787.476	0.000878906	0.004104
788.336	0.608337	1.21155e-05
789.236	0.608215	8.29468e-05
790.116	0.000671387	0.00249146
790.976	0.606628	2.22778e-05
791.876	0.606903	7.77283e-05
792.776	0.605865	0.0191711
793.616	0.606628	2.11182e-05
794.516	0.606567	6.69556e-05
795.416	0.606384	0.011734
796.256	0.607269	1.52283e-05
797.156	0.606628	5.74036e-05
798.057	0.606689	0.00165802
798.897	0.608093	7.26318e-06
799.797	0.60791	4.0741e-05
800.697	0.60733	0.000712585
801.537	0.606659	1.62964e-05
802.437	0.607819	3.66211e-05
803.337	0.606659	0.000423004
804.177	0.60672	1.62659e-05
805.077	0.606537	4.0741e-05
805.977	0.608246	0.000272552
806.817	0.606689	1.6449e-05
807.717	0.607666	2.75269e-05
808.617	0.606628	0.000207031
809.477	-0.697083	-0.0269623
810.357	0.608002	2.44141e-05
811.257	0.606567	0.000159241
812.117	-0.698761	-0.0222198
812.997	0.606537	3.02124e-05
813.897	0.606781	0.000125183
814.777	-0.000543213	0.0039978
815.637	0.607483	2.14539e-05
816.537	0.607391	9.83887e-05
817.417	8.8501e-05	0.00243378
818.277	0.60733	2.005e-05
819.177	0.607788	7.4585e-05
820.077	0.605774	0.0191986
820.917	0.608276	1.31226e-05
821.817	0.608002	6.20422e-05
822.717	0.606018	0.0119049
823.557	0.606628	2.1759e-05
824.457	0.608185	5.04761e-05
825.357	0.606598	0.00172791
826.197	0.607849	1.13525e-05
827.097	0.607727	4.70886e-05
827.997	0.608185	0.000741882
828.837	0.607269	1.35803e-05
829.737	0.607635	4.14124e-05
830.637	0.608032	0.000435425
831.477	0.60675	1.34277e-05
832.377	0.608307	3.10974e-05
833.277	0.607086	0.000299469
834.117	0.607239	1.22986e-05
835.017	0.607849	3.11584e-05
835.917	0.607208	0.000212372
836.777	-0.697906	-0.0269501
837.657	0.606506	3.61023e-05
838.557	0.606964	0.000166504
839.417	-0.697754	-0.0223297
840.297	0.606659	3.21045e-05
841.197	0.60733	0.00012915
842.077	0.000872803	0.00387939
842.937	0.608093	1.87378e-05
843.837	0.607391	0.000101715
844.717	-8.23975e-05	0.00236481
845.577	0.607605	1.88904e-05
846.477	0.606995	8.85925e-05
847.377	0.607147	0.0191956
848.217	0.606598	2.55737e-05
849.117	0.607452	7.15637e-05
850.017	0.607727	0.0120422
850.857	0.606812	2.2644e-05
851.757	0.607849	6.15845e-05
852.657	0.607391	0.00179504
853.497	0.607849	1.2085e-05
854.397	0.606628	6.08215e-05
855.297	0.606812	0.000787048
856.137	0.608032	9.00269e-06
857.037	0.606842	5.28564e-05
857.937	0.607727	0.000460236
858.777	0.608063	9.49097e-06
859.677	0.608063	3.72925e-05
860.577	0.606689	0.000318268
861.417	0.606628	1.88599e-05
862.317	0.606964	4.22974e-05
863.217	0.606689	0.000233032
864.077	-0.698425	-0.0269684
864.957	0.608215	2.69165e-05
865.857	0.607513	0.000173126
866.717	-0.698517	-0.0224701
867.597	0.607452	2.90222e-05
868.497	0.607483	0.000134003
869.377	0.000134277	0.00372742
870.237	0.607422	2.3407e-05
871.137	0.608276	0.000104736
872.017	-0.000512695	0.00223633
872.877	0.608215	1.78833e-05
873.777	0.607727	9.0332e-05
874.677	0.605652	0.0191803
875.517	0.607178	2.38037e-05
876.417	0.608398	7.13196e-05
877.317	0.60611	0.0120483
878.157	0.608307	1.39771e-05
879.057	0.608215	6.11572e-05
879.957	0.607605	0.00181824
880.797	0.607269	1.99585e-05
881.697	0.606689	6.45447e-05
882.597	0.607086	0.000808716
883.437	0.607605	1.41296e-05
884.337	0.606659	5.68237e-05
885.237	0.60788	0.00047641
886.077	0.606842	1.9043e-05
886.977	0.608032	4.12598e-05
887.877	0.606964	0.000330933
888.717	0.607635	1.51367e-05
889.617	0.60788	3.70789e-05
890.517	0.60791	0.000235413
891.377	-0.697632	-0.0270386
892.257	0.606689	4.19312e-05
893.157	0.607788	0.000182373
894.017	-0.698669	-0.02258
894.897	0.608154	2.50854e-05
895.797	0.607361	0.000146301
896.677	-0.000650024	0.00367584
897.537	0.606628	3.52478e-05
898.437	0.607269	0.00012265
899.317	0.00093689	0.00221497
900.177	0.607513	2.5116e-05
901.077	0.608093	9.26819e-05
901.977	0.606873	0.0192413
902.817	0.606842	3.03345e-05
903.717	0.607025	8.76465e-05
904.617	0.606354	0.0122223
905.457	0.607666	1.9989e-05
906.357	0.607788	6.87866e-05
907.257	0.606598	0.00189911
908.097	0.608215	1.44348e-05
908.997	0.608093	5.71594e-05
909.897	0.60788	0.000834351
910.737	0.608215	1.34583e-05
911.637	0.606964	5.91431e-05
912.537	0.607422	0.000504761
913.377	0.607941	1.46484e-05
914.277	0.607025	5.16357e-05
915.177	0.608002	0.000340179
916.017	0.608063	1.10474e-05
916.917	0.608246	3.75061e-05
917.817	0.608063	0.000247986
918.677	-0.697327	-0.0270538
919.557	0.607025	4.44031e-05
920.457	0.608154	0.000188293
921.317	-0.697388	-0.0226746
922.197	0.607544	3.70178e-05
923.097	0.608063	0.00014975
923.977	0.000814819	0.00358246
924.837	0.607208	3.43933e-05
925.737	0.606842	0.000127869
926.617	0.000836182	0.00216614
927.477	0.608307	2.18506e-05
928.377	0.60672	0.000111938
929.277	0.60556	0.0192627
930.117	0.606842	3.01819e-05
931.017	0.606934	9.26208e-05
931.917	0.606781	0.012326
932.757	0.608124	2.02026e-05
933.657	0.60675	8.13904e-05
934.557	0.607727	0.00195099
935.397	0.608276	1.58997e-05
936.297	0.607758	6.36902e-05
937.197	0.608185	0.000864258
938.037	0.606934	2.41699e-05
938.937	0.60672	6.40869e-05
939.837	0.607452	0.000528564
940.677	0.606873	2.24304e-05
941.577	0.607361	5.27039e-05
942.477	0.608032	0.00035376
943.317	0.608154	1.22375e-05
944.217	0.607544	4.75769e-05
945.117	0.607697	0.000262115
945.977	-0.697662	-0.0270569
946.857	0.606689	4.74243e-05
947.757	0.607483	0.000204498
948.617	-0.698792	-0.0227325
949.497	0.608246	3.27148e-05
950.397	0.606598	0.000169067
951.277	0.000561523	0.00350739
952.137	0.607727	3.49731e-05
953.037	0.608276	0.000128601
953.917	-0.000564575	0.00213776
954.777	0.606964	3.52173e-05
955.677	0.607788	0.000110168
956.577	0.607056	0.0192902
957.417	0.606659	3.5553e-05
958.317	0.608429	8.92639e-05
959.217	0.607544	0.0124451
960.057	0.606689	3.39661e-05
960.957	0.606781	8.66394e-05
961.857	0.606567	0.00202301
962.697	0.608276	1.89514e-05
963.597	0.607513	6.98547e-05
964.497	0.606567	0.00090271
965.337	0.6073	2.49329e-05
966.237	0.606689	6.73523e-05
967.137	0.606476	0.000552368
967.977	0.607544	2.02942e-05
968.877	0.606903	6.03333e-05
969.777	0.607269	0.000374756
970.617	0.608215	1.37939e-05
971.517	0.606689	5.6366e-05
972.417	0.607971	0.00027243
973.277	-0.698029	-0.0270782
974.157	0.607727	4.2572e-05
975.057	0.607971	0.000208893
975.917	-0.698669	-0.0228363
976.797	0.606873	4.62646e-05
977.697	0.608246	0.000165558
978.577	-0.000631714	0.00343872
979.437	0.60791	3.44238e-05
980.337	0.608002	0.000135864
981.217	2.13623e-05	0.00207642
982.077	0.606995	3.72314e-05
982.977	0.607666	0.000119446
983.877	0.605652	0.0193146
984.717	0.606995	3.68347e-05
985.617	0.607361	0.000101624
986.517	0.606689	0.0125153
987.357	0.608215	2.23083e-05
988.257	0.608215	8.11462e-05
989.157	0.608215	0.00205811
989.997	0.606903	3.13721e-05
990.897	0.606812	7.91016e-05
991.797	0.608002	0.00092041
992.637	0.607208	2.35901e-05
993.537	0.607208	6.94885e-05
994.437	0.607483	0.000564575
995.277	0.607788	2.01111e-05
996.177	0.606812	6.35986e-05
997.077	0.606781	0.00039093
997.917	0.607239	2.27661e-05
998.817	0.608368	4.78821e-05
999.717	0.606964	0.000290588
1000.58	-0.697937	-0.0270691
1001.46	0.606628	5.36499e-05
1002.36	0.606781	0.000229431
1003.22	-0.698761	-0.0228973
1004.1	0.60672	4.93469e-05
1005	0.608002	0.000173492
1005.88	-0.000610352	0.00336731
1006.74	0.607391	4.2511e-05
1007.64	0.606995	0.000150879
1008.52	-0.00010376	0.00203125
1009.38	0.6073	3.7323e-05
1010.28	0.607574	0.000124603
1011.18	0.605927	0.0193176
1012.02	0.607208	3.4668e-05
1012.92	0.608154	0.000100952
1013.82	0.606506	0.0125854
1014.66	0.60675	3.64685e-05
1015.56	0.60733	9.08508e-05
1016.46	0.608032	0.00211212
1017.3	0.60672	3.18298e-05
1018.2	0.607635	7.81555e-05
1019.1	0.607971	0.000950623
1019.94	0.608215	2.06604e-05
1020.84	0.608246	6.56738e-05
1021.74	0.606873	0.000591125
1022.58	0.606903	2.76794e-05
1023.48	0.608368	5.74646e-05
1024.38	0.607605	0.000400726
1025.22	0.606567	2.76184e-05
1026.12	0.606598	6.25916e-05
1027.02	0.60672	0.000303711
1027.88	-0.697021	-0.0270813
1028.76	0.606934	5.4657e-05
1029.66	0.607574	0.000229034
1030.52	-0.698639	-0.0229553
1031.4	0.608032	4.48608e-05
1032.3	0.607361	0.000189697
1033.18	-0.000750732	0.00328735
1034.04	0.608124	3.72314e-05
1034.94	0.608307	0.000148346
1035.82	0.000192261	0.00198853
1036.68	0.606598	4.48608e-05
1037.58	0.607147	0.000131561
1038.48	0.607178	0.0193176
1039.32	0.60788	3.23181e-05
1040.22	0.607819	0.000108429
1041.12	0.607483	0.0126709
1041.96	0.607666	2.87781e-05
1042.86	0.607788	9.40552e-05
1043.76	0.608154	0.00217133
1044.6	0.60675	3.69263e-05
1045.5	0.607361	8.62122e-05
1046.4	0.607544	0.000980225
1047.24	0.606964	3.2196e-05
1048.14	0.607208	7.36694e-05
1049.04	0.606689	0.000605469
1049.88	0.607727	2.74048e-05
1050.78	0.607239	6.86951e-05
1051.68	0.607361	0.000417511
1052.52	0.608032	2.08435e-05
1053.42	0.608185	5.40161e-05
1054.32	0.606598	0.000315399
1055.18	-0.698242	-0.0271057
1056.06	0.608185	4.75159e-05
1056.96	0.608246	0.000236969
1057.82	-0.697174	-0.0230621
1058.7	0.606659	5.60608e-05
1059.6	0.60672	0.00020047
1060.48	0.000894165	0.0030957
1061.34	0.607239	4.76685e-05
1062.24	0.607178	0.000164368
1063.12	0.000946045	0.00181396
1063.98	0.606873	4.37622e-05
1064.88	0.607452	0.000135803
1065.78	0.607147	0.0191956
1066.62	0.60672	4.35791e-05
1067.52	0.606873	0.000119232
1068.42	0.606445	0.0125214
1069.26	0.606659	4.03137e-05
1070.16	0.608215	9.32922e-05
1071.06	0.60675	0.00214783
1071.9	0.608124	2.51465e-05
1072.8	0.606842	9.25598e-05
1073.7	0.606903	0.000993347
1074.54	0.607727	2.71301e-05
1075.44	0.607117	7.78809e-05
1076.34	0.608276	0.00060791
1077.18	0.606934	3.13721e-05
1078.08	0.606781	7.50427e-05
1078.98	0.606628	0.00043222
1079.82	0.607727	2.42615e-05
1080.72	0.606659	6.80847e-05
1081.62	0.606689	0.000323486
1082.48	-0.698456	-0.0271454
1083.36	0.608215	5.00793e-05
1084.26	0.60733	0.000250641
1085.12	-0.69754	-0.0231537
1086	0.607178	5.45349e-05
1086.9	0.606628	0.000207581
1087.78	0.000640869	0.00306854
1088.64	0.606812	5.16663e-05
1089.54	0.607391	0.000166412
1090.42	-0.000411987	0.00183868
1091.28	0.607758	3.9856e-05
1092.18	0.608185	0.000134949
1093.08	0.606873	0.0192719
1093.92	0.608154	3.41492e-05
1094.82	0.608215	0.000113892
1095.72	0.606049	0.012674
1096.56	0.6073	3.81775e-05
1097.46	0.608307	9.84802e-05
1098.36	0.606537	0.00221375
1099.2	0.607941	3.01819e-05
1100.1	0.606659	9.72595e-05
1101	0.607452	0.00101654
1101.84	0.606659	3.68652e-05
1102.74	0.607239	8.16956e-05
1103.64	0.608032	0.000625
1104.48	0.607056	3.15247e-05
1105.38	0.608063	6.93359e-05
1106.28	0.608002	0.000435638
1107.12	0.607178	2.79846e-05
1108.02	0.606598	7.05566e-05
1108.92	0.608093	0.000324341
1109.78	-0.698151	-0.0271271
1110.66	0.608307	5.40771e-05
1111.56	0.608154	0.000252136
1112.42	-0.697357	-0.0231873
1113.3	0.606659	5.99976e-05
1114.2	0.606659	0.000214355
1115.08	0.000552368	0.00304565
1115.94	0.608032	4.55322e-05
1116.84	0.606567	0.000179108
1117.72	-0.000311279	0.00183258
1118.58	0.606934	5.22156e-05
1119.48	0.608246	0.000140015
1120.38	0.607178	0.0193146
1121.22	0.607056	4.47998e-05
1122.12	0.606659	0.00013147
1123.02	0.607239	0.0127838
1123.86	0.608032	3.49731e-05
1124.76	0.606598	0.000116058
1125.66	0.607819	0.00226898
1126.5	0.606659	4.32739e-05
1127.4	0.606659	0.000101715
1128.3	0.607178	0.00104645
1129.14	0.608093	2.75574e-05
1130.04	0.606659	9.07898e-05
1130.94	0.607544	0.000644226
1131.78	0.607361	3.07312e-05
1132.68	0.608337	6.93665e-05
1133.58	0.60672	0.000459442
1134.42	0.608154	2.15454e-05
1135.32	0.608276	6.24695e-05
1136.22	0.607361	0.000340576
1137.08	-0.697632	-0.027124
1137.96	0.608185	5.57861e-05
1138.86	0.60791	0.000266754
1139.72	-0.698212	-0.0232147
1140.6	0.608337	4.97742e-05
1141.5	0.607849	0.000213806
1142.38	-0.000268555	0.00300171
1143.24	0.60672	5.76477e-05
1144.14	0.608124	0.000173584
1145.02	0.000561523	0.00180878
1145.88	0.607941	4.39453e-05
1146.78	0.606964	0.000152222
1147.68	0.60611	0.019342
1148.52	0.606628	5.12085e-05
1149.42	0.60788	0.000126617
1150.32	0.607025	0.012854
1151.16	0.608276	3.45154e-05
1152.06	0.608215	0.000107574
1152.96	0.606598	0.00232361
1153.8	0.607422	3.78418e-05
1154.7	0.608398	9.35059e-05
1155.6	0.606659	0.00107422
1156.44	0.606598	4.11682e-05
1157.34	0.608215	8.28857e-05
1158.24	0.608154	0.000660095
1159.08	0.606659	3.91235e-05
1159.98	0.606598	8.51135e-05
1160.88	0.606537	0.000472839
1161.72	0.60675	3.50037e-05
1162.62	0.60675	7.63855e-05
1163.52	0.60672	0.00035498
1164.38	-0.697144	-0.0271515
1165.26	0.606598	7.04956e-05
1166.16	0.606934	0.000278595
1167.02	-0.697205	-0.0232697
1167.9	0.608124	5.39856e-05
1168.8	0.606964	0.000225433
1169.68	0.000814819	0.00294617
1170.54	0.607513	5.2124e-05
1171.44	0.608215	0.000179474
1172.32	0.000701904	0.00179047
1173.18	0.606689	5.6488e-05
1174.08	0.608002	0.000152863
1174.98	0.607117	0.0193512
1175.82	0.608154	4.06799e-05
1176.72	0.608246	0.000128723
1177.62	0.607605	0.012915
1178.46	0.607513	4.1626e-05
1179.36	0.606598	0.000124939
1180.26	0.608002	0.00235168
1181.1	0.607941	3.37524e-05
1182	0.608002	0.000100281
1182.9	0.607178	0.00109253
1183.74	0.606628	4.32129e-05
1184.64	0.6073	9.37195e-05
1185.54	0.607971	0.000679321
1186.38	0.607117	3.68958e-05
1187.28	0.608002	8.01697e-05
1188.18	0.608154	0.000473083
1189.02	0.608246	2.78931e-05
1189.92	0.60672	7.94067e-05
1190.82	0.607147	0.00036142
1191.68	-0.697906	-0.027179
1192.56	0.607269	6.7749e-05
1193.46	0.606567	0.000289581
1194.32	-0.698395	-0.0233307
1195.2	0.607849	6.03333e-05
1196.1	0.607513	0.000228638
1196.98	-0.000674438	0.00288788
1197.84	0.608215	5.04761e-05
1198.74	0.606873	0.000196106
1199.62	0.00102234	0.00173431
1200.48	0.607819	4.91638e-05
1201.38	0.607758	0.000157013
1202.28	0.606781	0.0193542
1203.12	0.606537	5.37109e-05
1204.02	0.606842	0.000144653
1204.92	0.606171	0.0129517
1205.76	0.607941	3.87878e-05
1206.66	0.607239	0.00012149
1207.56	0.607147	0.00239838
1208.4	0.606934	4.56238e-05
1209.3	0.608063	9.99146e-05
1210.2	0.608093	0.00110626
1211.04	0.608002	3.34167e-05
1211.94	0.607758	9.31702e-05
1212.84	0.608215	0.000690002
1213.68	0.608154	3.06091e-05
1214.58	0.607819	8.14819e-05
1215.48	0.608063	0.000484924
1216.32	0.608185	2.7771e-05
1217.22	0.606659	8.43811e-05
1218.12	0.60672	0.000375885
1218.98	-0.698456	-0.0271698
1219.86	0.606659	7.58362e-05
1220.76	0.606964	0.000294189
1221.62	-0.698792	-0.0233734
1222.5	0.606812	6.74133e-05
1223.4	0.6073	0.000234711
1224.28	-0.000640869	0.00283112
1225.14	0.608185	5.44434e-05
1226.04	0.606659	0.00020285
1226.92	0.000521851	0.00170074
1227.78	0.6073	5.3894e-05
1228.68	0.607483	0.000167633
1229.58	0.606049	0.0193451
1230.42	0.608002	4.64783e-05
1231.32	0.608124	0.000138367
1232.22	0.606384	0.0130066
1233.06	0.608063	4.12903e-05
1233.96	0.606964	0.000129852
1234.86	0.608093	0.00242432
1235.7	0.607544	4.27551e-05
1236.6	0.607056	0.000113617
1237.5	0.606567	0.00113129
1238.34	0.607025	4.34265e-05
1239.24	0.608246	9.13391e-05
1240.14	0.60733	0.000703125
1240.98	0.608276	3.1189e-05
1241.88	0.607147	9.10339e-05
1242.78	0.607666	0.000493164
1243.62	0.608002	3.125E-05
1244.52	0.607483	7.77588e-05
1245.42	0.607208	0.000376129
1246.28	-0.698547	-0.027182
1247.16	0.608093	6.60095e-05
1248.06	0.607727	0.000293091
1248.92	-0.697266	-0.0234558
1249.8	0.608246	5.96008e-05
1250.7	0.608307	0.000234894
1251.58	0.000418091	0.00269348
1252.44	0.606598	6.58875e-05
1253.34	0.608215	0.000192871
1254.22	0.000982666	0.00158661
1255.08	0.607971	4.99268e-05
1255.98	0.60675	0.000176056
1256.88	0.605591	0.0192657
1257.72	0.60733	5.10559e-05
1258.62	0.606628	0.00015271
1259.52	0.60672	0.0128662
1260.36	0.606812	5.2887e-05
1261.26	0.606689	0.000135162
1262.16	0.606537	0.002388
1263	0.606598	5.0293e-05
1263.9	0.607117	0.000114227
1264.8	0.60672	0.00113464
1265.64	0.607941	3.90625E-05
1266.54	0.608063	9.52454e-05
1267.44	0.606537	0.000722351
1268.28	0.607483	3.87878e-05
1269.18	0.606628	9.58557e-05
1270.08	0.606903	0.000513306
1270.92	0.60675	4.19006e-05
1271.82	0.607391	8.13599e-05
1272.72	0.606812	0.000387939
1273.58	-0.697571	-0.0271912
1274.46	0.607513	7.26929e-05
1275.36	0.608276	0.000298553
1276.22	-0.697449	-0.0234741
1277.1	0.607513	6.71082e-05
1278	0.608215	0.000241272
1278.88	-0.000570679	0.00270905
1279.74	0.607788	6.14319e-05
1280.64	0.608307	0.000200348
1281.52	-0.00055542	0.00161682
1282.38	0.60675	6.17371e-05
1283.28	0.607544	0.000174561
1284.18	0.606323	0.0193176
1285.02	0.607452	5.29175e-05
1285.92	0.607452	0.00015094
1286.82	0.60675	0.0129852
1287.66	0.607483	5.01404e-05
1288.56	0.607422	0.000131927
1289.46	0.60733	0.00245239
1290.3	0.607483	4.63867e-05
1291.2	0.607483	0.000116882
1292.1	0.607361	0.00115967
1292.94	0.607422	4.20532e-05
1293.84	0.607422	0.000103882
1294.74	0.607361	0.000733948
1295.58	0.607391	3.93982e-05
1296.48	0.607422	9.26514e-05
1297.38	0.607391	0.000521545
1298.22	0.607391	3.81775e-05
1299.12	0.607422	8.39233e-05
1300.02	0.607422	0.00039386
1300.88	-0.697723	-0.0272064
1301.76	0.607391	7.68738e-05
1302.66	0.607452	0.000310852
1303.52	-0.697906	-0.0234894
1304.4	0.607483	6.99158e-05
1305.3	0.607391	0.000253052
1306.18	0.000158691	0.00268463
1307.04	0.607422	6.47583e-05
1307.94	0.607391	0.000212372
1308.82	0.000234985	0.00161407
1309.68	0.607513	5.92957e-05
1310.58	0.607452	0.000179779
1311.48	0.606354	0.0193604
1312.32	0.607391	5.51758e-05
1313.22	0.607422	0.000155579
1314.12	0.606781	0.0130951
1314.96	0.607422	5.09338e-05
1315.86	0.607422	0.000136566
1316.76	0.607361	0.0025058
1317.6	0.607452	4.76685e-05
1318.5	0.607422	0.000119995
1319.4	0.607361	0.00118317
1320.24	0.607422	4.5105e-05
1321.14	0.607422	0.000107544
1322.04	0.607361	0.000749207
1322.88	0.607391	4.19617e-05
1323.78	0.607422	9.65576e-05
1324.68	0.60733	0.000533447
1325.52	0.607452	3.96729e-05
1326.42	0.607452	8.7616e-05
1327.32	0.607422	0.000403381
1328.18	-0.697723	-0.0272003
1329.06	0.607422	7.94067e-05
1329.96	0.607452	0.00031897
1330.82	-0.697906	-0.0235046
1331.7	0.607452	7.21436e-05
1332.6	0.607391	0.00026123
1333.48	0.000152588	0.00264496
1334.34	0.607391	6.61926e-05
1335.24	0.607422	0.000217041
1336.12	0.000219727	0.00159393
1336.98	0.607422	6.15845e-05
1337.88	0.607422	0.00018515
1338.78	0.606323	0.0193604
1339.62	0.607483	5.68237e-05
1340.52	0.607452	0.000160492
1341.42	0.606781	0.01315
1342.26	0.607452	5.2948e-05
1343.16	0.607452	0.000139862
1344.06	0.60733	0.00254303
1344.9	0.607483	4.94995e-05
1345.8	0.607422	0.000123871
1346.7	0.607361	0.0012027
1347.54	0.607422	4.59595e-05
1348.44	0.607452	0.000110291
1349.34	0.607361	0.000763855
1350.18	0.607391	4.32129e-05
1351.08	0.607391	9.98535e-05
1351.98	0.607422	0.000544434
1352.82	0.607452	4.07715e-05
1353.72	0.607422	8.94165e-05
1354.62	0.607391	0.000411957
1355.48	-0.697693	-0.0271942
1356.36	0.607422	8.24585e-05
1357.26	0.607483	0.000326569
1358.12	-0.697937	-0.0235229
1359	0.607452	7.47375e-05
1359.9	0.607361	0.000266388
1360.78	0.000140381	0.00259918
1361.64	0.607422	6.92139e-05
1362.54	0.607452	0.000222809
1363.42	0.000244141	0.00156403
1364.28	0.607452	6.39038e-05
1365.18	0.607391	0.000189148
1366.08	0.606323	0.019339
1366.92	0.607483	5.88684e-05
1367.82	0.607391	0.000164307
1368.72	0.606812	0.0131439
1369.56	0.607422	5.4657e-05
1370.46	0.607422	0.000143677
1371.36	0.607361	0.00256226
1372.2	0.607452	5.09644e-05
1373.1	0.607391	0.000126007
1374	0.6073	0.00121826
1374.84	0.607452	4.82788e-05
1375.74	0.607422	0.000113342
1376.64	0.60733	0.000775452
1377.48	0.607483	4.41284e-05
1378.38	0.607422	0.000101196
1379.28	0.60733	0.000553284
1380.12	0.607422	4.27856e-05
1381.02	0.607452	9.16138e-05
1381.92	0.607422	0.000420258
1382.78	-0.697754	-0.027182
1383.66	0.607483	8.38928e-05
1384.56	0.607452	0.000332642
1385.42	-0.697876	-0.0235291
1386.3	0.607452	7.61108e-05
1387.2	0.607422	0.000271942
1388.08	0.000170898	0.00254608
1388.94	0.607391	7.10144e-05
1389.84	0.607452	0.000228577
1390.72	0.00020752	0.00153168
1391.58	0.607361	6.55823e-05
1392.48	0.607422	0.000194031
1393.38	0.606354	0.0193329
1394.22	0.607422	6.02417e-05
1395.12	0.607391	0.000167145
1396.02	0.60672	0.0131836
1396.86	0.607422	5.59998e-05
1397.76	0.607452	0.000146698
1398.66	0.6073	0.00259613
1399.5	0.607483	5.34058e-05
1400.4	0.607452	0.000130402
1401.3	0.607422	0.00123627
1402.14	0.607452	4.89197e-05
1403.04	0.607422	0.000115997
1403.94	0.607391	0.000788879
1404.78	0.607422	4.70276e-05
1405.68	0.607483	0.000105072
1406.58	0.60733	0.000564575
1407.42	0.607422	4.34265e-05
1408.32	0.607452	9.48792e-05
1409.22	0.607422	0.000427155
1410.08	-0.697754	-0.0271851
1410.96	0.607452	8.56934e-05
1411.86	0.60733	0.000340118
1412.72	-0.697937	-0.0235565
1413.6	0.607422	7.87659e-05
1414.5	0.607422	0.000278351
1415.38	0.000158691	0.00250305
1416.24	0.607483	7.35168e-05
1417.14	0.607422	0.00023349
1418.02	0.000219727	0.00150116
1418.88	0.607361	6.70166e-05
1419.78	0.607422	0.000198242
1420.68	0.606354	0.0193237
1421.52	0.607452	6.18591e-05
1422.42	0.607422	0.000170837
1423.32	0.60675	0.0131897
1424.16	0.607452	5.76172e-05
1425.06	0.607422	0.000149994
1425.96	0.6073	0.00261597
1426.8	0.607452	5.40161e-05
1427.7	0.607391	0.000133453
1428.6	0.60733	0.00124969
1429.44	0.607422	4.98352e-05
1430.34	0.607422	0.000118652
1431.24	0.607391	0.000799561
1432.08	0.607422	4.80042e-05
1432.98	0.607391	0.000106812
1433.88	0.607361	0.00057251
1434.72	0.607483	4.42505e-05
1435.62	0.607452	9.61609e-05
1436.52	0.607391	0.000434631
1437.38	-0.697693	-0.0272003
1438.26	0.607452	8.7616e-05
1439.16	0.607422	0.000345093
1440.02	-0.697906	-0.023587
1440.9	0.607422	8.05054e-05
1441.8	0.607452	0.000283173
1442.68	0.000128174	0.00246704
1443.54	0.607452	7.40051e-05
1444.44	0.607513	0.000237244
1445.32	0.000250244	0.00147491
1446.18	0.607452	6.89392e-05
1447.08	0.607391	0.000201904
1447.98	0.606354	0.0192932
1448.82	0.607452	6.36597e-05
1449.72	0.607452	0.000175812
1450.62	0.606812	0.0131805
1451.46	0.607422	5.9906e-05
1452.36	0.607422	0.00015387
1453.26	0.60733	0.00262909
1454.1	0.607452	5.6427e-05
1455	0.607422	0.00013504
1455.9	0.607361	0.0012619
1456.74	0.607483	5.16968e-05
1457.64	0.607422	0.00012207
1458.54	0.607361	0.000810242
1459.38	0.607422	4.83093e-05
1460.28	0.607391	0.00010965
1461.18	0.607452	0.00058075
1462.02	0.607452	4.62341e-05
1462.92	0.607361	9.82056e-05
1463.82	0.607391	0.000442413
1464.68	-0.697723	-0.0271973
1465.56	0.607452	8.99048e-05
1466.46	0.607422	0.000351196
1467.32	-0.697937	-0.0236023
1468.2	0.607422	8.30078e-05
1469.1	0.607422	0.00028833
1469.98	0.000140381	0.00242859
1470.84	0.607483	7.57751e-05
1471.74	0.607452	0.00024115
1472.62	0.000228882	0.00144104
1473.48	0.607422	7.10754e-05
1474.38	0.607483	0.000207367
1475.28	0.606323	0.0192871
1476.12	0.607391	6.53992e-05
1477.02	0.607422	0.000178925
1477.92	0.606812	0.0131958
1478.76	0.607422	6.05164e-05
1479.66	0.607422	0.000157257
1480.56	0.607391	0.00265472
1481.4	0.607452	5.71594e-05
1481.54	0.607452	4.5166e-05