File: Edgar/20240605/20240605/electrodeposition_pulsed_potential_20240605_B/pulses_2000_to_3000.txt
Time (s)	WE(1).Potential (V)	WE(1).Current (A)
1599.17	-0.698151	-0.0233917
1599.63	0.000775146	0.0030658
1600.11	-0.000564575	0.00756836
1600.57	-0.698639	-0.021225
1601.03	0.000158691	0.00388245
1601.51	-0.000671387	0.00787964
1601.97	-0.697571	-0.021051
1602.43	0.000619507	0.00400299
1602.91	0.000253296	0.00794678
1603.37	-0.698669	-0.0210052
1603.83	9.46045e-05	0.00404785
1604.31	0.00062561	0.0079834
1604.77	-0.698212	-0.0209869
1605.23	-0.000128174	0.00407532
1605.71	0.000506592	0.00799561
1606.17	-0.697815	-0.0209717
1606.63	0.000442505	0.00409729
1607.11	-0.000570679	0.00802612
1607.57	-0.697571	-0.0209534
1608.03	0.00057373	0.00411041
1608.51	0.000445557	0.00802917
1608.97	-0.698486	-0.0209412
1609.43	0.000643921	0.00411804
1609.91	-0.000497437	0.00804138
1610.37	-0.697784	-0.0209473
1610.83	0.000799561	0.00412781
1611.31	-0.000628662	0.00805054
1611.77	-0.698212	-0.020932
1612.23	0.000585937	0.00413696
1612.71	-0.000271606	0.00805664
1613.17	-0.698761	-0.0209259
1613.63	-0.000289917	0.00415222
1614.11	-0.000692749	0.00805359
1614.57	-0.698059	-0.0209167
1615.03	-0.000393677	0.0041568
1615.51	-1.52588e-05	0.00805054
1615.97	-0.697815	-0.0209259
1616.43	0.000686646	0.00415619
1616.91	-0.000640869	0.0080658
1617.37	-0.697449	-0.0209229
1617.83	9.15527e-06	0.00416473
1618.31	7.62939e-05	0.0080658
1618.77	-0.698761	-0.0209015
1619.23	-0.000256348	0.00417206
1619.71	-0.000579834	0.00807495
1620.17	-0.697693	-0.0209137
1620.63	0.000393677	0.00417572
1621.11	-0.000350952	0.00808105
1621.57	-0.698456	-0.0208954
1622.03	4.27246e-05	0.00418243
1622.51	-0.00072937	0.00807495
1622.97	-0.697662	-0.0209076
1623.43	-0.000485229	0.0041864
1623.91	4.57764e-05	0.00806885
1624.37	-0.69754	-0.0209045
1624.83	0.000549316	0.00418121
1625.31	-1.2207e-05	0.00807495
1625.77	-0.69812	-0.0208923
1626.23	0.000299072	0.00418823
1626.71	0.000299072	0.00809021
1627.17	-0.698456	-0.0208954
1627.63	0.000256348	0.00418884
1628.11	-0.0006073	0.00809631
1628.57	-0.698456	-0.0209015
1629.03	-0.000378418	0.00419952
1629.51	0.000247192	0.00809021
1629.97	-0.69751	-0.0209045
1630.43	0.000543213	0.00419525
1630.91	-0.000656128	0.00809937
1631.37	-0.69873	-0.0209045
1631.83	0.000521851	0.00419678
1632.31	-0.000216675	0.00810242
1632.77	-0.697784	-0.0209045
1633.23	0.000238037	0.00420349
1633.71	-0.000531006	0.00810242
1634.17	-0.697662	-0.0209015
1634.63	0.000762939	0.00420166
1635.11	-0.000271606	0.00808411
1635.57	-0.698822	-0.0208893
1636.03	0.000756836	0.00420532
1636.51	-0.000463867	0.00810242
1636.97	-0.698029	-0.0208954
1637.43	-0.000402832	0.0042157
1637.91	3.96729e-05	0.00810242
1638.37	-0.697632	-0.0208954
1638.83	-0.000411987	0.00421783
1639.31	-0.000683594	0.00809631
1639.77	-0.698212	-0.0208923
1640.23	0.000640869	0.00421051
1640.71	0.000494385	0.00809937
1641.17	-0.698669	-0.0208923
1641.63	-0.000344849	0.00422241
1642.11	-0.00015564	0.00810547
1642.57	-0.697693	-0.0208954
1643.03	0.000430298	0.00421509
1643.51	-0.000256348	0.00810852
1643.97	-0.697388	-0.0208954
1644.43	0.000701904	0.00421875
1644.91	0.000289917	0.00809326
1645.37	-0.69812	-0.0208832
1645.83	0.000274658	0.00422241
1646.31	-0.000616455	0.00809937
1646.77	-0.698059	-0.0208954
1647.23	0.000512695	0.00422211
1647.71	-4.57764e-05	0.00808411
1648.17	-0.697632	-0.0208893
1648.63	0.000888062	0.00422424
1649.11	-0.000390625	0.00808411
1649.57	-0.697693	-0.0208771
1650.03	0.000726318	0.00422821
1650.51	-0.000646973	0.00808716
1650.97	-0.697906	-0.0208801
1651.43	0.000320435	0.00423035
1651.91	0.000500488	0.00808716
1652.37	-0.697632	-0.0208862
1652.83	0.000421143	0.00422882
1653.31	-0.000653076	0.00809326
1653.77	-0.6987	-0.020871
1654.23	0.00072937	0.00422913
1654.71	6.10352e-05	0.00808105
1655.17	-0.697662	-0.020874
1655.63	1.83105e-05	0.00423676
1656.11	0.000265503	0.00809326
1656.57	-0.698669	-0.0208679
1657.03	0.000811768	0.00423309
1657.51	0.000680542	0.00808411
1657.97	-0.698029	-0.020871
1658.43	0.000805664	0.0042337
1658.91	-0.000460815	0.00809021
1659.37	-0.697784	-0.0208618
1659.83	0.000540161	0.00423798
1660.31	-0.000634766	0.00808716
1660.77	-0.698212	-0.0208588
1661.23	-0.000299072	0.00424438
1661.71	0.000161743	0.00807495
1662.17	-0.698761	-0.0208649
1662.63	-0.000408936	0.00424561
1663.11	0.000393677	0.00807495
1663.57	-0.698242	-0.020871
1664.03	0.000454712	0.00424225
1664.51	0.000564575	0.008078
1664.97	-0.69809	-0.0208649
1665.43	0.000588989	0.00424347
1665.91	-0.000701904	0.008078
1666.37	-0.698395	-0.0208588
1666.83	-0.000430298	0.00424988
1667.31	-0.000491333	0.008078
1667.77	-0.69873	-0.0208557
1668.23	-0.000415039	0.00425079
1668.71	-0.000643921	0.00808411
1669.17	-0.69754	-0.0208618
1669.63	0.000796509	0.00424255
1670.11	0.000512695	0.00807495
1670.57	-0.697479	-0.0208618
1671.03	-9.15527e-05	0.00425293
1671.51	0.000265503	0.00808411
1671.97	-0.697937	-0.0208557
1672.43	-0.000415039	0.00425476
1672.91	0.000415039	0.00808105
1673.37	-0.697601	-0.0208618
1673.83	0.000762939	0.00424896
1674.31	0.00017395	0.00808411
1674.77	-0.6987	-0.0208679
1675.23	0.000384521	0.00425537
1675.71	0.000418091	0.008078
1676.17	-0.6987	-0.0208618
1676.63	0.000775146	0.0042514
1677.11	-0.000570679	0.00808105
1677.57	-0.69873	-0.0208649
1678.03	0.000570679	0.00425568
1678.51	-0.000424194	0.00808105
1678.97	-0.697571	-0.0208679
1679.43	0.000811768	0.00425293
1679.91	0.00038147	0.00807495
1680.37	-0.69754	-0.020874
1680.83	-0.000418091	0.00426178
1681.31	0.000515747	0.00807495
1681.77	-0.698669	-0.0208618
1682.23	0.000634766	0.00425751
1682.71	0.000167847	0.00808105
1683.17	-0.697937	-0.0208679
1683.63	0.000732422	0.00425446
1684.11	-0.000311279	0.00806274
1684.57	-0.69751	-0.0208557
1685.03	1.52588e-05	0.00425903
1685.51	-0.000531006	0.00807495
1685.97	-0.698456	-0.0208557
1686.43	0.000579834	0.00426056
1686.91	0.000552368	0.00806885
1687.37	-0.697693	-0.0208496
1687.83	0.000662231	0.00425873
1688.31	0.000588989	0.0080658
1688.77	-0.697693	-0.0208496
1689.23	0.000384521	0.004263
1689.71	-0.000137329	0.00807495
1690.17	-0.69754	-0.0208588
1690.63	-0.000360107	0.00426819
1691.11	-0.000689697	0.00806885
1691.57	-0.698669	-0.0208618
1692.03	0.000418091	0.0042688
1692.51	-0.000378418	0.0080719
1692.97	-0.698608	-0.0208679
1693.43	-0.000421143	0.00427185
1693.91	-0.000537109	0.00808716
1694.37	-0.698669	-0.0208801
1694.83	-0.0003479	0.00427002
1695.31	-0.000436401	0.00808411
1695.77	-0.697449	-0.0208893
1696.23	4.88281e-05	0.00427155
1696.71	-0.000631714	0.00808716
1697.17	-0.698822	-0.0208954
1697.63	-0.000408936	0.00427032
1698.11	-0.000604248	0.00809021
1698.57	-0.697601	-0.0208954
1699.03	0.000714111	0.00426605
1699.51	-0.000448608	0.00807495
1699.97	-0.697693	-0.0208862
1700.43	0.000262451	0.00427429
1700.91	-0.000576782	0.00807495
1701.37	-0.697968	-0.0208923
1701.83	-0.000100708	0.00427094
1702.31	-0.000567627	0.00808411
1702.77	-0.698212	-0.0208862
1703.23	-0.000415039	0.00427887
1703.71	0.000195313	0.008078
1704.17	-0.697571	-0.0208893
1704.63	-0.000424194	0.00427795
1705.11	0.000494385	0.0080719
1705.57	-0.698792	-0.0208801
1706.03	-0.000390625	0.0042807
1706.51	0.000521851	0.0080658
1706.97	-0.698273	-0.0208862
1707.43	-0.000418091	0.0042804
1707.91	0.000497437	0.0080719
1708.37	-0.698029	-0.0208832
1708.83	-0.000494385	0.00427917
1709.31	-7.01904e-05	0.00806274
1709.77	-0.698059	-0.020871
1710.23	0.000491333	0.00427277
1710.71	-0.00062561	0.00806885
1711.17	-0.698456	-0.0208649
1711.63	-0.00043335	0.00428253
1712.11	4.27246e-05	0.00806274
1712.57	-0.698639	-0.020871
1713.03	-0.000387573	0.00428101
1713.51	0.000570679	0.0080658
1713.97	-0.698639	-0.0208771
1714.43	-0.000408936	0.00428192
1714.91	0.000131226	0.00805664
1715.37	-0.698669	-0.0208618
1715.83	0.000735474	0.00427612
1716.31	0.000527954	0.00805359
1716.77	-0.6987	-0.0208618
1717.23	7.32422e-05	0.00427795
1717.71	-0.00027771	0.00806274
1718.17	-0.698151	-0.020871
1718.63	0.000634766	0.00428131
1719.11	-0.000616455	0.00805664
1719.57	-0.697784	-0.0208557
1720.03	0.000564575	0.00427856
1720.51	-0.000534058	0.00805969
1720.97	-0.697601	-0.0208832
1721.43	-0.000360107	0.00428802
1721.91	-0.000216675	0.0080658
1722.37	-0.697479	-0.020874
1722.83	-0.000219727	0.00428467
1723.31	-0.000265503	0.0080658
1723.77	-0.698517	-0.0208801
1724.23	-0.000106812	0.00429047
1724.71	9.46045e-05	0.00804443
1725.17	-0.697479	-0.0208893
1725.63	-6.40869e-05	0.00428589
1726.11	-0.000576782	0.0080658
1726.57	-0.698639	-0.020871
1727.03	-8.23975e-05	0.00428558
1727.51	0.000424194	0.00805664
1727.97	-0.69873	-0.0208771
1728.43	0.000305176	0.00428436
1728.91	0.000424194	0.00805359
1729.37	-0.697815	-0.0208771
1729.83	0.000765991	0.00428497
1730.31	-0.00012207	0.0080658
1730.77	-0.698792	-0.0208832
1731.23	0.000576782	0.00428955
1731.71	-0.000259399	0.00804749
1732.17	-0.698059	-0.020871
1732.63	0.000375366	0.00429199
1733.11	0.00043335	0.00805054
1733.57	-0.69751	-0.0208832
1734.03	-0.000366211	0.00429352
1734.51	0.000485229	0.00804443
1734.97	-0.698761	-0.0208679
1735.43	-0.000494385	0.00429291
1735.91	-0.000628662	0.00804749
1736.37	-0.697662	-0.0208771
1736.83	-0.000405884	0.00429535
1737.31	-0.000152588	0.00804443
1737.77	-0.697906	-0.0208832
1738.23	0.000497437	0.00428986
1738.71	3.96729e-05	0.00805359
1739.17	-0.698059	-0.0208862
1739.63	4.88281e-05	0.00429932
1740.11	0.000534058	0.00804749
1740.57	-0.698334	-0.0208893
1741.03	0.000588989	0.00429626
1741.51	-1.2207e-05	0.00804138
1741.97	-0.697632	-0.0208893
1742.43	0.000732422	0.00429413
1742.91	-0.00017395	0.00805664
1743.37	-0.698547	-0.0208832
1743.83	-0.000466919	0.00430573
1744.31	-0.000109863	0.00803833
1744.77	-0.698547	-0.0208832
1745.23	-0.00043335	0.00431122
1745.71	0.000463867	0.0080658
1746.17	-0.69812	-0.0209229
1746.63	0.000610352	0.00430023
1747.11	0.000491333	0.0080658
1747.57	-0.698242	-0.0209137
1748.03	-5.79834e-05	0.00430634
1748.51	-0.000469971	0.00806274
1748.97	-0.69751	-0.0209167
1749.43	-0.000326538	0.00430878
1749.91	-4.88281e-05	0.00806885
1750.37	-0.698456	-0.0209137
1750.83	0.000732422	0.00430542
1751.31	0.000558472	0.00806274
1751.77	-0.697876	-0.0209137
1752.23	-0.000512695	0.00431213
1752.71	-0.00071106	0.0080658
1753.17	-0.698059	-0.0209137
1753.63	0.000109863	0.00430603
1754.11	-0.000601196	0.0080719
1754.57	-0.698242	-0.0209076
1755.03	-0.000402832	0.00431519
1755.51	-0.000164795	0.00805359
1755.97	-0.697601	-0.0209198
1756.43	-0.000326538	0.00431305
1756.91	-6.10352e-06	0.00805359
1757.37	-0.698822	-0.0209167
1757.83	0.000402832	0.00431244
1758.31	0.000588989	0.00805664
1758.77	-0.698395	-0.0209106
1759.23	-0.000439453	0.00431671
1759.71	-0.000183105	0.0080658
1760.17	-0.697815	-0.0209229
1760.63	0.000466919	0.0043103
1761.11	0.000631714	0.00806274
1761.57	-0.698517	-0.0208984
1762.03	-0.000534058	0.00431793
1762.51	-0.000540161	0.00805664
1762.97	-0.697662	-0.0209137
1763.43	-0.000341797	0.00432098
1763.91	0.000430298	0.00805664
1764.37	-0.6987	-0.0209106
1764.83	0.000784302	0.00431305
1765.31	0.000244141	0.00804138
1765.77	-0.698456	-0.0209137
1766.23	9.76562e-05	0.00432037
1766.71	0.000402832	0.00805664
1767.17	-0.698761	-0.0209015
1767.63	-0.000384521	0.00432434
1768.11	-0.000653076	0.00805664
1768.57	-0.697815	-0.0209106
1769.03	0.000415039	0.0043219
1769.51	0.000674438	0.00805359
1769.97	-0.698608	-0.0209076
1770.43	0.000579834	0.00431549
1770.91	-0.000164795	0.00804443
1771.37	-0.697723	-0.0209137
1771.83	-3.35693e-05	0.00432556
1772.31	0.000350952	0.00804749
1772.77	-0.697571	-0.0209076
1773.23	-0.0003479	0.004328
1773.71	-1.2207e-05	0.00805969
1774.17	-0.69754	-0.0209045
1774.63	-0.000369263	0.00433044
1775.11	-0.000231934	0.00805969
1775.57	-0.698242	-0.0209137
1776.03	-0.000396729	0.00433289
1776.51	6.71387e-05	0.00805054
1776.97	-0.698669	-0.0209015
1777.43	-0.000341797	0.00433289
1777.91	0.000259399	0.00804138
1778.37	-0.697784	-0.0209015
1778.83	-0.000473022	0.00433136
1779.31	0.000558472	0.00804749
1779.77	-0.697845	-0.0209106
1780.23	0.000775146	0.00432678
1780.71	-0.000598145	0.00805054
1781.17	-0.698303	-0.0208893
1781.63	-0.000131226	0.00433441
1782.11	0.000543213	0.00804749
1782.57	-0.6987	-0.0208984
1783.03	0.000292969	0.00433014
1783.51	-0.000326538	0.00805664
1783.97	-0.698059	-0.0208923
1784.43	0.00067749	0.00433105
1784.91	-0.00067749	0.00804443
1785.37	-0.698547	-0.0209015
1785.83	-0.000238037	0.0043396
1786.31	-0.000418091	0.00804749
1786.77	-0.697479	-0.0208984
1787.23	-0.000119019	0.00433258
1787.71	0.000585937	0.00804443
1788.17	-0.698273	-0.0208954
1788.63	0.000454712	0.00433441
1789.11	0.000579834	0.00803528
1789.57	-0.698303	-0.0208893
1790.03	4.57764e-05	0.00434021
1790.51	0.00055542	0.00803833
1790.97	-0.69873	-0.0208954
1791.43	0.000518799	0.00433899
1791.91	0.000180054	0.00803223
1792.37	-0.69751	-0.0209015
1792.83	-0.000427246	0.00434418
1793.31	-7.62939e-05	0.00804749
1793.77	-0.698395	-0.0208954
1794.23	0.000521851	0.00434174
1794.71	-0.000299072	0.00803223
1795.17	-0.698578	-0.0208923
1795.63	0.000363159	0.0043457
1796.11	0.000527954	0.00804443
1796.57	-0.6987	-0.0208984
1797.03	0.000402832	0.00433929
1797.51	0.00057373	0.00804138
1797.97	-0.697754	-0.0209076
1798.43	-0.00038147	0.00434967
1798.91	0.000527954	0.00803528
1799.37	-0.697418	-0.0209015
1799.83	0.000631714	0.00434052
1800.31	-0.000628662	0.00804138
1800.77	-0.698761	-0.0208893
1801.23	0.000112915	0.00434601
1801.71	0.000357056	0.00803223
1802.17	-0.698029	-0.0208954
1802.63	0.000613403	0.00434509
1803.11	0.000189209	0.00804443
1803.57	-0.697601	-0.0208923
1804.03	-2.74658e-05	0.00434692
1804.51	-0.000646973	0.00803833
1804.97	-0.697723	-0.0208984
1805.43	0.000765991	0.0043454
1805.91	0.000341797	0.00803833
1806.37	-0.69873	-0.0208893
1806.83	-0.000177002	0.00435059
1807.31	-0.000311279	0.00802917
1807.77	-0.698761	-0.0208893
1808.23	-0.000128174	0.00435242
1808.71	-4.88281e-05	0.00804138
1809.17	-0.698578	-0.0208771
1809.63	-0.000408936	0.00435669
1810.11	-0.000411987	0.00803833
1810.57	-0.698578	-0.0208801
1811.03	-0.00020752	0.00435791
1811.51	-0.000720215	0.00802917
1811.97	-0.698181	-0.0208801
1812.43	0.000317383	0.0043573
1812.91	-8.54492e-05	0.00802307
1813.37	-0.697601	-0.0208954
1813.83	0.000515747	0.0043515
1814.31	0.00045166	0.00802307
1814.77	-0.69873	-0.0208862
1815.23	0.000741577	0.00435181
1815.71	0.000500488	0.00802307
1816.17	-0.698547	-0.020874
1816.63	-0.000424194	0.00435883
1817.11	-0.000186157	0.00803528
1817.57	-0.698608	-0.020874
1818.03	-0.00039978	0.00436371
1818.51	0.000335693	0.00801392
1818.97	-0.69754	-0.0208832
1819.43	0.000775146	0.00435425
1819.91	0.000634766	0.00802612
1820.37	-0.698486	-0.020871
1820.83	0.000476074	0.00435455
1821.31	0.00057373	0.00802002
1821.77	-0.698547	-0.0208649
1822.23	0.000790405	0.00435364
1822.71	-0.000622559	0.00801697
1823.17	-0.698547	-0.020874
1823.63	-0.000354004	0.00436432
1824.11	0.000515747	0.00801392
1824.57	-0.698456	-0.0208618
1825.03	-0.000469971	0.00436523
1825.51	0.000524902	0.00801392
1825.97	-0.698578	-0.020874
1826.43	-0.000283813	0.00436798
1826.91	0.00057373	0.00802002
1827.37	-0.698761	-0.0208649
1827.83	0.000863647	0.00435944
1828.31	-0.000680542	0.00801697
1828.77	-0.69812	-0.0208649
1829.23	0.000808716	0.00436401
1829.71	-0.000186157	0.00801392
1830.17	-0.697876	-0.020874
1830.63	0.000164795	0.00436737
1831.11	0.000506592	0.00802002
1831.57	-0.697937	-0.0208649
1832.03	-0.000112915	0.00436615
1832.51	-0.000509644	0.00801086
1832.97	-0.698212	-0.020874
1833.43	-0.000366211	0.00437134
1833.91	-0.00055542	0.00802002
1834.37	-0.697998	-0.020871
1834.83	0.000640869	0.00436768
1835.31	3.96729e-05	0.00800171
1835.77	-0.6987	-0.0208679
1836.23	-0.000527954	0.00437622
1836.71	-0.000164795	0.00802002
1837.17	-0.698029	-0.0208679
1837.63	-0.000479126	0.00437561
1838.11	-0.000424194	0.00800476
1838.57	-0.6987	-0.0208588
1839.03	0.000643921	0.00437073
1839.51	-0.000653076	0.00802002
1839.97	-0.69751	-0.020871
1840.43	0.000671387	0.00437134
1840.91	-0.000646973	0.00801086
1841.37	-0.698792	-0.0208588
1841.83	0.000332642	0.00437469
1842.31	-0.000115967	0.00799866
1842.77	-0.698822	-0.0208557
1843.23	-4.57764e-05	0.00437866
1843.71	0.000137329	0.00800476
1844.17	-0.697632	-0.0208679
1844.63	0.000140381	0.00438049
1845.11	-0.000244141	0.00801697
1845.57	-0.698608	-0.0208557
1846.03	-0.000271606	0.00437805
1846.51	-0.000445557	0.00800476
1846.97	-0.6987	-0.0208496
1847.43	-0.000326538	0.00438171
1847.91	0.000198364	0.00799866
1848.37	-0.69754	-0.0208588
1848.83	-0.000323486	0.00438202
1849.31	0.000567627	0.00800476
1849.77	-0.698364	-0.0208527
1850.23	0.000735474	0.00437744
1850.71	-0.000598145	0.00800171
1851.17	-0.697815	-0.0208679
1851.63	-0.000363159	0.00438416
1852.11	0.000582886	0.00799866
1852.57	-0.697632	-0.0208649
1853.03	0.000613403	0.00438232
1853.51	-0.000665283	0.00800171
1853.97	-0.697662	-0.0208649
1854.43	0.00065918	0.00437714
1854.91	0.000500488	0.00799561
1855.37	-0.698425	-0.0208557
1855.83	0.000372314	0.00437897
1856.31	0.000125122	0.0079895
1856.77	-0.697571	-0.0208496
1857.23	0.000784302	0.00437927
1857.71	0.000341797	0.00799561
1858.17	-0.697449	-0.0208557
1858.63	-0.000326538	0.00438629
1859.11	0.000317383	0.0079834
1859.57	-0.698669	-0.0208466
1860.03	-0.000408936	0.0043869
1860.51	0.000656128	0.00799255
1860.97	-0.698181	-0.0208435
1861.43	0.00027771	0.00437927
1861.91	-2.44141e-05	0.00799866
1862.37	-0.69873	-0.0208466
1862.83	-0.000341797	0.00439056
1863.31	-0.000604248	0.00799255
1863.77	-0.697754	-0.0208527
1864.23	0.000485229	0.00438385
1864.71	-0.000344849	0.00799561
1865.17	-0.69873	-0.0208466
1865.63	-0.000158691	0.00438995
1866.11	-2.74658e-05	0.00799561
1866.57	-0.69751	-0.0208435
1867.03	-0.000317383	0.00439178
1867.51	0.00050354	0.00798035
1867.97	-0.69809	-0.0208405
1868.43	0.000549316	0.00438599
1868.91	-0.000109863	0.00797729
1869.37	-0.697571	-0.0208435
1869.83	0.000341797	0.00438324
1870.31	-0.00065918	0.00798645
1870.77	-0.69809	-0.0208344
1871.23	0.000750732	0.00438599
1871.71	-0.000604248	0.00799255
1872.17	-0.69873	-0.0208374
1872.63	0.000772095	0.00438843
1873.11	0.000518799	0.0079834
1873.57	-0.698761	-0.0208344
1874.03	0.000274658	0.0043927
1874.51	0.000592041	0.00797729
1874.97	-0.697968	-0.0208527
1875.43	0.000680542	0.00438965
1875.91	0.000552368	0.00798035
1876.37	-0.697998	-0.0208466
1876.83	-0.000421143	0.00439758
1877.31	5.79834e-05	0.00797424
1877.77	-0.698242	-0.0208313
1878.23	0.000527954	0.00438965
1878.71	0.000588989	0.00798035
1879.17	-0.6987	-0.0208344
1879.63	-0.0003479	0.00439911
1880.11	-0.000512695	0.00797424
1880.57	-0.698395	-0.0208405
1881.03	-0.000134277	0.0043988
1881.51	0.000570679	0.00797424
1881.97	-0.69754	-0.0208374
1882.43	0.000344849	0.00439728
1882.91	-0.000241089	0.0079895
1883.37	-0.69873	-0.0208344
1883.83	0.000772095	0.00439606
1884.31	-0.000497437	0.0079895
1884.77	-0.698761	-0.0208344
1885.23	0.000140381	0.00440247
1885.71	0.00062561	0.00798035
1886.17	-0.698517	-0.0208344
1886.63	-3.05176e-06	0.00440094
1887.11	-0.000704956	0.00797424
1887.57	-0.69751	-0.0208496
1888.03	0.000817871	0.00440094
1888.51	0.000204468	0.0079834
1888.97	-0.697662	-0.0208435
1889.43	-3.05176e-06	0.0044043
1889.91	0.000430298	0.00797729
1890.37	-0.697723	-0.0208221
1890.83	-0.000463867	0.0044101
1891.31	0.000415039	0.00796814
1891.77	-0.69751	-0.0208282
1892.23	1.52588e-05	0.00440704
1892.71	0.000515747	0.00796509
1893.17	-0.697449	-0.0208344
1893.63	0.000244141	0.00440399
1894.11	0.000256348	0.00798035
1894.57	-0.69812	-0.0208252
1895.03	0.000137329	0.0044101
1895.51	-0.000762939	0.00797424
1895.97	-0.697723	-0.0208282
1896.43	0.000250244	0.00441101
1896.91	0.000457764	0.00797119
1897.37	-0.698059	-0.0208282
1897.83	0.000769043	0.00440582
1898.31	0.000390625	0.00797119
1898.77	-0.698395	-0.0208252
1899.23	-0.000332642	0.00441315
1899.71	-0.000262451	0.00797729
1900.17	-0.698059	-0.0208191
1900.63	0.00032959	0.00440704
1901.11	0.000216675	0.00796204
1901.57	-0.69809	-0.0208191
1902.03	-0.000421143	0.00441437
1902.51	-0.000253296	0.00796204
1902.97	-0.697906	-0.0208252
1903.43	0.000860596	0.00440918
1903.91	6.10352e-05	0.00797119
1904.37	-0.698242	-0.0208252
1904.83	-0.000521851	0.00441498
1905.31	0.000500488	0.00795593
1905.77	-0.698181	-0.0208221
1906.23	0.000564575	0.00441284
1906.71	0.00027771	0.00795288
1907.17	-0.697754	-0.020813
1907.63	-0.000396729	0.00441864
1908.11	-0.000402832	0.00796204
1908.57	-0.697662	-0.0208069
1909.03	0.000338745	0.0044104
1909.51	0.000466919	0.00795593
1909.97	-0.6987	-0.0208099
1910.43	-0.000405884	0.00441956
1910.91	-0.000131226	0.00794678
1911.37	-0.698395	-0.0208008
1911.83	-0.00010376	0.00442017
1912.31	0.000411987	0.00795288
1912.77	-0.697662	-0.0208069
1913.23	0.000210571	0.00440948
1913.71	0.000109863	0.00794373
1914.17	-0.698181	-0.0207947
1914.63	0.000692749	0.00441193
1915.11	3.35693e-05	0.00794678
1915.57	-0.698212	-0.0207977
1916.03	0.000167847	0.00441498
1916.51	0.000354004	0.00794373
1916.97	-0.698059	-0.0208069
1917.43	0.000714111	0.00441223
1917.91	-0.000216675	0.00795593
1918.37	-0.697479	-0.0208008
1918.83	-0.000369263	0.00442139
1919.31	-0.000424194	0.00794373
1919.77	-0.69873	-0.0207886
1920.23	-6.10352e-05	0.0044223
1920.71	3.05176e-06	0.00795288
1921.17	-0.6987	-0.0207886
1921.63	4.57764e-05	0.00441742
1922.11	0.000595093	0.00794373
1922.57	-0.69873	-0.0207886
1923.03	-0.00038147	0.00442627
1923.51	0.000592041	0.00793762
1923.97	-0.698608	-0.0207825
1924.43	-5.18799e-05	0.00442383
1924.91	0.000460815	0.00794067
1925.37	-0.698792	-0.0207886
1925.83	0.000616455	0.00441986
1926.31	-0.000292969	0.00794678
1926.77	-0.697479	-0.0207855
1927.23	0.000149536	0.00442383
1927.71	-0.000405884	0.00794678
1928.17	-0.697601	-0.0207886
1928.63	-2.44141e-05	0.00442047
1929.11	0.000610352	0.00793762
1929.57	-0.69754	-0.0207825
1930.03	0.000189209	0.00441772
1930.51	-0.000445557	0.00793152
1930.97	-0.697968	-0.0207764
1931.43	-0.000308228	0.00442841
1931.91	-0.000289917	0.00792542
1932.37	-0.698242	-0.0207764
1932.83	0.000119019	0.00442596
1933.31	-3.05176e-06	0.00792542
1933.77	-0.697449	-0.0207794
1934.23	0.000616455	0.00442352
1934.71	-0.000500488	0.00792847
1935.17	-0.698212	-0.0207855
1935.63	-8.23975e-05	0.00442535
1936.11	-0.000424194	0.00794067
1936.57	-0.697937	-0.0207733
1937.03	0.00085144	0.00442261
1937.51	-0.000558472	0.00793152
1937.97	-0.698334	-0.0207764
1938.43	0.000888062	0.00442291
1938.91	3.05176e-05	0.00791931
1939.37	-0.698547	-0.0207733
1939.83	0.000723267	0.00442413
1940.31	0.000158691	0.00792847
1940.77	-0.698181	-0.0207886
1941.23	-0.000137329	0.00439575
1941.71	0.000579834	0.00787659
1942.17	-0.69873	-0.0208252
1942.63	-0.00032959	0.00437592
1943.11	0.00045166	0.00786743
1943.57	-0.697632	-0.0208282
1944.03	-0.000115967	0.00437317
1944.51	-0.000445557	0.00787048
1944.97	-0.698395	-0.0208344
1945.43	0.000115967	0.00437317
1945.91	-0.000366211	0.00787048
1946.37	-0.697601	-0.0208313
1946.83	0.000561523	0.00437012
1947.31	-0.000634766	0.00787354
1947.77	-0.698669	-0.0208221
1948.23	0.000250244	0.00437317
1948.71	-0.000326538	0.00786743
1949.17	-0.698822	-0.0208221
1949.63	0.000198364	0.00437683
1950.11	-0.000628662	0.00786743
1950.57	-0.697815	-0.0208099
1951.03	0.00012207	0.00437927
1951.51	-0.000634766	0.00786743
1951.97	-0.697479	-0.020816
1952.43	0.000531006	0.00437897
1952.91	-0.000299072	0.00786438
1953.37	-0.697815	-0.020813
1953.83	-0.00015564	0.00438599
1954.31	0.000521851	0.00786743
1954.77	-0.697571	-0.0208008
1955.23	-0.000408936	0.00439331
1955.71	0.000357056	0.00786743
1956.17	-0.698181	-0.0207855
1956.63	-0.00038147	0.00439941
1957.11	0.00055542	0.00786743
1957.57	-0.698853	-0.0207886
1958.03	-0.000323486	0.00440002
1958.51	-0.000366211	0.00787964
1958.97	-0.69754	-0.0207916
1959.43	-0.000115967	0.00440155
1959.91	-0.000488281	0.00787964
1960.37	-0.697906	-0.0207825
1960.83	0.000558472	0.0043985
1961.31	-0.00067749	0.00787048
1961.77	-0.69751	-0.0207855
1962.23	-0.000311279	0.0044104
1962.71	-0.000204468	0.00786743
1963.17	-0.698029	-0.0207794
1963.63	0.000640869	0.00440186
1964.11	-0.000448608	0.00787964
1964.57	-0.698395	-0.0207642
1965.03	-0.000354004	0.00441498
1965.51	0.000506592	0.00787659
1965.97	-0.697937	-0.0207581
1966.43	-0.000112915	0.00441284
1966.91	0.000497437	0.00787048
1967.37	-0.69754	-0.0207733
1967.83	0.000772095	0.00440643
1968.31	-0.000543213	0.00787354
1968.77	-0.697479	-0.0207703
1969.23	-0.000210571	0.00441193
1969.71	2.44141e-05	0.00786438
1970.17	-0.69873	-0.0207642
1970.63	0	0.00441956
1971.11	-0.000531006	0.00788269
1971.57	-0.697662	-0.0207672
1972.03	0.000534058	0.00441528
1972.51	0.000543213	0.00786743
1972.97	-0.697632	-0.0207703
1973.43	0.000799561	0.00441437
1973.91	0.00020752	0.00785828
1974.37	-0.69751	-0.020755
1974.83	0.000744629	0.00441498
1975.31	-0.000286865	0.00786438
1975.77	-0.697754	-0.0207672
1976.23	0.000753784	0.00441589
1976.71	-0.000448608	0.00786743
1977.17	-0.697693	-0.0207611
1977.63	0.000317383	0.00442261
1978.11	0.000143433	0.00786133
1978.57	-0.698761	-0.0207458
1979.03	-0.000170898	0.00442749
1979.51	0.000402832	0.00787048
1979.97	-0.698578	-0.0207458
1980.43	0.00078125	0.00441956
1980.91	0.000479126	0.00786743
1981.37	-0.698669	-0.020752
1981.83	2.44141e-05	0.00442657
1982.31	5.49316e-05	0.00785828
1982.77	-0.697906	-0.0207611
1983.23	0.000750732	0.00442291
1983.71	-0.0006073	0.00786743
1984.17	-0.697906	-0.0207458
1984.63	0.000354004	0.00442444
1985.11	0.000512695	0.00785828
1985.57	-0.697693	-0.0207611
1986.03	-0.00043335	0.00443146
1986.51	-0.000338745	0.00786743
1986.97	-0.698273	-0.0207397
1987.43	9.46045e-05	0.00443085
1987.91	0.000228882	0.00786438
1988.37	-0.698395	-0.0207489
1988.83	-0.000411987	0.00443115
1989.31	-0.000662231	0.00786133
1989.77	-0.697449	-0.0207458
1990.23	-0.000332642	0.00443085
1990.71	2.74658e-05	0.00784912
1991.17	-0.697357	-0.0207458
1991.63	0.000704956	0.00442352
1992.11	0.000588989	0.00785522
1992.57	-0.698761	-0.0207367
1993.03	0.000601196	0.00442596
1993.51	-0.000683594	0.00785522
1993.97	-0.697632	-0.0207489
1994.43	-0.000469971	0.00443268
1994.91	-0.00071106	0.00784607
1995.37	-0.698578	-0.0207428
1995.83	-1.83105e-05	0.00443451
1996.31	0.000396729	0.00785217
1996.77	-0.697968	-0.0207336
1997.23	0.000512695	0.00443024
1997.71	-0.000473022	0.00785522
1998.17	-0.698212	-0.0207489
1998.63	0.000775146	0.00442902
1999.11	-0.000488281	0.00785217
1999.57	-0.698517	-0.0207397
2000.03	0.000747681	0.00442932
2000.51	-6.40869e-05	0.00785522
2000.97	-0.698303	-0.0207336
2001.43	0.000717163	0.00443085
2001.91	-0.000189209	0.00783691
2002.37	-0.698425	-0.0207245
2002.83	0.000714111	0.00443481
2003.31	0.000219727	0.00784302
2003.77	-0.698792	-0.0207336
2004.23	-0.00020752	0.00443848
2004.71	0.000363159	0.00783691
2005.17	-0.697876	-0.0207397
2005.63	0.00043335	0.00443329
2006.11	0.000250244	0.00785217
2006.57	-0.698303	-0.0207214
2007.03	0.000631714	0.00443573
2007.51	-0.000442505	0.00783997
2007.97	-0.697693	-0.0207458
2008.43	-0.000442505	0.00444153
2008.91	0.000567627	0.00784302
2009.37	-0.697876	-0.0207275
2009.83	0.000692749	0.00443665
2010.31	-0.000656128	0.00783997
2010.77	-0.6987	-0.0207336
2011.23	0.000613403	0.00444275
2011.71	-0.000280762	0.00784607
2012.17	-0.698212	-0.0207275
2012.63	-0.000357056	0.00444702
2013.11	-0.000332642	0.00784302
2013.57	-0.697693	-0.0207397
2014.03	0.000592041	0.00444244
2014.51	-3.96729e-05	0.00783081
2014.97	-0.697601	-0.0207275
2015.43	-0.00027771	0.00444855
2015.91	0.000372314	0.00783691
2016.37	-0.698517	-0.0207306
2016.83	-0.00045166	0.00444946
2017.31	-0.000463867	0.00784607
2017.77	-0.69812	-0.0207367
2018.23	0.000592041	0.00444275
2018.71	0.000479126	0.00783386
2019.17	-0.698029	-0.0207245
2019.63	0.00083313	0.00444489
2020.11	-0.000610352	0.00784302
2020.57	-0.698242	-0.0207275
2021.03	0.00065918	0.00444824
2021.51	-0.000183105	0.00783386
2021.97	-0.697723	-0.0207245
2022.43	-0.000372314	0.00445221
2022.91	-0.000683594	0.00783997
2023.37	-0.698792	-0.0207245
2023.83	0.000759888	0.00444672
2024.31	0.000476074	0.00783691
2024.77	-0.698395	-0.0207306
2025.23	0.000332642	0.00445282
2025.71	-0.0006073	0.00784302
2026.17	-0.698212	-0.0207336
2026.63	6.40869e-05	0.00445618
2027.11	-0.000427246	0.00782776
2027.57	-0.697815	-0.0207245
2028.03	8.54492e-05	0.00444977
2028.51	0.000164795	0.00783081
2028.97	-0.698273	-0.0207153
2029.43	-0.000430298	0.00445862
2029.91	4.57764e-05	0.00782776
2030.37	-0.697601	-0.0207245
2030.83	-0.000396729	0.00445984
2031.31	-0.000463867	0.00783081
2031.77	-0.69751	-0.0207245
2032.23	0.000506592	0.00445282
2032.71	-0.00067749	0.00783386
2033.17	-0.697723	-0.0207153
2033.63	0.000787354	0.00445496
2034.11	0.000268555	0.00782166
2034.57	-0.69809	-0.0207184
2035.03	-0.000439453	0.00446411
2035.51	-1.52588e-05	0.0078186
2035.97	-0.6987	-0.0207123
2036.43	0.000735474	0.00445251
2036.91	0.000247192	0.00783691
2037.37	-0.698212	-0.0207275
2037.83	3.96729e-05	0.00446167
2038.31	-0.000567627	0.00783691
2038.77	-0.698547	-0.0207275
2039.23	0.000741577	0.00445496
2039.71	-0.000161743	0.00784302
2040.17	-0.698608	-0.0207214
2040.63	0.000115967	0.00446045
2041.11	-9.46045e-05	0.00783386
2041.57	-0.698608	-0.0207275
2042.03	-2.44141e-05	0.00446289
2042.51	0.000231934	0.00784302
2042.97	-0.6987	-0.0207214
2043.43	0.000839233	0.00445862
2043.91	-0.000186157	0.00782776
2044.37	-0.698792	-0.0207245
2044.83	0.000778198	0.00445892
2045.31	-0.000460815	0.00783081
2045.77	-0.698669	-0.0207275
2046.23	0.000622559	0.00446289
2046.71	-0.000640869	0.00783691
2047.17	-0.69812	-0.0207123
2047.63	0.00038147	0.00446289
2048.11	-0.000628662	0.00783691
2048.57	-0.69754	-0.0207245
2049.03	0.000106812	0.00446838
2049.51	-0.000192261	0.00783691
2049.97	-0.697571	-0.0207214
2050.43	-0.000436401	0.00447296
2050.91	-7.93457e-05	0.00783691
2051.37	-0.69809	-0.0207184
2051.83	0.000860596	0.00446472
2052.31	0.000393677	0.00782776
2052.77	-0.698761	-0.0207184
2053.23	0	0.00447266
2053.71	-6.10352e-06	0.00783691
2054.17	-0.698059	-0.0207184
2054.63	-0.000308228	0.00447144
2055.11	0.000570679	0.0078186
2055.57	-0.697815	-0.0207092
2056.03	-0.000326538	0.00447357
2056.51	-0.000378418	0.00782471
2056.97	-0.6987	-0.0207153
2057.43	0.000765991	0.00446564
2057.91	0.000442505	0.00782776
2058.37	-0.69751	-0.0207092
2058.83	-0.000393677	0.00447205
2059.31	-0.000564575	0.00782776
2059.77	-0.69751	-0.0207092
2060.23	-0.00015564	0.00447021
2060.71	-0.000430298	0.00783081
2061.17	-0.698669	-0.0207001
2061.63	-0.000338745	0.0044754
2062.11	0.000488281	0.00782166
2062.57	-0.69751	-0.0207031
2063.03	-0.000473022	0.00447815
2063.51	-0.000595093	0.00782471
2063.97	-0.698029	-0.0207001
2064.43	0.000744629	0.0044693
2064.91	0.000598145	0.00781555
2065.37	-0.698578	-0.020697
2065.83	0.00071106	0.00447235
2066.31	-0.000463867	0.0078186
2066.77	-0.697906	-0.0207123
2067.23	-0.00038147	0.00447754
2067.71	-0.000668335	0.00782166
2068.17	-0.698029	-0.0207123
2068.63	-0.000323486	0.00448181
2069.11	0.000100708	0.0078186
2069.57	-0.698059	-0.0207031
2070.03	0.000686646	0.00447571
2070.51	0.000549316	0.00780945
2070.97	-0.697662	-0.0207001
2071.43	-0.00015564	0.00447968
2071.91	-0.000582886	0.0078125
2072.37	-0.697571	-0.0207062
2072.83	-0.000241089	0.00448364
2073.31	-0.00020752	0.00782471
2073.77	-0.6987	-0.0206848
2074.23	9.15527e-06	0.00447906
2074.71	-0.000280762	0.00785522
2075.17	-0.698669	-0.020755
2075.63	-0.000134277	0.00448059
2076.11	-0.000143433	0.00785828
2076.57	-0.697845	-0.020752
2077.03	0.000750732	0.00447998
2077.51	0.000527954	0.00784912
2077.97	-0.69873	-0.0207489
2078.43	0.000747681	0.00448059
2078.91	0.000418091	0.00785217
2079.37	-0.697449	-0.0207581
2079.83	-0.000411987	0.00448944
2080.31	0.000439453	0.00783691
2080.77	-0.698212	-0.0207581
2081.23	0.000756836	0.00448029
2081.71	0.000418091	0.00783997
2082.17	-0.698669	-0.0207428
2082.63	0.000534058	0.00448151
2083.11	-0.000299072	0.00784912
2083.57	-0.697479	-0.020755
2084.03	0.00083313	0.00448395
2084.51	0.000570679	0.00783691
2084.97	-0.69751	-0.0207489
2085.43	1.83105e-05	0.00448914
2085.91	0.000579834	0.00783691
2086.37	-0.698303	-0.0207428
2086.83	0.000750732	0.00448395
2087.31	0.000582886	0.00783081
2087.77	-0.698883	-0.0207397
2088.23	0.000756836	0.00448517
2088.71	-0.000198364	0.00783081
2089.17	-0.697723	-0.0207489
2089.63	0.000656128	0.00448456
2090.11	0.000488281	0.00783691
2090.57	-0.697906	-0.0207458
2091.03	0.000878906	0.0044873
2091.51	-0.000717163	0.00783691
2091.97	-0.698029	-0.0207428
2092.43	0.00071106	0.00448975
2092.91	-0.000411987	0.00782776
2093.37	-0.69873	-0.0207275
2093.83	-0.000195313	0.0044931
2094.31	-0.00022583	0.00783386
2094.77	-0.698792	-0.0207245
2095.23	-0.000192261	0.00449585
2095.71	0.000576782	0.00782471
2096.17	-0.698547	-0.0207184
2096.63	0.000717163	0.00448822
2097.11	-0.000631714	0.00782776
2097.57	-0.698059	-0.0207306
2098.03	-0.000308228	0.00449829
2098.51	-0.000228882	0.00783691
2098.97	-0.697571	-0.0207306
2099.43	-0.000357056	0.0044989
2099.91	0.000335693	0.00782776
2100.37	-0.698547	-0.0207306
2100.83	0.000125122	0.00449402
2101.31	-0.000415039	0.00782776
2101.77	-0.697632	-0.0207275
2102.23	0.000531006	0.00449158
2102.71	-7.32422e-05	0.0078186
2103.17	-0.698242	-0.0207123
2103.63	0.00050354	0.0044986
2104.11	0.000186157	0.00782166
2104.57	-0.697784	-0.0207367
2105.03	0.000796509	0.00449463
2105.51	-0.000640869	0.00782471
2105.97	-0.698425	-0.0207275
2106.43	0.000115967	0.00450378
2106.91	0.000234985	0.0078186
2107.37	-0.697968	-0.0207336
2107.83	0.000787354	0.00450043
2108.31	0.000311279	0.00783691
2108.77	-0.698273	-0.0207245
2109.23	0.000680542	0.00449524
2109.71	-0.000604248	0.00783081
2110.17	-0.697968	-0.0207428
2110.63	1.2207e-05	0.00450073
2111.11	0.000567627	0.00782776
2111.57	-0.698181	-0.0207153
2112.03	0.000137329	0.00450348
2112.51	-0.000494385	0.00782776
2112.97	-0.697601	-0.0207245
2113.43	-0.000265503	0.00450623
2113.91	-0.000720215	0.00782471
2114.37	-0.698669	-0.0207184
2114.83	-0.000326538	0.00451019
2115.31	0.00062561	0.00782471
2115.77	-0.697449	-0.0207367
2116.23	0.000744629	0.00450256
2116.71	0.000164795	0.0078125
2117.17	-0.698639	-0.0207275
2117.63	-0.000439453	0.00451111
2118.11	-0.000265503	0.0078186
2118.57	-0.697662	-0.0207367
2119.03	0.000595093	0.00450531
2119.51	-0.000631714	0.00782471
2119.97	-0.697784	-0.0207336
2120.43	0.000164795	0.00450623
2120.91	-0.000592041	0.00782166
2121.37	-0.698822	-0.0207245
2121.83	-0.000427246	0.00451385
2122.31	-0.000137329	0.0078125
2122.77	-0.698181	-0.0207184
2123.23	0.000839233	0.00450867
2123.71	0.000274658	0.0078186
2124.17	-0.698425	-0.0207184
2124.63	0.00050354	0.00451111
2125.11	0.000500488	0.00781555
2125.57	-0.698547	-0.0207245
2126.03	-0.000442505	0.00451599
2126.51	-0.000610352	0.00782166
2126.97	-0.698242	-0.0207367
2127.43	-0.000241089	0.00451569
2127.91	0.000494385	0.00781555
2128.37	-0.69873	-0.0207214
2128.83	-0.000363159	0.0045166
2129.31	0.000180054	0.00782776
2129.77	-0.697571	-0.0207275
2130.23	0.000567627	0.00451202
2130.71	-0.000119019	0.0078186
2131.17	-0.69812	-0.0207275
2131.63	-0.000283813	0.00451538
2132.11	0.000485229	0.00781555
2132.57	-0.697662	-0.0207214
2133.03	0.000527954	0.00451202
2133.51	-0.000631714	0.00782166
2133.97	-0.697449	-0.0207214
2134.43	0.000552368	0.00451385
2134.91	-0.000613403	0.0078186
2135.37	-0.697754	-0.0207153
2135.83	-9.76562e-05	0.00452148
2136.31	-0.000482178	0.0078186
2136.77	-0.697693	-0.0207275
2137.23	0.00071106	0.00451294
2137.71	-0.000518799	0.0078186
2138.17	-0.697998	-0.0207123
2138.63	0.000817871	0.00451538
2139.11	-0.000595093	0.0078125
2139.57	-0.698486	-0.0207214
2140.03	-0.000427246	0.00452484
2140.51	0.000524902	0.0078125
2140.97	-0.6987	-0.0207092
2141.43	0.000421143	0.00452057
2141.91	8.23975e-05	0.0078064
2142.37	-0.697906	-0.0207275
2142.83	-3.05176e-05	0.00452271
2143.31	0.000543213	0.0078125
2143.77	-0.6987	-0.0207031
2144.23	0.000463867	0.00452026
2144.71	0.000131226	0.00780334
2145.17	-0.698547	-0.0207031
2145.63	0.000198364	0.00452179
2146.11	-0.00062561	0.0078064
2146.57	-0.698059	-0.0207031
2147.03	-0.000497437	0.00452393
2147.51	0.000308228	0.00780029
2147.97	-0.698639	-0.0207031
2148.43	0.000320435	0.00452209
2148.91	0.000500488	0.00780334
2149.37	-0.698395	-0.0207062
2149.83	0.000790405	0.00452087
2150.31	0.000476074	0.0078064
2150.77	-0.697357	-0.0207001
2151.23	0.000753784	0.00452271
2151.71	0.000411987	0.00780029
2152.17	-0.697937	-0.020697
2152.63	0.000308228	0.00452637
2153.11	-0.000305176	0.00780029
2153.57	-0.697571	-0.0207001
2154.03	0.000714111	0.00452423
2154.51	-0.000537109	0.0078064
2154.97	-0.698303	-0.020694
2155.43	-0.000128174	0.00453217
2155.91	-0.00012207	0.00780945
2156.37	-0.69873	-0.0207001
2156.83	0.000201416	0.00452515
2157.31	-0.000244141	0.0078064
2157.77	-0.6987	-0.020694
2158.23	0.000561523	0.00452515
2158.71	-0.000396729	0.00779724
2159.17	-0.697571	-0.0207092
2159.63	-0.000170898	0.00453186
2160.11	-0.000576782	0.00780334
2160.57	-0.698212	-0.0206879
2161.03	-0.000274658	0.00453491
2161.51	-0.000723267	0.00779114
2161.97	-0.698334	-0.0206909
2162.43	0.000805664	0.00452545
2162.91	0.000592041	0.00780029
2163.37	-0.698761	-0.0206879
2163.83	-0.000430298	0.00453583
2164.31	-0.000167847	0.00778503
2164.77	-0.697906	-0.0207001
2165.23	-0.000445557	0.00453583
2165.71	0.00027771	0.00780029
2166.17	-0.697998	-0.0207001
2166.63	0.000488281	0.00453003
2167.11	-0.000253296	0.00778809
2167.57	-0.698334	-0.020694
2168.03	5.18799e-05	0.00453369
2168.51	-0.000134277	0.00778809
2168.97	-0.697937	-0.020694
2169.43	-7.32422e-05	0.0045343
2169.91	0.000628662	0.00779114
2170.37	-0.697571	-0.0206879
2170.83	-0.000488281	0.00453857
2171.31	-0.00010376	0.00779724
2171.77	-0.697571	-0.020697
2172.23	0.00055542	0.00453003
2172.71	0.000158691	0.00779419
2173.17	-0.697693	-0.0206848
2173.63	0.000753784	0.00453156
2174.11	-0.000622559	0.00779114
2174.57	-0.697815	-0.0206757
2175.03	0.000128174	0.00453644
2175.51	0.000524902	0.00778503
2175.97	-0.698608	-0.0206726
2176.43	0.00043335	0.00453247
2176.91	0.000509644	0.00777283
2177.37	-0.697662	-0.0206787
2177.83	-0.000378418	0.00454254
2178.31	2.13623e-05	0.00777893
2178.77	-0.698059	-0.0206848
2179.23	0.000158691	0.00453247
2179.71	0.000570679	0.00777588
2180.17	-0.697815	-0.0206726
2180.63	-0.00027771	0.00454285
2181.11	-0.000509644	0.00777893
2181.57	-0.697998	-0.0206757
2182.03	-0.000320435	0.00454529
2182.51	-0.000427246	0.00778809
2182.97	-0.697601	-0.0206818
2183.43	0.000653076	0.00453949
2183.91	0.000436401	0.00778503
2184.37	-0.69754	-0.0207123
2184.83	0.000177002	0.00454315
2185.31	-0.000430298	0.00780029
2185.77	-0.6987	-0.020697
2186.23	0.000723267	0.00453857
2186.71	0.00057373	0.00778809
2187.17	-0.697571	-0.0207092
2187.63	-7.62939e-05	0.00454742
2188.11	0.000247192	0.00779419
2188.57	-0.697906	-0.0207062
2189.03	0.000305176	0.0045401
2189.51	0.000524902	0.00777588
2189.97	-0.6987	-0.020697
2190.43	0.000143433	0.00454498
2190.91	-0.00012207	0.00779419
2191.37	-0.698792	-0.0207031
2191.83	0.000256348	0.0045459
2192.31	-0.000613403	0.00778198
2192.77	-0.697571	-0.0207184
2193.23	-0.000411987	0.00454742
2193.71	-0.000668335	0.00778198
2194.17	-0.697662	-0.0207062
2194.63	0.000808716	0.00454132
2195.11	0.000650024	0.00777893
2195.57	-0.69873	-0.0207062
2196.03	0.000546265	0.00454346
2196.51	2.44141e-05	0.00777283
2196.97	-0.698242	-0.0207123
2197.43	0.000692749	0.00454315
2197.91	0.000241089	0.00777283
2198.37	-0.697784	-0.0207153
2198.83	6.10352e-06	0.00454895
2199.31	-0.000650024	0.00778198
2199.77	-0.69754	-0.0207062
2200.23	-0.000369263	0.00455536
2200.71	-0.000549316	0.00778198
2201.17	-0.698639	-0.0207031
2201.63	0.000674438	0.00454773
2202.11	-3.35693e-05	0.00779724
2202.57	-0.697601	-0.0207275
2203.03	0.000714111	0.00455292
2203.51	0.000164795	0.00779419
2203.97	-0.698456	-0.0207275
2204.43	9.76562e-05	0.0045517
2204.91	-0.000634766	0.00779419
2205.37	-0.69812	-0.0207245
2205.83	-0.000149536	0.00455719
2206.31	0.000546265	0.00778503
2206.77	-0.698822	-0.0207214
2207.23	0.000521851	0.00455261
2207.71	0.000408936	0.00778198
2208.17	-0.6987	-0.0207214
2208.63	0.00027771	0.00455566
2209.11	0.000531006	0.00778198
2209.57	-0.698669	-0.0207214
2210.03	-0.000427246	0.00455597
2210.51	-0.000695801	0.00777893
2210.97	-0.698639	-0.0207214
2211.43	-9.15527e-05	0.00455414
2211.91	-0.000115967	0.00777893
2212.37	-0.698303	-0.0207153
2212.83	-0.000427246	0.00455994
2213.31	0.000134277	0.00777893
2213.77	-0.697693	-0.0207275
2214.23	0.0003479	0.00455597
2214.71	0.000253296	0.00777283
2215.17	-0.697876	-0.0207214
2215.63	0.000460815	0.00455963
2216.11	0.000479126	0.00777893
2216.57	-0.697876	-0.0207214
2217.03	-0.00032959	0.00456451
2217.51	3.96729e-05	0.00778503
2217.97	-0.69873	-0.0207153
2218.43	-0.000436401	0.00456726
2218.91	5.49316e-05	0.00777283
2219.37	-0.697693	-0.0207306
2219.83	-0.000250244	0.00456787
2220.31	0.000521851	0.00777893
2220.77	-0.697968	-0.0207184
2221.23	-0.000445557	0.00456757
2221.71	-0.00038147	0.00778503
2222.17	-0.698181	-0.0207092
2222.63	0.000698853	0.00455994
2223.11	0.000228882	0.00777283
2223.57	-0.698486	-0.0207062
2224.03	0.000732422	0.00455811
2224.51	0.000592041	0.00778198
2224.97	-0.698792	-0.0207153
2225.43	0.000622559	0.00456573
2225.91	-0.000579834	0.00778503
2226.37	-0.697723	-0.0207245
2226.83	0.000827026	0.00456024
2227.31	-0.000167847	0.00777283
2227.77	-0.697968	-0.0207306
2228.23	0.000411987	0.00456665
2228.71	-9.46045e-05	0.00779114
2229.17	-0.697876	-0.0207184
2229.63	-0.000341797	0.00456604
2230.11	5.49316e-05	0.00776978
2230.57	-0.698029	-0.0207306
2231.03	0.000167847	0.00456726
2231.52	-0.000643921	0.00777893
2231.98	-0.697876	-0.0207184
2232.44	0.000357056	0.00456421
2232.92	0.000668335	0.00777893
2233.38	-0.698486	-0.0207275
2233.84	-0.000213623	0.00457428
2234.32	-0.000280762	0.00777283
2234.78	-0.697662	-0.0207306
2235.24	2.13623e-05	0.00457153
2235.72	-0.000457764	0.00777283
2236.18	-0.698639	-0.0207123
2236.64	0.000537109	0.00456482
2237.12	0.000439453	0.00777588
2237.58	-0.698639	-0.0207153
2238.04	-0.000219727	0.00457367
2238.52	-0.000631714	0.00776978
2238.98	-0.697632	-0.0207245
2239.44	-0.000390625	0.00457306
2239.92	7.62939e-05	0.00776978
2240.38	-0.698181	-0.0207092
2240.84	-0.000527954	0.00457458
2241.32	0.000146484	0.00776367
2241.78	-0.698792	-0.0207092
2242.24	0.000848389	0.00457001
2242.72	0.000540161	0.00776978
2243.18	-0.698334	-0.0207184
2243.64	0.000640869	0.00457001
2244.12	-1.2207e-05	0.00777893
2244.58	-0.698364	-0.0207245
2245.04	0.000180054	0.00457947
2245.52	-0.00055542	0.00778503
2245.98	-0.69873	-0.0207306
2246.44	-0.000430298	0.00458221
2246.92	-0.000631714	0.00777893
2247.38	-0.697571	-0.0207397
2247.84	-0.000396729	0.0045813
2248.32	-0.000552368	0.00776978
2248.78	-0.697632	-0.0207336
2249.24	0.000183105	0.00457184
2249.72	3.05176e-05	0.00776367
2250.18	-0.697571	-0.0207397
2250.64	0.000558472	0.00457336
2251.12	0.000482178	0.00777588
2251.58	-0.698639	-0.0207275
2252.04	-0.000299072	0.00458344
2252.52	-0.000637817	0.00777893
2252.98	-0.698669	-0.0207367
2253.44	-0.000296021	0.00458313
2253.92	-0.00020752	0.00778198
2254.38	-0.698608	-0.0207306
2254.84	0.000463867	0.0045752
2255.32	-8.54492e-05	0.00776978
2255.78	-0.697571	-0.0207367
2256.24	0.000518799	0.00457977
2256.72	-0.000491333	0.00776062
2257.18	-0.698151	-0.0207428
2257.64	0.000439453	0.0045816
2258.12	-0.000262451	0.00778198
2258.58	-0.69751	-0.0207397
2259.04	0.000588989	0.00457855
2259.52	0.000238037	0.00776367
2259.98	-0.698151	-0.0207428
2260.44	0.000546265	0.00457733
2260.92	-0.000604248	0.00777283
2261.38	-0.69751	-0.0207428
2261.84	-0.000350952	0.00458771
2262.32	0.000109863	0.00777588
2262.78	-0.6987	-0.0207367
2263.24	0.000732422	0.00457886
2263.72	0.000543213	0.00776672
2264.18	-0.697937	-0.0207367
2264.64	0.000823975	0.00457886
2265.12	-0.000415039	0.00777588
2265.58	-0.698669	-0.0207306
2266.04	-0.00050354	0.00458679
2266.52	-0.000643921	0.00776978
2266.98	-0.69809	-0.0207397
2267.44	9.15527e-06	0.00458954
2267.92	-0.00032959	0.00776978
2268.38	-0.697479	-0.0207367
2268.84	0.000604248	0.00458527
2269.32	-0.000305176	0.00777283
2269.78	-0.697876	-0.0207306
2270.24	-0.000296021	0.00458984
2270.72	3.05176e-06	0.00776367
2271.18	-0.698669	-0.0207306
2271.64	0.000772095	0.00458282
2272.12	-0.000393677	0.00776978
2272.58	-0.698364	-0.0207336
2273.04	0.000805664	0.00458557
2273.52	0.000387573	0.00776672
2273.98	-0.698761	-0.0207245
2274.44	0.000527954	0.00458344
2274.92	0.000524902	0.00776672
2275.38	-0.697601	-0.0207489
2275.84	0.000259399	0.00458771
2276.32	0.000177002	0.00777893
2276.78	-0.698547	-0.0207306
2277.24	-4.88281e-05	0.00458984
2277.72	7.32422e-05	0.00777283
2278.18	-0.697937	-0.0207458
2278.64	0.000726318	0.00458466
2279.12	0.000463867	0.00776672
2279.58	-0.698578	-0.0207336
2280.04	0.000830078	0.00458313
2280.52	-0.000482178	0.00776062
2280.98	-0.697479	-0.0207458
2281.44	0.000463867	0.00458313
2281.92	-0.000613403	0.00777283
2282.38	-0.698578	-0.0207306
2282.84	-0.000427246	0.00459442
2283.32	-0.000445557	0.00776062
2283.78	-0.698517	-0.0207428
2284.24	-0.000445557	0.00459045
2284.72	0.000204468	0.00775757
2285.18	-0.697937	-0.0207336
2285.64	-0.00043335	0.00459534
2286.12	0.000259399	0.00775757
2286.58	-0.698242	-0.0207428
2287.04	0.000735474	0.00458588
2287.52	0.000195313	0.00775452
2287.98	-0.69873	-0.0207306
2288.44	0.000857544	0.00458832
2288.92	0.000558472	0.00777283
2289.38	-0.697968	-0.0207336
2289.84	0.000283813	0.00458832
2290.32	-0.000628662	0.00776062
2290.78	-0.698425	-0.0207336
2291.24	0.000100708	0.00459625
2291.72	-0.000650024	0.00776367
2292.18	-0.698517	-0.0207428
2292.64	0.000756836	0.00459015
2293.12	7.62939e-05	0.00776367
2293.58	-0.69873	-0.0207275
2294.04	0.000714111	0.00459045
2294.52	0.000546265	0.00775757
2294.98	-0.697662	-0.0207428
2295.44	-0.000439453	0.00459869
2295.92	-0.00071106	0.00775452
2296.38	-0.697937	-0.0207306
2296.84	-0.000320435	0.00460144
2297.32	0.000460815	0.00775452
2297.78	-0.698151	-0.0207306
2298.24	0.0006073	0.00459015
2298.72	-0.000152588	0.00774536
2299.14	6.10352e-06	0.00285522