File: Edgar/20240605/20240605/electrodeposition_pulsed_potential_20240605_B/pulses_1000_to_2000.txt
Time (s)	WE(1).Potential (V)	WE(1).Current (A)
890.192	-0.697357	-0.0224243
890.652	-0.000302124	0.00230835
891.132	-0.000283813	0.00835266
891.592	-0.698578	-0.0213531
892.052	0.000457764	0.00280304
892.532	-0.000210571	0.00856628
892.992	-0.697937	-0.0212616
893.452	-0.000271606	0.00291168
893.932	-0.000558472	0.00863037
894.392	-0.698761	-0.0212219
894.852	0.000317383	0.00295441
895.332	-0.00045166	0.00866699
895.792	-0.697693	-0.0212067
896.252	0.000820923	0.00298553
896.732	-0.000375366	0.00869751
897.192	-0.6987	-0.0211792
897.652	0.000765991	0.00300995
898.132	-0.00022583	0.00869751
898.592	-0.698029	-0.0211792
899.052	-0.000289917	0.0030368
899.532	0.000476074	0.00871277
899.992	-0.697693	-0.0211639
900.452	0.000271606	0.00304626
900.932	-3.05176e-05	0.00872803
901.392	-0.697968	-0.0211517
901.852	-0.000363159	0.00306793
902.332	6.10352e-05	0.00872803
902.792	-0.698578	-0.0211578
903.252	0.000570679	0.00307373
903.732	-0.00065918	0.00874023
904.192	-0.698669	-0.0211487
904.652	0.000643921	0.00308258
905.132	0.000582886	0.00874939
905.592	-0.69751	-0.0211517
906.052	0.000350952	0.00310059
906.532	-0.000506592	0.00875854
906.992	-0.697571	-0.0211487
907.452	0.000759888	0.00310364
907.932	0.000131226	0.00876465
908.392	-0.69754	-0.0211426
908.852	0.000561523	0.00311249
909.332	0.000491333	0.00875549
909.792	-0.698822	-0.0211395
910.252	-0.000311279	0.00312592
910.732	-0.000115967	0.00875549
911.192	-0.697662	-0.0211517
911.652	0.000534058	0.00313171
912.132	-0.000460815	0.00876465
912.592	-0.697937	-0.0211487
913.052	1.83105e-05	0.00313843
913.532	-0.00043335	0.00878296
913.992	-0.698303	-0.0211365
914.452	0.000473022	0.00314606
914.932	0	0.0087677
915.392	-0.69754	-0.0211395
915.852	-0.000286865	0.0031604
916.332	-0.00071106	0.0087738
916.792	-0.697601	-0.0211365
917.252	0.000814819	0.00315887
917.732	0.000384521	0.00877075
918.192	-0.697723	-0.0211334
918.652	0.000784302	0.00316559
919.132	6.10352e-05	0.00877075
919.592	-0.697754	-0.0211395
920.052	-0.000146484	0.00317688
920.532	-0.000558472	0.00878601
920.992	-0.697571	-0.0211273
921.452	-0.00010376	0.00318237
921.932	0.000283813	0.00877686
922.392	-0.6987	-0.0211212
922.852	-0.000262451	0.00318878
923.332	0.000292969	0.00877686
923.792	-0.698273	-0.0211243
924.252	0.00017395	0.00319092
924.732	0.000436401	0.00876465
925.192	-0.698578	-0.0211212
925.652	-0.00015564	0.00319397
926.132	0.000366211	0.00877991
926.592	-0.698425	-0.0211029
927.052	-0.000109863	0.00319824
927.532	-0.000543213	0.00877075
927.992	-0.697723	-0.0211212
928.452	-0.000170898	0.00320953
928.932	0.000479126	0.00877075
929.392	-0.698242	-0.021106
929.852	1.52588e-05	0.00321014
930.332	-0.000650024	0.0087738
930.792	-0.697693	-0.021106
931.252	0.000463867	0.0032132
931.732	0.000161743	0.00876465
932.192	-0.697998	-0.0211212
932.652	0.000619507	0.00321655
933.132	0.000534058	0.00877075
933.592	-0.698334	-0.0210999
934.052	-0.000125122	0.00322754
934.532	-0.000161743	0.0087677
934.992	-0.698212	-0.021109
935.452	0.000662231	0.00322632
935.932	0.000344849	0.0087677
936.392	-0.698761	-0.0211121
936.852	-0.000250244	0.00323975
937.332	0.000515747	0.0087738
937.792	-0.697784	-0.0211182
938.252	-0.000192261	0.00324371
938.732	0.000390625	0.0087738
939.192	-0.697601	-0.0211151
939.652	-0.000372314	0.00324829
940.132	0.000231934	0.0087738
940.592	-0.697754	-0.0211182
941.052	1.2207e-05	0.0032489
941.532	0.000234985	0.00877075
941.992	-0.697906	-0.0211182
942.452	0.000613403	0.00325073
942.932	0.00022583	0.0087738
943.392	-0.697723	-0.0211212
943.852	0.000302124	0.00325775
944.332	-0.000393677	0.00877075
944.792	-0.697632	-0.0211182
945.252	0.000534058	0.0032605
945.732	-0.000326538	0.00876465
946.192	-0.698578	-0.021106
946.652	0.000286865	0.00326752
947.132	-1.2207e-05	0.00875854
947.592	-0.698151	-0.021106
948.052	0.000509644	0.00327179
948.532	-0.000531006	0.00875549
948.992	-0.698547	-0.0211029
949.452	0.000765991	0.00326935
949.932	0.000531006	0.00875854
950.392	-0.69754	-0.021109
950.852	-0.000183105	0.00327759
951.332	0.000500488	0.00875549
951.792	-0.697662	-0.0210999
952.252	-0.000244141	0.00328125
952.732	0.00043335	0.00874634
953.192	-0.69754	-0.0211029
953.652	0.000817871	0.00328033
954.132	0.000476074	0.00875244
954.592	-0.697937	-0.0210999
955.052	-0.00020752	0.00329285
955.532	-0.000131226	0.00875854
955.992	-0.698181	-0.02109375
956.452	0.000686646	0.00328644
956.932	-0.000427246	0.00874023
957.392	-0.698334	-0.02109375
957.852	0.000366211	0.00328979
958.332	0.000100708	0.00873718
958.792	-0.698486	-0.0210846
959.252	0.000167847	0.00329956
959.732	-0.000640869	0.00874634
960.192	-0.697571	-0.0210876
960.652	0.000656128	0.00329681
961.132	-0.000601196	0.00874329
961.592	-0.69873	-0.0210815
962.052	0.000704956	0.00330017
962.532	-0.000628662	0.00874023
962.992	-0.697449	-0.0210815
963.452	0.000466919	0.00330688
963.932	-0.000442505	0.00872803
964.392	-0.698578	-0.0210785
964.852	-0.000195313	0.00331604
965.332	0.000418091	0.00872803
965.792	-0.697571	-0.0210815
966.252	-0.000387573	0.00331726
966.732	-0.000378418	0.00871277
967.192	-0.698669	-0.0210632
967.652	-3.96729e-05	0.0033139
968.132	-0.000463867	0.00871582
968.592	-0.698547	-0.0210724
969.052	-0.000372314	0.00332153
969.532	-0.000643921	0.00872498
969.992	-0.697571	-0.0210754
970.452	0.000765991	0.00331879
970.932	0.000494385	0.00871582
971.392	-0.69873	-0.0210693
971.852	-0.000378418	0.0033313
972.332	-0.000332642	0.00872498
972.792	-0.697449	-0.0210754
973.252	0.000610352	0.00332611
973.732	-0.000137329	0.00871277
974.192	-0.697937	-0.0210663
974.652	0.000213623	0.00333679
975.132	0.000222778	0.00871887
975.592	-0.698608	-0.0210663
976.052	0.000268555	0.00333649
976.532	-0.000115967	0.00871277
976.992	-0.698151	-0.0210846
977.452	0.00085144	0.00333832
977.932	-0.000726318	0.00871582
978.392	-0.697784	-0.0210724
978.852	0.000512695	0.00334686
979.332	0.00020752	0.00871277
979.792	-0.697571	-0.0210968
980.252	7.93457e-05	0.00335052
980.732	0.000262451	0.00871277
981.192	-0.697815	-0.02109375
981.652	-0.000396729	0.00335419
982.132	0.000543213	0.00871277
982.592	-0.698486	-0.0210876
983.052	-0.000247192	0.00335724
983.532	0.000210571	0.00871887
983.992	-0.697601	-0.02109375
984.452	-9.46045e-05	0.00335999
984.932	0.000491333	0.00870972
985.392	-0.698456	-0.0210846
985.852	0.000778198	0.00335571
986.332	-0.000592041	0.00871277
986.792	-0.6987	-0.0210815
987.252	0.000326538	0.00336304
987.732	-0.000292969	0.00869446
988.192	-0.6987	-0.0210785
988.652	0.00050354	0.00336609
989.132	0.000149536	0.00871277
989.592	-0.698578	-0.0210785
990.052	-0.000314331	0.00337219
990.532	-0.000485229	0.00870972
990.992	-0.697601	-0.0210907
991.452	0.000164795	0.00337036
991.932	0.000271606	0.00868835
992.392	-0.69809	-0.0210785
992.852	9.15527e-05	0.00337433
993.332	0.000494385	0.00869446
993.792	-0.697449	-0.0210815
994.252	4.57764e-05	0.00337677
994.732	0.000167847	0.0086853
995.192	-0.698181	-0.0210693
995.652	0.000183105	0.00338013
996.132	0.000390625	0.0086853
996.592	-0.698181	-0.0210693
997.052	0.000357056	0.00338257
997.532	-0.000286865	0.0086853
997.992	-0.698639	-0.0210724
998.452	-0.000469971	0.00339203
998.932	-0.000558472	0.00868225
999.392	-0.69873	-0.0210724
999.852	0.000576782	0.00339264
1000.33	0.000341797	0.0086792
1000.79	-0.6987	-0.0210693
1001.25	-0.000415039	0.00339874
1001.73	-0.000653076	0.00868835
1002.19	-0.697845	-0.0210754
1002.65	-0.000357056	0.0034024
1003.13	-0.000653076	0.00868225
1003.59	-0.698608	-0.0210693
1004.05	-9.76562e-05	0.00340057
1004.53	-0.000509644	0.00868225
1004.99	-0.697693	-0.0210693
1005.45	0.000762939	0.00339813
1005.93	-0.000338745	0.0086792
1006.39	-0.697571	-0.0210815
1006.85	0.000592041	0.00340576
1007.33	0.000378418	0.0086792
1007.79	-0.698364	-0.0210724
1008.25	0.000762939	0.00340912
1008.73	0.000543213	0.00867615
1009.19	-0.698639	-0.0210693
1009.65	0.000540161	0.0034079
1010.13	0.000479126	0.00867004
1010.59	-0.698273	-0.0210724
1011.05	0.00083313	0.00341248
1011.53	-0.000549316	0.00868225
1011.99	-0.698364	-0.0210693
1012.45	0.000219727	0.00341888
1012.93	0.000100708	0.0086792
1013.39	-0.698792	-0.0210754
1013.85	0.000454712	0.0034201
1014.33	0.000247192	0.00867615
1014.79	-0.697693	-0.0210693
1015.25	0.000741577	0.00342377
1015.73	3.66211e-05	0.0086792
1016.19	-0.69751	-0.0210754
1016.65	0.00012207	0.0034314
1017.13	0.00012207	0.0086731
1017.59	-0.698212	-0.0210968
1018.05	0.000537109	0.00342346
1018.53	-0.00022583	0.00868225
1018.99	-0.69873	-0.021109
1019.45	-0.000463867	0.00343231
1019.93	-0.000125122	0.00869446
1020.39	-0.697845	-0.0211151
1020.85	0.000341797	0.00342896
1021.33	-0.000637817	0.00869141
1021.79	-0.69873	-0.021109
1022.25	7.62939e-05	0.00343689
1022.73	0.000534058	0.00868225
1023.19	-0.69754	-0.0211212
1023.65	1.52588e-05	0.00343719
1024.13	-0.000366211	0.00868835
1024.59	-0.697571	-0.0211151
1025.05	0.000421143	0.00343903
1025.53	-7.62939e-05	0.0086731
1025.99	-0.698639	-0.0211121
1026.45	0.000494385	0.00343964
1026.93	-0.00062561	0.00868225
1027.39	-0.698334	-0.021109
1027.85	-0.000396729	0.0034491
1028.33	-0.000146484	0.00867615
1028.79	-0.698029	-0.0211151
1029.25	-0.000421143	0.00345306
1029.73	-0.000143433	0.0086853
1030.19	-0.697876	-0.0211273
1030.65	-0.000390625	0.0034549
1031.13	-0.000485229	0.0086853
1031.59	-0.69873	-0.0211151
1032.05	1.52588e-05	0.00345978
1032.53	0.00010376	0.0086853
1032.99	-0.698456	-0.021109
1033.45	0.000286865	0.00346008
1033.93	0.000418091	0.00867004
1034.39	-0.697449	-0.0211151
1034.85	9.15527e-06	0.00346558
1035.33	0.000408936	0.00866394
1035.79	-0.69754	-0.0211151
1036.25	-0.000131226	0.00346436
1036.73	-0.000543213	0.00867615
1037.19	-0.698669	-0.0211151
1037.65	-0.000137329	0.00347168
1038.13	-0.000314331	0.0086792
1038.59	-0.6987	-0.0211273
1039.05	0.000378418	0.00347015
1039.53	0.000222778	0.00870056
1039.99	-0.697632	-0.0211578
1040.45	0.000527954	0.00347107
1040.93	0.000341797	0.0086853
1041.39	-0.697693	-0.0211517
1041.85	2.44141e-05	0.00347137
1042.33	-0.000192261	0.00869141
1042.79	-0.6987	-0.0211456
1043.25	0.00071106	0.00347076
1043.73	-0.000186157	0.00868835
1044.19	-0.697571	-0.0211456
1044.65	-0.000140381	0.00348053
1045.13	-0.000637817	0.0086853
1045.59	-0.697693	-0.0211639
1046.05	-0.000238037	0.00348206
1046.53	-5.79834e-05	0.00867004
1046.99	-0.69873	-0.0211456
1047.45	0.000234985	0.00348053
1047.93	-0.000372314	0.00867004
1048.39	-0.698639	-0.0211456
1048.85	0.000335693	0.00348267
1049.33	0.000552368	0.00867004
1049.79	-0.698639	-0.0211487
1050.25	-0.000265503	0.00348724
1050.73	-0.000283813	0.00867615
1051.19	-0.697601	-0.0211517
1051.65	-0.000253296	0.00349091
1052.13	0.000521851	0.00866394
1052.59	-0.69754	-0.0211456
1053.05	0.000570679	0.00349274
1053.53	-0.000543213	0.00867004
1053.99	-0.698578	-0.0211395
1054.45	-6.10352e-06	0.00349884
1054.93	-0.00022583	0.00865784
1055.39	-0.69873	-0.0211426
1055.85	0.000320435	0.00349945
1056.33	-0.000320435	0.00865479
1056.79	-0.697601	-0.0211456
1057.25	0.000354004	0.00349945
1057.73	-0.000579834	0.00865784
1058.19	-0.6987	-0.0211304
1058.65	-0.000265503	0.00350769
1059.13	-0.000598145	0.00866394
1059.59	-0.698273	-0.0211334
1060.05	0.000497437	0.0035025
1060.53	-0.000497437	0.00864868
1060.99	-0.698578	-0.0211304
1061.45	0.000549316	0.00350464
1061.93	0.000430298	0.00864868
1062.39	-0.697845	-0.0211395
1062.85	-0.000350952	0.00351593
1063.33	-1.83105e-05	0.00865479
1063.79	-0.698059	-0.0211273
1064.25	0.000485229	0.00351196
1064.73	-0.000222778	0.00865173
1065.19	-0.69812	-0.0211426
1065.65	0.0003479	0.00351532
1066.13	0.000292969	0.00864868
1066.59	-0.697479	-0.0211273
1067.05	6.10352e-05	0.00352051
1067.53	0.000494385	0.00864258
1067.99	-0.698669	-0.0211273
1068.45	0.000366211	0.00352081
1068.93	0.000238037	0.00864258
1069.39	-0.698425	-0.0211304
1069.85	-0.000366211	0.00353241
1070.33	0.00045166	0.00863342
1070.79	-0.698303	-0.0211243
1071.25	5.49316e-05	0.00353394
1071.73	0.000500488	0.00863647
1072.19	-0.697571	-0.0211304
1072.65	-0.000350952	0.00353638
1073.13	0.000213623	0.00863953
1073.59	-0.697876	-0.0211182
1074.05	0.000515747	0.0035318
1074.53	-0.000561523	0.00863342
1074.99	-0.698608	-0.0211121
1075.45	0.000164795	0.00353912
1075.93	0.000125122	0.00862427
1076.39	-0.69754	-0.0211212
1076.85	-0.000131226	0.00354309
1077.33	7.93457e-05	0.00861816
1077.79	-0.698486	-0.0211243
1078.25	0.000717163	0.00353882
1078.73	-0.00055542	0.00862732
1079.19	-0.698425	-0.0211151
1079.65	-3.66211e-05	0.00354523
1080.13	0.000357056	0.00862427
1080.59	-0.697632	-0.0211243
1081.05	-0.000344849	0.00355225
1081.53	2.13623e-05	0.00863647
1081.99	-0.698486	-0.0211212
1082.45	-3.66211e-05	0.00355042
1082.93	-0.000509644	0.00862427
1083.39	-0.698517	-0.0211151
1083.85	-0.000265503	0.00355682
1084.33	-0.00010376	0.00862122
1084.79	-0.698303	-0.0211273
1085.25	-0.000299072	0.00355988
1085.73	4.27246e-05	0.00862732
1086.19	-0.697601	-0.0211243
1086.65	0.000436401	0.00355652
1087.13	-0.000595093	0.00862427
1087.59	-0.697601	-0.0211151
1088.05	0.000784302	0.00356018
1088.53	0.000274658	0.00861511
1088.99	-0.697632	-0.0211212
1089.45	-0.000216675	0.00357025
1089.93	-0.000482178	0.00862427
1090.39	-0.698639	-0.021109
1090.85	0.000595093	0.00356323
1091.33	-0.000637817	0.00861206
1091.79	-0.697479	-0.0211182
1092.25	-0.000408936	0.00357574
1092.73	0.000552368	0.00861206
1093.19	-0.697571	-0.021109
1093.65	-0.000411987	0.00357574
1094.13	0.000137329	0.00859375
1094.59	-0.69754	-0.0211121
1095.05	0.00039978	0.00357361
1095.53	-0.000497437	0.0085968
1095.99	-0.697693	-0.0211029
1096.45	-0.00027771	0.00357941
1096.93	0.000140381	0.00861206
1097.39	-0.697388	-0.0211029
1097.85	8.8501e-05	0.00358093
1098.33	0.000488281	0.00859375
1098.79	-0.697876	-0.021106
1099.25	-0.00012207	0.0035849
1099.73	0.000500488	0.00860291
1100.19	-0.697906	-0.0211121
1100.65	0.000354004	0.00358002
1101.13	0.00050354	0.0085907
1101.59	-0.6987	-0.0211029
1102.05	0.000613403	0.00358124
1102.53	-8.54492e-05	0.0085907
1102.99	-0.698425	-0.021106
1103.45	0.000305176	0.003591
1103.93	0.000198364	0.00859985
1104.39	-0.697906	-0.0211029
1104.85	0.000613403	0.00358887
1105.33	-0.000650024	0.0085968
1105.79	-0.698181	-0.0210968
1106.25	-7.01904e-05	0.00360077
1106.73	0.000210571	0.00858765
1107.19	-0.697449	-0.021109
1107.65	0.000350952	0.0035965
1108.13	-0.000616455	0.00859375
1108.59	-0.698517	-0.0210968
1109.05	0.000561523	0.00360107
1109.53	0.000180054	0.00858765
1109.99	-0.698608	-0.021106
1110.45	0.000427246	0.00360687
1110.93	-0.000662231	0.0085907
1111.39	-0.698639	-0.021106
1111.85	0.000827026	0.00360596
1112.33	0.000152588	0.00859375
1112.79	-0.698547	-0.0211029
1113.25	0.000750732	0.00360901
1113.73	-0.000534058	0.00859375
1114.19	-0.698303	-0.021109
1114.65	0.000448608	0.00361023
1115.13	-7.32422e-05	0.0085907
1115.59	-0.697723	-0.0211121
1116.05	0.000613403	0.00361298
1116.53	-0.000650024	0.00858459
1116.99	-0.698792	-0.0210999
1117.45	4.88281e-05	0.00362091
1117.93	-0.000338745	0.00858154
1118.39	-0.698639	-0.0210968
1118.85	0.000210571	0.00362213
1119.33	-0.000601196	0.00858765
1119.79	-0.698273	-0.0210846
1120.25	0.000830078	0.00361877
1120.73	0.000460815	0.00857544
1121.19	-0.697998	-0.0210968
1121.65	0.00078125	0.00361938
1122.13	0.00010376	0.00856934
1122.59	-0.698029	-0.0210876
1123.05	0.000808716	0.00362305
1123.53	0.000170898	0.00856018
1123.99	-0.69751	-0.0210907
1124.45	-0.000259399	0.00363037
1124.93	-0.00050354	0.00856323
1125.39	-0.698761	-0.0210815
1125.85	6.10352e-05	0.00363464
1126.33	-3.05176e-06	0.00856934
1126.79	-0.698364	-0.0210785
1127.25	0.000326538	0.00363098
1127.73	1.2207e-05	0.00856323
1128.19	-0.697479	-0.0210815
1128.65	-5.49316e-05	0.00364136
1129.13	0.000494385	0.00856018
1129.59	-0.698639	-0.0210785
1130.05	0.000793457	0.00363708
1130.53	0.000454712	0.00856628
1130.99	-0.698669	-0.0210846
1131.45	0.000115967	0.00363861
1131.93	-0.000646973	0.00856018
1132.39	-0.698547	-0.0210846
1132.85	-1.2207e-05	0.00364807
1133.33	-0.000415039	0.00856628
1133.79	-0.69873	-0.0210785
1134.25	0.00045166	0.00364594
1134.73	-0.000372314	0.00855103
1135.19	-0.698761	-0.0210724
1135.65	-1.2207e-05	0.00365143
1136.13	-0.000314331	0.00855408
1136.59	-0.698547	-0.0210754
1137.05	-0.000247192	0.00365631
1137.53	-0.000671387	0.00854797
1137.99	-0.697998	-0.0210754
1138.45	-9.15527e-05	0.00365692
1138.93	-0.000149536	0.00853577
1139.39	-0.698639	-0.0210663
1139.85	-0.000396729	0.0036618
1140.33	0.000186157	0.00854797
1140.79	-0.697632	-0.0210846
1141.25	-0.00050354	0.00366272
1141.73	-0.000701904	0.00855408
1142.19	-0.698639	-0.0210724
1142.65	0.00027771	0.00365784
1143.13	0.000476074	0.00854187
1143.59	-0.698456	-0.0210754
1144.05	0.000286865	0.00366791
1144.53	-0.000418091	0.00854797
1144.99	-0.698425	-0.0210754
1145.45	0.000494385	0.00366791
1145.93	-0.000210571	0.00854492
1146.39	-0.698059	-0.0210785
1146.85	-0.000198364	0.00367157
1147.33	-5.49316e-05	0.00855713
1147.79	-0.698181	-0.0210754
1148.25	-0.000140381	0.00367645
1148.73	-7.62939e-05	0.00855103
1149.19	-0.697754	-0.02109375
1149.65	-0.000210571	0.00368073
1150.13	-0.000610352	0.00856018
1150.59	-0.698273	-0.021109
1151.05	0.000140381	0.00367767
1151.53	-0.000723267	0.00855713
1151.99	-0.698334	-0.0211121
1152.45	0.000393677	0.00367981
1152.93	-0.000579834	0.00856018
1153.39	-0.697479	-0.0211121
1153.85	-0.000384521	0.00368469
1154.33	-0.000640869	0.00855408
1154.79	-0.698486	-0.0211029
1155.25	-0.00020752	0.00368469
1155.73	-0.000140381	0.00854797
1156.19	-0.697968	-0.0211029
1156.65	0.000817871	0.00368225
1157.13	-9.76562e-05	0.00855408
1157.59	-0.698303	-0.021106
1158.05	-0.000387573	0.0036908
1158.53	-0.0006073	0.00855408
1158.99	-0.697754	-0.0211212
1159.45	0.000189209	0.00369019
1159.93	0.000262451	0.00854187
1160.39	-0.697723	-0.0211151
1160.85	0.000723267	0.00369049
1161.33	0.000244141	0.00855408
1161.79	-0.698364	-0.0211029
1162.25	-9.15527e-06	0.00370056
1162.73	-0.000665283	0.00855103
1163.19	-0.69754	-0.021109
1163.65	-0.000338745	0.00369781
1164.13	-3.05176e-05	0.00852966
1164.59	-0.697571	-0.0211121
1165.05	0.000112915	0.00370056
1165.53	-0.000500488	0.00853882
1165.99	-0.698761	-0.0210999
1166.45	-0.000326538	0.003703
1166.93	0.000537109	0.00853271
1167.39	-0.698517	-0.0210907
1167.85	-0.000140381	0.00370728
1168.33	0.000363159	0.00852661
1168.79	-0.69754	-0.0210999
1169.25	0.000723267	0.00370239
1169.73	-0.000686646	0.00854187
1170.19	-0.698486	-0.0210968
1170.65	0.000192261	0.00371033
1171.13	0.000119019	0.00852356
1171.59	-0.698639	-0.0210968
1172.05	0.000613403	0.00370697
1172.53	-0.00039978	0.00852661
1172.99	-0.697571	-0.0210999
1173.45	0.000378418	0.00370911
1173.93	-0.000509644	0.00853271
1174.39	-0.698181	-0.02109375
1174.85	0.000579834	0.00371094
1175.33	-0.000665283	0.00852661
1175.79	-0.698761	-0.0210876
1176.25	0.000137329	0.00371918
1176.73	-0.00043335	0.00852966
1177.19	-0.697449	-0.0210968
1177.65	0.000189209	0.00372375
1178.13	-0.00050354	0.00853271
1178.59	-0.69751	-0.0210968
1179.05	-0.00012207	0.00372711
1179.53	-0.000302124	0.00852966
1179.99	-0.69809	-0.0210907
1180.45	0.000726318	0.0037204
1180.93	-0.000714111	0.00851746
1181.39	-0.697601	-0.0211304
1181.85	0.000775146	0.00369934
1182.33	-0.000283813	0.00849609
1182.79	-0.697845	-0.0211182
1183.25	-7.62939e-05	0.00370819
1183.73	0.000250244	0.00850525
1184.19	-0.69754	-0.0211243
1184.65	0.000784302	0.00370117
1185.13	0.000262451	0.0085022
1185.59	-0.697906	-0.0211334
1186.05	0.000372314	0.00370819
1186.53	-7.01904e-05	0.00848999
1186.99	-0.697418	-0.0211182
1187.45	0.000387573	0.00370789
1187.93	-0.000299072	0.00848694
1188.39	-0.697632	-0.0211121
1188.85	-0.000375366	0.00371796
1189.33	-0.000616455	0.00848999
1189.79	-0.697601	-0.0211121
1190.25	-0.000289917	0.00372101
1190.73	0.000610352	0.00848694
1191.19	-0.697571	-0.021109
1191.65	-0.000540161	0.0037207
1192.13	0.000473022	0.00848999
1192.59	-0.697998	-0.021106
1193.05	-0.000415039	0.00372589
1193.53	-9.15527e-06	0.00849609
1193.99	-0.698578	-0.0210907
1194.45	9.76562e-05	0.00372833
1194.93	7.32422e-05	0.00849304
1195.39	-0.698761	-0.02109375
1195.85	-0.000332642	0.00373077
1196.33	-0.000543213	0.00848999
1196.79	-0.698608	-0.0210968
1197.25	0.000784302	0.00372894
1197.73	0.000393677	0.00848083
1198.19	-0.697693	-0.021106
1198.65	5.18799e-05	0.00373718
1199.13	0.000430298	0.00847778
1199.59	-0.697754	-0.0211029
1200.05	-0.000177002	0.00374054
1200.53	-0.000476074	0.00848389
1200.99	-0.697479	-0.0210968
1201.45	0.000131226	0.00373596
1201.93	0.000335693	0.00849304
1202.39	-0.697662	-0.0210999
1202.85	0.000146484	0.00374084
1203.33	0.000247192	0.00848999
1203.79	-0.697998	-0.0210876
1204.25	0.000646973	0.00373901
1204.73	-0.00062561	0.00848999
1205.19	-0.697815	-0.02109375
1205.65	0.000680542	0.00374268
1206.13	-4.57764e-05	0.00848389
1206.59	-0.698761	-0.0211029
1207.05	0.000473022	0.00374664
1207.53	-0.000210571	0.00848694
1207.99	-0.698364	-0.02109375
1208.45	0.000750732	0.00374695
1208.93	-0.000646973	0.00847778
1209.39	-0.698395	-0.0210968
1209.85	-0.000186157	0.00375397
1210.33	0.000634766	0.00847778
1210.79	-0.697845	-0.0210968
1211.25	-0.000457764	0.00375977
1211.73	-0.000234985	0.00847778
1212.19	-0.698639	-0.0210876
1212.65	-0.000430298	0.00376129
1213.13	-0.000622559	0.00847778
1213.59	-0.697754	-0.02109375
1214.05	0.000567627	0.00375397
1214.53	0.000268555	0.00847778
1214.99	-0.697662	-0.02109375
1215.45	-0.000375366	0.00376434
1215.93	0.00055542	0.00846863
1216.39	-0.69751	-0.0210907
1216.85	0.000769043	0.00375977
1217.33	-0.000671387	0.00847778
1217.79	-0.698486	-0.0210785
1218.25	0.000244141	0.00376801
1218.73	0.00015564	0.00845947
1219.19	-0.6987	-0.0210815
1219.65	-0.000292969	0.00377319
1220.13	-0.000448608	0.00845947
1220.59	-0.698059	-0.0210876
1221.05	-0.000219727	0.00376923
1221.53	0.000469971	0.00847168
1221.99	-0.698669	-0.0210785
1222.45	0.000753784	0.00377106
1222.93	-0.00055542	0.00846252
1223.39	-0.698517	-0.0210754
1223.85	0.000311279	0.0037735
1224.33	-0.000534058	0.00846863
1224.79	-0.69754	-0.02109375
1225.25	-0.000195313	0.0037793
1225.73	0.000479126	0.00845947
1226.19	-0.697418	-0.0210876
1226.65	-0.000253296	0.00378143
1227.13	-0.000186157	0.00845642
1227.59	-0.698181	-0.0210876
1228.05	-0.000289917	0.00378662
1228.53	0.000219727	0.00846863
1228.99	-0.698303	-0.02109375
1229.45	0.000585937	0.00378265
1229.93	0.000643921	0.00845337
1230.39	-0.698547	-0.0210876
1230.85	0.00017395	0.00378326
1231.33	0.000247192	0.00846252
1231.79	-0.69873	-0.0210815
1232.25	0.000216675	0.00379181
1232.73	0.000320435	0.00845032
1233.19	-0.698761	-0.0210785
1233.65	0.000799561	0.00378845
1234.13	0.000314331	0.00845642
1234.59	-0.698669	-0.0210724
1235.05	-0.000286865	0.0037973
1235.53	-0.00045166	0.00844421
1235.99	-0.697479	-0.0210785
1236.45	-3.66211e-05	0.00379456
1236.93	-0.000415039	0.00845337
1237.39	-0.698425	-0.0210693
1237.85	1.2207e-05	0.00380005
1238.33	0.000515747	0.00844421
1238.79	-0.698547	-0.0210785
1239.25	-0.000476074	0.00380402
1239.73	-0.000305176	0.00845032
1240.19	-0.69754	-0.0210785
1240.65	-0.000296021	0.00380615
1241.13	-0.000604248	0.00843811
1241.59	-0.6987	-0.0210632
1242.05	-0.000161743	0.00380432
1242.53	0	0.00844727
1242.99	-0.698639	-0.0210602
1243.45	-0.000393677	0.00380768
1243.93	0.000375366	0.00844116
1244.39	-0.698822	-0.0210632
1244.85	-0.000415039	0.00380859
1245.33	0.00027771	0.00843811
1245.79	-0.698578	-0.0210632
1246.25	0.000842285	0.00380493
1246.73	-0.000674438	0.00843811
1247.19	-0.698364	-0.0210663
1247.65	0.000271606	0.00380829
1248.13	0.000564575	0.00843201
1248.59	-0.698792	-0.021051
1249.05	-0.000177002	0.00381775
1249.53	-0.000741577	0.00842285
1249.99	-0.698792	-0.021051
1250.45	0.000784302	0.0038089
1250.93	0.000369263	0.0084198
1251.39	-0.697754	-0.0210449
1251.85	0.000463867	0.00381104
1252.33	-0.000619507	0.0084259
1252.79	-0.698273	-0.0210449
1253.25	0.000796509	0.00381348
1253.73	0.000271606	0.00842896
1254.19	-0.697479	-0.021051
1254.65	-0.000369263	0.00382324
1255.13	0.000485229	0.00841675
1255.59	-0.697601	-0.021048
1256.05	-0.000256348	0.00382629
1256.53	0.000253296	0.0084137
1256.99	-0.698181	-0.0210541
1257.45	-0.000189209	0.00382782
1257.93	-0.000561523	0.00841675
1258.39	-0.698517	-0.0210449
1258.85	-0.000338745	0.0038269
1259.33	0.00017395	0.00842285
1259.79	-0.698181	-0.0210541
1260.25	0.000238037	0.00383209
1260.73	-8.23975e-05	0.00841064
1261.19	-0.697815	-0.021051
1261.65	0.000720215	0.00382629
1262.13	-7.62939e-05	0.00842285
1262.59	-0.698761	-0.0210449
1263.05	0.000125122	0.00383392
1263.53	-0.000628662	0.0084137
1263.99	-0.697449	-0.021051
1264.45	0.000247192	0.00383667
1264.93	3.35693e-05	0.0084198
1265.39	-0.698608	-0.0210571
1265.85	0.000405884	0.00383545
1266.33	-0.000402832	0.00841064
1266.79	-0.697571	-0.021051
1267.25	-0.000210571	0.00384003
1267.73	-0.000210571	0.00840759
1268.19	-0.698669	-0.0210449
1268.65	-0.000430298	0.00384216
1269.13	-0.000680542	0.00841064
1269.59	-0.698761	-0.0210419
1270.05	-5.18799e-05	0.00384705
1270.53	-0.000158691	0.0084198
1270.99	-0.69873	-0.0210449
1271.45	-8.8501e-05	0.00384949
1271.93	0.000540161	0.00840759
1272.39	-0.697418	-0.021048
1272.85	-0.000222778	0.00385132
1273.33	9.15527e-05	0.00839844
1273.79	-0.698456	-0.0210388
1274.25	0.000588989	0.0038443
1274.73	-0.000375366	0.00840759
1275.19	-0.698547	-0.0210358
1275.65	-0.000411987	0.0038559
1276.13	0.000366211	0.00840149
1276.59	-0.697693	-0.021048
1277.05	0.000558472	0.00384735
1277.53	0.000192261	0.00839539
1277.99	-0.698303	-0.0210266
1278.45	0.000186157	0.00384918
1278.93	0.000427246	0.00838623
1279.39	-0.698547	-0.0210236
1279.85	0.000723267	0.00385132
1280.33	-0.000387573	0.00838928
1280.79	-0.697754	-0.0210205
1281.25	-0.000125122	0.00385773
1281.73	0.000192261	0.00838013
1282.19	-0.69751	-0.0210419
1282.65	0.000341797	0.00383179
1283.13	0.000170898	0.00834961
1283.59	-0.698761	-0.0210907
1284.05	0.000234985	0.00380249
1284.53	-7.93457e-05	0.00833435
1284.99	-0.69873	-0.0210968
1285.45	0.000424194	0.00380096
1285.93	-0.000643921	0.0083374
1286.39	-0.697479	-0.021109
1286.85	-0.000280762	0.00380066
1287.33	-0.000741577	0.0083313
1287.79	-0.698608	-0.0210968
1288.25	-0.00038147	0.00380707
1288.73	7.01904e-05	0.0083252
1289.19	-0.698151	-0.0210907
1289.65	0.000500488	0.00380798
1290.13	-6.71387e-05	0.0083252
1290.59	-0.698181	-0.0210907
1291.05	0.000808716	0.00380859
1291.53	-0.000326538	0.0083252
1291.99	-0.697418	-0.0210846
1292.45	-0.00038147	0.00381989
1292.93	0.000524902	0.0083374
1293.39	-0.697784	-0.0210846
1293.85	0.000787354	0.00381531
1294.33	-0.000622559	0.00833435
1294.79	-0.697632	-0.0210846
1295.25	-0.000457764	0.0038269
1295.73	0.0006073	0.0083313
1296.19	-0.698639	-0.0210632
1296.65	0.000234985	0.00382935
1297.13	-0.00050354	0.00833435
1297.59	-0.698212	-0.0210693
1298.05	-0.000177002	0.00383331
1298.53	-0.000640869	0.00834045
1298.99	-0.69754	-0.0210693
1299.45	0.00010376	0.00383606
1299.93	-0.000372314	0.00834656
1300.39	-0.698517	-0.0210724
1300.85	-0.000289917	0.00384216
1301.33	-0.000543213	0.00834045
1301.79	-0.698334	-0.0210632
1302.25	-0.000396729	0.00384491
1302.73	-0.000485229	0.0083374
1303.19	-0.697815	-0.0210632
1303.65	0.000717163	0.00384033
1304.13	-0.000222778	0.00833435
1304.59	-0.698456	-0.0210571
1305.05	0.000234985	0.00385376
1305.53	0.000463867	0.00834351
1305.99	-0.697998	-0.0210632
1306.45	0.000512695	0.00385193
1306.93	0.000125122	0.00834656
1307.39	-0.69754	-0.0210602
1307.85	-2.13623e-05	0.00385956
1308.33	-0.000656128	0.0083374
1308.79	-0.697937	-0.0210663
1309.25	-0.000222778	0.00386108
1309.73	-0.000253296	0.0083313
1310.19	-0.6987	-0.0210724
1310.65	-0.000332642	0.0038678
1311.13	-0.000570679	0.00834961
1311.59	-0.697693	-0.0210754
1312.05	0.000622559	0.00386383
1312.53	0.000509644	0.00834351
1312.99	-0.698303	-0.0210846
1313.45	-0.000445557	0.0038739
1313.93	-0.00020752	0.00835876
1314.39	-0.69873	-0.0210724
1314.85	-0.000454712	0.00387543
1315.33	0.000140381	0.00835266
1315.79	-0.697632	-0.0210785
1316.25	-0.000152588	0.00387451
1316.73	-0.000460815	0.00835266
1317.19	-0.6987	-0.0210968
1317.65	0.000793457	0.00386932
1318.13	3.05176e-05	0.00836182
1318.59	-0.698486	-0.0210999
1319.05	-0.0003479	0.00387878
1319.53	-0.000643921	0.00835876
1319.99	-0.697601	-0.021106
1320.45	0.000341797	0.00387543
1320.93	-0.000665283	0.00836792
1321.39	-0.697784	-0.0211182
1321.85	-0.000241089	0.00388062
1322.33	-0.000738525	0.00836487
1322.79	-0.698273	-0.0211182
1323.25	0.000689697	0.00387604
1323.73	-0.000665283	0.00836792
1324.19	-0.697815	-0.021109
1324.65	4.88281e-05	0.00388519
1325.13	-0.000646973	0.00836792
1325.59	-0.69751	-0.0211151
1326.05	0.000418091	0.00388428
1326.53	-0.000646973	0.00836792
1326.99	-0.697693	-0.0210999
1327.45	0.000628662	0.00388611
1327.93	-0.000476074	0.00836792
1328.39	-0.698761	-0.0211029
1328.85	-0.000302124	0.00389252
1329.33	0.000424194	0.00835571
1329.79	-0.697876	-0.021106
1330.25	-0.00039978	0.00389801
1330.73	-0.000338745	0.00835571
1331.19	-0.698181	-0.021106
1331.65	-8.23975e-05	0.00389984
1332.13	6.40869e-05	0.00836182
1332.59	-0.698212	-0.0210999
1333.05	-0.000259399	0.00389648
1333.53	0.000527954	0.00835571
1333.99	-0.697906	-0.0211029
1334.45	0.000259399	0.00389679
1334.93	0.000576782	0.00835266
1335.39	-0.697876	-0.0210999
1335.85	0.00022583	0.00389862
1336.33	0.000561523	0.00834961
1336.79	-0.697632	-0.0210846
1337.25	-0.000335693	0.00390625
1337.73	0.000479126	0.00835266
1338.19	-0.69873	-0.0210754
1338.65	0.000189209	0.00390289
1339.13	0.000482178	0.00834961
1339.59	-0.69812	-0.0210815
1340.05	0.000827026	0.0039035
1340.53	0.0006073	0.00835266
1340.99	-0.69873	-0.0210754
1341.45	-0.000125122	0.00390656
1341.93	-0.000268555	0.0083374
1342.39	-0.697601	-0.0210846
1342.85	-0.000354004	0.00391113
1343.33	-0.000604248	0.00834961
1343.79	-0.698792	-0.0210754
1344.25	0.000189209	0.00391113
1344.73	0.000527954	0.00834351
1345.19	-0.698303	-0.0210663
1345.65	-0.000262451	0.00391907
1346.13	0.00027771	0.0083313
1346.59	-0.698456	-0.0210846
1347.05	0.000234985	0.00391296
1347.53	-0.000460815	0.00834961
1347.99	-0.698456	-0.0210785
1348.45	0.000396729	0.0039151
1348.93	-0.000488281	0.0083374
1349.39	-0.698181	-0.0210754
1349.85	0.000653076	0.00391418
1350.33	-0.000701904	0.00834045
1350.79	-0.698059	-0.0210754
1351.25	0.00085144	0.00391998
1351.73	0.00032959	0.0083313
1352.19	-0.698669	-0.0210663
1352.65	-0.000375366	0.00392883
1353.13	-0.00032959	0.00834045
1353.59	-0.698792	-0.0210663
1354.05	-0.000430298	0.00392761
1354.53	-0.000622559	0.0083313
1354.99	-0.69873	-0.0210693
1355.45	0.000784302	0.00392212
1355.93	7.93457e-05	0.00832825
1356.39	-0.698608	-0.0210541
1356.85	-0.000411987	0.00393311
1357.33	-0.000317383	0.0083374
1357.79	-0.6987	-0.0210571
1358.25	-0.000125122	0.00393433
1358.73	0.000549316	0.00832825
1359.19	-0.697968	-0.0210571
1359.65	0.000552368	0.00392883
1360.13	-0.000592041	0.00831909
1360.59	-0.698517	-0.0210632
1361.05	-0.000411987	0.00394043
1361.53	-0.000454712	0.00831909
1361.99	-0.69751	-0.0210632
1362.45	0.000662231	0.00393494
1362.93	-0.000445557	0.0083313
1363.39	-0.698547	-0.0210602
1363.85	0.000195313	0.00393616
1364.33	0.000152588	0.00831909
1364.79	-0.698853	-0.0210571
1365.25	-0.000222778	0.00394348
1365.73	5.18799e-05	0.00832825
1366.19	-0.698669	-0.0210571
1366.65	0.000750732	0.00393738
1367.13	0.000543213	0.00831299
1367.59	-0.697601	-0.0210571
1368.05	-0.00039978	0.00394531
1368.53	-0.000436401	0.00832214
1368.99	-0.698334	-0.021051
1369.45	-0.000402832	0.00394287
1369.93	0.000167847	0.00830688
1370.39	-0.69873	-0.021048
1370.85	0.000726318	0.00394623
1371.33	-6.10352e-06	0.00832214
1371.79	-0.697662	-0.0210571
1372.25	0.000747681	0.00394592
1372.73	0.000552368	0.00830383
1373.19	-0.697479	-0.021051
1373.65	6.10352e-05	0.00395355
1374.13	0.000268555	0.00831299
1374.59	-0.697693	-0.0210571
1375.05	-0.000134277	0.00395294
1375.53	-7.32422e-05	0.00830688
1375.99	-0.69812	-0.0210419
1376.45	-9.15527e-06	0.00395386
1376.93	0.00050354	0.00830994
1377.39	-0.698364	-0.0210419
1377.85	0.000680542	0.00395142
1378.33	-0.000299072	0.00831909
1378.79	-0.697723	-0.0210449
1379.25	0.000640869	0.00395294
1379.73	-0.000360107	0.00831604
1380.19	-0.697754	-0.021051
1380.65	2.44141e-05	0.00396332
1381.13	-0.000231934	0.00830383
1381.59	-0.69812	-0.021048
1382.05	0.000372314	0.00395752
1382.53	0.000540161	0.00830383
1382.99	-0.698425	-0.0210449
1383.45	7.01904e-05	0.00395721
1383.93	0.000531006	0.00827942
1384.39	-0.69754	-0.0210754
1384.85	-0.000189209	0.00394318
1385.33	-0.000524902	0.00827942
1385.79	-0.698639	-0.0210693
1386.25	-0.000436401	0.00393921
1386.73	-0.00043335	0.00827332
1387.19	-0.698456	-0.0210632
1387.65	-0.000421143	0.00394318
1388.13	-0.000469971	0.00827942
1388.59	-0.697601	-0.0210693
1389.05	-0.000292969	0.0039386
1389.53	-0.000704956	0.00827332
1389.99	-0.698608	-0.0210663
1390.45	0.000695801	0.00394073
1390.93	0.000469971	0.00826721
1391.39	-0.698212	-0.0210632
1391.85	0.000283813	0.0039444
1392.33	-0.000634766	0.00827637
1392.79	-0.698669	-0.0210724
1393.25	-0.000430298	0.00395203
1393.73	-0.000387573	0.00826721
1394.19	-0.697571	-0.0210632
1394.65	-0.000296021	0.00395203
1395.13	0.00057373	0.00826721
1395.59	-0.69751	-0.0210663
1396.05	0.000753784	0.00394806
1396.53	-0.000350952	0.00826721
1396.99	-0.698639	-0.0210602
1397.45	0.000732422	0.00395355
1397.93	0.000186157	0.00826111
1398.39	-0.697845	-0.0210632
1398.85	0.000588989	0.00395905
1399.33	-0.000674438	0.00827026
1399.79	-0.698242	-0.0210693
1400.25	-0.000161743	0.00396179
1400.73	-0.000552368	0.00827332
1401.19	-0.69751	-0.0210602
1401.65	0.00050354	0.00395996
1402.13	-0.00050354	0.00826721
1402.59	-0.697571	-0.0210541
1403.05	-0.000372314	0.00397003
1403.53	-0.000369263	0.00827332
1403.99	-0.6987	-0.0210541
1404.45	0.000402832	0.00396393
1404.93	0.000396729	0.00826111
1405.39	-0.69754	-0.0210541
1405.85	-0.000219727	0.00397247
1406.33	0.000588989	0.00826111
1406.79	-0.698761	-0.0210449
1407.25	0.000576782	0.00396454
1407.73	0.000585937	0.00826111
1408.19	-0.697571	-0.0210541
1408.65	0.000106812	0.00397766
1409.13	0.000537109	0.00825806
1409.59	-0.698242	-0.0210571
1410.05	0.000469971	0.00397461
1410.53	-0.00039978	0.00827026
1410.99	-0.698669	-0.0210419
1411.45	-0.000408936	0.00398468
1411.93	0.000595093	0.00825806
1412.39	-0.697571	-0.0210419
1412.85	-0.000384521	0.00398529
1413.33	0.000512695	0.00825806
1413.79	-0.697632	-0.0210419
1414.25	0.000158691	0.00398285
1414.73	0.00050354	0.00826416
1415.19	-0.69751	-0.021048
1415.65	-7.62939e-05	0.00398712
1416.13	-0.000741577	0.00826111
1416.59	-0.698181	-0.021048
1417.05	5.79834e-05	0.00398773
1417.53	7.93457e-05	0.008255
1417.99	-0.698364	-0.0210266
1418.45	0.000689697	0.00398987
1418.93	-0.00057373	0.00825806
1419.39	-0.69754	-0.0210388
1419.85	0.000534058	0.00399292
1420.33	-0.000634766	0.00825806
1420.79	-0.697723	-0.0210358
1421.25	-0.000424194	0.00400024
1421.73	0.000585937	0.00826111
1422.19	-0.69754	-0.0210266
1422.65	0.000375366	0.00399933
1423.13	-0.000183105	0.008255
1423.59	-0.698395	-0.0210297
1424.05	0.000784302	0.00399811
1424.53	-3.35693e-05	0.00825806
1424.99	-0.698792	-0.0210144
1425.45	0.000177002	0.00399719
1425.93	-0.000732422	0.00826111
1426.39	-0.697937	-0.0210144
1426.85	0.00062561	0.00400543
1427.33	0.000524902	0.0082489
1427.79	-0.697571	-0.0210266
1428.25	0.000653076	0.0040036
1428.73	0.000366211	0.00825195
1429.19	-0.697571	-0.0210297
1429.65	0.000613403	0.00400787
1430.13	0.000454712	0.0082489
1430.59	-0.698395	-0.0210205
1431.05	-0.000384521	0.00401489
1431.53	-0.00039978	0.00825806
1431.99	-0.6987	-0.0210083
1432.45	9.15527e-05	0.00401581
1432.93	0.000314331	0.008255
1433.39	-0.698578	-0.0210144
1433.85	-0.000363159	0.00401947
1434.33	2.74658e-05	0.00825806
1434.79	-0.698608	-0.0210022
1435.25	-0.000408936	0.00402313
1435.73	-0.000274658	0.00823669
1436.19	-0.69873	-0.0210022
1436.65	0.00072937	0.00401764
1437.13	0.000482178	0.00824585
1437.59	-0.697632	-0.0210083
1438.05	0.000390625	0.00401825
1438.53	-0.000650024	0.00825195
1438.99	-0.697479	-0.0210052
1439.45	-0.0003479	0.00402435
1439.93	-0.000485229	0.008255
1440.39	-0.6987	-0.0210022
1440.85	-6.71387e-05	0.00402344
1441.33	-0.000588989	0.0082428
1441.79	-0.698669	-0.0210022
1442.25	-7.32422e-05	0.00402557
1442.73	-0.000469971	0.0082489
1443.19	-0.698486	-0.0209961
1443.65	-0.000292969	0.00402618
1444.13	-0.000692749	0.00824585
1444.59	-0.69754	-0.0210022
1445.05	0.000299072	0.00402527
1445.53	-0.000485229	0.00824585
1445.99	-0.6987	-0.0209991
1446.45	0.000344849	0.0040332
1446.93	-0.000610352	0.00824585
1447.39	-0.6987	-0.020993
1447.85	0.000738525	0.00403015
1448.33	8.54492e-05	0.00823364
1448.79	-0.697784	-0.020993
1449.25	0.000720215	0.00402985
1449.73	0.000198364	0.00823059
1450.19	-0.698151	-0.02099
1450.65	-0.000338745	0.00403992
1451.13	-0.000378418	0.00823364
1451.59	-0.697845	-0.0210022
1452.05	-0.00010376	0.00404358
1452.53	0.000216675	0.00823059
1452.99	-0.697632	-0.0209961
1453.45	0.000762939	0.00404144
1453.93	-0.00065918	0.00823669
1454.39	-0.698517	-0.0209869
1454.85	-0.000402832	0.00404663
1455.33	-0.000549316	0.00823059
1455.79	-0.698761	-0.02099
1456.25	-0.000415039	0.00405029
1456.73	0.000482178	0.00823364
1457.19	-0.698608	-0.0209839
1457.65	-0.000405884	0.00404968
1458.13	0.000454712	0.00823059
1458.59	-0.69751	-0.02099
1459.05	-0.000378418	0.00405029
1459.53	4.88281e-05	0.00823059
1459.99	-0.6987	-0.0209869
1460.45	0.000738525	0.00404266
1460.93	0.000387573	0.00822754
1461.39	-0.697937	-0.02099
1461.85	0.000820923	0.00405029
1462.33	-0.000668335	0.00822449
1462.79	-0.698059	-0.0209839
1463.25	0.000390625	0.00404877
1463.73	-0.000311279	0.00823364
1464.19	-0.698303	-0.0209778
1464.65	0.000756836	0.00404785
1465.13	0.000384521	0.00822754
1465.59	-0.698669	-0.0209717
1466.05	0.000720215	0.00405243
1466.53	-0.000357056	0.00823059
1466.99	-0.698151	-0.0209717
1467.45	0.000759888	0.00405273
1467.93	1.52588e-05	0.00822449
1468.39	-0.697754	-0.0209747
1468.85	0.000421143	0.00405914
1469.33	-0.000482178	0.00823059
1469.79	-0.697876	-0.0209747
1470.25	-0.000387573	0.00406189
1470.73	-6.71387e-05	0.00821228
1471.19	-0.698425	-0.0209747
1471.65	-5.79834e-05	0.00405762
1472.13	-0.00010376	0.00822144
1472.59	-0.6987	-0.0209686
1473.05	-0.00032959	0.00406769
1473.53	0.000320435	0.00822144
1473.99	-0.697693	-0.0209778
1474.45	-0.000152588	0.00406555
1474.93	6.71387e-05	0.008203125
1475.39	-0.697479	-0.0209778
1475.85	0.000610352	0.00406342
1476.33	-0.000640869	0.00821228
1476.79	-0.698212	-0.0209747
1477.25	0.000506592	0.00406494
1477.73	-0.000454712	0.00822144
1478.19	-0.698639	-0.0209656
1478.65	0.000241089	0.00406921
1479.13	0.000518799	0.00821838
1479.59	-0.6987	-0.0209656
1480.05	0.000784302	0.00406464
1480.53	-0.000415039	0.00820923
1480.99	-0.698242	-0.0209686
1481.45	0.000387573	0.00407501
1481.93	-0.000344849	0.00822144
1482.39	-0.698547	-0.0209564
1482.85	-0.000448608	0.00407593
1483.33	0.000552368	0.00820923
1483.79	-0.697632	-0.0209686
1484.25	0.00078125	0.00407135
1484.73	-0.000552368	0.008203125
1485.19	-0.698517	-0.0209686
1485.65	-0.000158691	0.0040802
1486.13	0.000460815	0.00819702
1486.59	-0.697632	-0.0209656
1487.05	0.000695801	0.00407623
1487.53	-0.000643921	0.008203125
1487.99	-0.697876	-0.0209717
1488.45	0.00057373	0.00407532
1488.93	-1.2207e-05	0.00820923
1489.39	-0.698669	-0.0209656
1489.85	0.000787354	0.00407867
1490.33	-0.000283813	0.00821228
1490.79	-0.697479	-0.0209686
1491.25	0.000808716	0.00407776
1491.73	-0.000662231	0.00819702
1492.19	-0.697784	-0.0209564
1492.65	0.000515747	0.00408356
1493.13	0.000494385	0.00819092
1493.59	-0.69812	-0.0209686
1494.05	0.000415039	0.00408264
1494.53	-0.000274658	0.00819702
1494.99	-0.69754	-0.0209656
1495.45	-0.000415039	0.00408966
1495.93	-0.000613403	0.00819702
1496.39	-0.697784	-0.0209717
1496.85	-0.000430298	0.00409302
1497.33	-0.000704956	0.00820007
1497.79	-0.69754	-0.0209595
1498.25	0.000857544	0.00408722
1498.73	0.000112915	0.00819702
1499.19	-0.698761	-0.0209534
1499.65	0.000823975	0.00408936
1500.13	-0.000558472	0.008203125
1500.59	-0.6987	-0.0209534
1501.05	0.000680542	0.00409149
1501.53	-0.000631714	0.00820007
1501.99	-0.697723	-0.0209656
1502.45	-0.000418091	0.00409882
1502.93	0.000320435	0.00818787
1503.39	-0.697571	-0.0209595
1503.85	0.000592041	0.00409424
1504.33	-0.00062561	0.00819397
1504.79	-0.698639	-0.0209503
1505.25	-9.46045e-05	0.00409851
1505.73	0.000454712	0.00818787
1506.19	-0.697968	-0.0209564
1506.65	-0.000305176	0.00410431
1507.13	-0.000540161	0.00820007
1507.59	-0.698608	-0.0209442
1508.05	0.000619507	0.00409729
1508.53	0.000540161	0.00818787
1508.99	-0.69873	-0.0209381
1509.45	-7.01904e-05	0.00410583
1509.93	-0.000668335	0.00818787
1510.39	-0.698303	-0.0209473
1510.85	-0.000271606	0.00410797
1511.33	0.000112915	0.00818176
1511.79	-0.697479	-0.0209442
1512.25	0.000186157	0.00410583
1512.73	-0.000128174	0.00819092
1513.19	-0.697662	-0.0209442
1513.65	-0.000396729	0.00410828
1514.13	-0.000454712	0.00817871
1514.59	-0.697662	-0.0209442
1515.05	-0.00010376	0.00411041
1515.53	-0.000247192	0.00818787
1515.99	-0.69873	-0.020929
1516.45	1.52588e-05	0.00411346
1516.93	0.000421143	0.00818481
1517.39	-0.698395	-0.0209381
1517.85	0.000845337	0.00410614
1518.33	0.000305176	0.00818176
1518.79	-0.697815	-0.0209381
1519.25	0.000378418	0.00410858
1519.73	0.000466919	0.00817261
1520.19	-0.698151	-0.0209381
1520.65	-0.00039978	0.00411346
1521.13	-0.000653076	0.00817871
1521.59	-0.698547	-0.0209351
1522.05	0.000106812	0.00411194
1522.53	0.000143433	0.00816345
1522.99	-0.69873	-0.020929
1523.45	5.49316e-05	0.00411438
1523.93	-0.000671387	0.00817261
1524.39	-0.697937	-0.020929
1524.85	-0.000494385	0.00411987
1525.33	0.000634766	0.00817261
1525.79	-0.697662	-0.0209381
1526.25	0.000305176	0.0041217
1526.73	-0.000201416	0.00818481
1527.19	-0.697815	-0.020929
1527.65	-0.000265503	0.00412384
1528.13	-0.000628662	0.00817566
1528.59	-0.697479	-0.020932
1529.05	0.000546265	0.00412018
1529.53	0.000299072	0.00817566
1529.99	-0.698364	-0.0209351
1530.45	0.000524902	0.00412018
1530.93	-0.000314331	0.0081665
1531.39	-0.69754	-0.020929
1531.85	0.000491333	0.00412018
1532.33	-0.00050354	0.00817261
1532.79	-0.698608	-0.0209198
1533.25	-0.00039978	0.00412933
1533.73	0.000460815	0.0081604
1534.19	-0.698425	-0.0209229
1534.65	-0.000164795	0.00412659
1535.13	0.000143433	0.0081604
1535.59	-0.697754	-0.020929
1536.05	0.000814819	0.00412445
1536.53	0.000576782	0.00816345
1536.99	-0.698334	-0.0209167
1537.45	-0.000427246	0.00413513
1537.93	0.000601196	0.0081665
1538.39	-0.697906	-0.0209198
1538.85	-0.000323486	0.00413269
1539.33	-0.000338745	0.00817261
1539.79	-0.698334	-0.0209167
1540.25	0.000756836	0.00412811
1540.73	-0.000418091	0.0081665
1541.19	-0.698639	-0.0209167
1541.65	0.000128174	0.00413483
1542.13	0.000396729	0.00815735
1542.59	-0.698425	-0.020929
1543.05	-0.000415039	0.00413849
1543.53	-0.000753784	0.00815125
1543.99	-0.697845	-0.0209229
1544.45	-0.000213623	0.00413513
1544.93	0.000265503	0.0081543
1545.39	-0.697571	-0.020929
1545.85	0.000378418	0.00413635
1546.33	-8.8501e-05	0.00815125
1546.79	-0.697571	-0.020929
1547.25	0.000561523	0.00413849
1547.73	0.000125122	0.00815735
1548.19	-0.697418	-0.020929
1548.65	0.000802612	0.00413757
1549.13	0.000430298	0.00814819
1549.59	-0.698517	-0.0209167
1550.05	0.000439453	0.00414307
1550.53	0.000537109	0.0081543
1550.99	-0.698669	-0.0209137
1551.45	0.000454712	0.0041394
1551.93	-0.000421143	0.00814819
1552.39	-0.69754	-0.0209198
1552.85	0.000802612	0.00414154
1553.33	-0.000564575	0.0081604
1553.79	-0.698761	-0.0209076
1554.25	-0.000534058	0.00414886
1554.73	-0.000546265	0.00815125
1555.19	-0.69751	-0.0209167
1555.65	-9.76562e-05	0.00414642
1556.13	-0.00065918	0.00815125
1556.59	-0.69751	-0.0209198
1557.05	7.32422e-05	0.00415009
1557.53	-0.000161743	0.00814819
1557.99	-0.698242	-0.0209045
1558.45	0.000701904	0.00414307
1558.93	-0.000231934	0.00814819
1559.39	-0.698212	-0.0209076
1559.85	0.00071106	0.00414825
1560.33	0.000231934	0.00813599
1560.79	-0.698792	-0.0209076
1561.25	-0.000463867	0.00415527
1561.73	-0.000366211	0.00814209
1562.19	-0.697601	-0.0209106
1562.65	-0.000305176	0.00415344
1563.13	-0.000198364	0.00812988
1563.59	-0.69754	-0.0209137
1564.05	0.00027771	0.004151
1564.53	-0.000537109	0.00813599
1564.99	-0.698395	-0.0209045
1565.45	-0.00022583	0.00415863
1565.93	-0.000549316	0.00813293
1566.39	-0.698822	-0.0208984
1566.85	-7.62939e-05	0.00415955
1567.33	0.000210571	0.00813293
1567.79	-0.697723	-0.0209045
1568.25	0.000183105	0.00415497
1568.73	-0.00012207	0.00812683
1569.19	-0.698456	-0.0208862
1569.65	9.15527e-06	0.00416107
1570.13	-0.000665283	0.00813293
1570.59	-0.698792	-0.0208923
1571.05	-0.000234985	0.00416443
1571.53	-7.32422e-05	0.00812073
1571.99	-0.6987	-0.0208893
1572.45	0.000808716	0.00415649
1572.93	0.000445557	0.00812683
1573.39	-0.698608	-0.0208893
1573.85	-9.15527e-05	0.00416473
1574.33	0.00055542	0.00812073
1574.79	-0.69751	-0.0208954
1575.25	0.00043335	0.0041629
1575.73	-9.15527e-05	0.00811462
1576.19	-0.69751	-0.0208862
1576.65	0.000735474	0.00415955
1577.13	-0.000552368	0.00812988
1577.59	-0.698242	-0.0208832
1578.05	0.000637817	0.00416046
1578.53	0.000460815	0.00812683
1578.99	-0.697845	-0.0208832
1579.45	-0.000244141	0.00417206
1579.93	0.000543213	0.00812378
1580.39	-0.69754	-0.0208923
1580.85	-0.000317383	0.00417206
1581.33	-0.000366211	0.00812683
1581.79	-0.69812	-0.0208771
1582.25	-0.00032959	0.00417236
1582.73	4.27246e-05	0.00810547
1583.19	-0.698517	-0.020871
1583.65	-0.000457764	0.00417328
1584.13	0.00057373	0.00810547
1584.59	-0.697784	-0.0208832
1585.05	-0.000405884	0.00417419
1585.53	-0.000460815	0.00812378
1585.99	-0.698639	-0.0208771
1586.45	-0.00043335	0.00417786
1586.93	-0.0006073	0.00812378
1587.39	-0.698608	-0.0208893
1587.85	-0.000430298	0.00417267
1588.33	-0.000738525	0.00811462
1588.79	-0.697479	-0.0208923
1589.25	0.000305176	0.00417511
1589.73	0.000250244	0.00810547
1590.15	0.000253296	0.00217102