File: Edgar/20240605/20240605/electrodeposition_pulsed_potential_20240605_B/pulses_4000_to_5000.txt
Time (s)	WE(1).Potential (V)	WE(1).Current (A)
3016.75	-0.698273	-0.0240173
3017.21	0.000744629	0.00289154
3017.69	0.000494385	0.00640808
3018.15	-0.698792	-0.0210297
3018.61	-0.000448608	0.00437653
3019.09	0.000588989	0.00709351
3019.55	-0.697876	-0.0206604
3020.01	-3.35693e-05	0.00461029
3020.49	-0.000543213	0.00724304
3020.95	-0.698761	-0.0205627
3021.41	0.000482178	0.00467041
3021.89	-0.000262451	0.00728394
3022.35	-0.698792	-0.0205292
3022.81	0.000759888	0.00470184
3023.29	0.000402832	0.00730682
3023.75	-0.697937	-0.0205109
3024.21	0.000109863	0.00472504
3024.69	0.000628662	0.0073233
3025.15	-0.697479	-0.0204987
3025.61	-0.000387573	0.00474304
3026.09	0.000689697	0.00733551
3026.55	-0.697845	-0.0204773
3027.01	0.000384521	0.00474731
3027.49	0.000662231	0.00734283
3027.95	-0.698059	-0.0204773
3028.41	-0.000170898	0.00475922
3028.89	0.000817871	0.00735229
3029.35	-0.69754	-0.0204651
3029.81	-0.000497437	0.00476898
3030.29	0.000762939	0.00735809
3030.75	-0.698792	-0.0204498
3031.21	-0.000344849	0.00477325
3031.69	-0.000369263	0.00736969
3032.15	-0.697845	-0.020459
3032.61	0.000366211	0.00477234
3033.09	-0.000494385	0.00737183
3033.55	-0.698547	-0.0204407
3034.01	0.0003479	0.00478088
3034.49	-4.88281e-05	0.00737457
3034.95	-0.698029	-0.0204468
3035.41	-0.000363159	0.00479187
3035.89	0.000665283	0.00737274
3036.35	-0.697784	-0.0204468
3036.81	0.000735474	0.00478394
3037.29	-0.000402832	0.00738037
3037.75	-0.698425	-0.0204315
3038.21	6.71387e-05	0.00479492
3038.69	0.000488281	0.00737946
3039.15	-0.698669	-0.0204224
3039.61	-0.000320435	0.00480072
3040.09	-7.32422e-05	0.007388
3040.55	-0.697418	-0.0204315
3041.01	0.000695801	0.00479279
3041.49	-0.00043335	0.00738953
3041.95	-0.698273	-0.0204285
3042.41	-0.000311279	0.00480621
3042.89	0.000592041	0.00738647
3043.35	-0.697662	-0.0204163
3043.81	0.000744629	0.00479828
3044.29	-0.000595093	0.00739227
3044.75	-0.697906	-0.0204285
3045.21	-0.000549316	0.00481018
3045.69	-3.05176e-05	0.00738892
3046.15	-0.698181	-0.0204163
3046.61	-9.15527e-05	0.00481049
3047.09	-0.000231934	0.00739594
3047.55	-0.698822	-0.0204132
3048.01	0.000442505	0.00480835
3048.49	0.000726318	0.00739136
3048.95	-0.698853	-0.0204102
3049.41	0.000701904	0.00481049
3049.89	-0.000253296	0.00739532
3050.35	-0.697571	-0.0204193
3050.81	0.000753784	0.00481049
3051.29	0.000262451	0.00739777
3051.75	-0.697693	-0.0204163
3052.21	0.000363159	0.0048114
3052.69	-0.000460815	0.00740112
3053.15	-0.697937	-0.0204041
3053.61	-0.000408936	0.00482269
3054.09	-0.000479126	0.00739899
3054.55	-0.69812	-0.0203979
3055.01	0.000271606	0.00481689
3055.49	0.000634766	0.0073938
3055.95	-0.698792	-0.0203949
3056.41	-4.88281e-05	0.00482391
3056.89	0.00071106	0.00739471
3057.35	-0.69873	-0.0203888
3057.81	-0.000463867	0.00482483
3058.29	-0.000463867	0.00740173
3058.75	-0.697784	-0.020401
3059.21	-0.000338745	0.00482513
3059.69	0.000753784	0.00739502
3060.15	-0.697571	-0.0203979
3060.61	0.000323486	0.0048172
3061.09	-0.000494385	0.00740051
3061.55	-0.698029	-0.0203979
3062.01	0.000375366	0.00481873
3062.49	3.05176e-06	0.0073938
3062.95	-0.698242	-0.0203979
3063.41	0.000308228	0.004823
3063.89	0.000634766	0.00739166
3064.35	-0.697479	-0.0203888
3064.81	0.000762939	0.00481903
3065.29	-0.000448608	0.0073999
3065.75	-0.697601	-0.0203827
3066.21	0.000598145	0.00482239
3066.69	0.000231934	0.00739075
3067.15	-0.697601	-0.0203857
3067.61	0.000106812	0.004823
3068.09	0.000323486	0.00739685
3068.55	-0.697784	-0.0203857
3069.01	0.000183105	0.00482819
3069.49	-0.000509644	0.00739777
3069.95	-0.69809	-0.0203766
3070.41	0.000335693	0.00482361
3070.89	0.000683594	0.00739044
3071.35	-0.698853	-0.0204224
3071.81	0.000698853	0.0048291
3072.29	0.000695801	0.00741577
3072.75	-0.698761	-0.0204224
3073.21	0.000689697	0.00482574
3073.69	0.000650024	0.0074118
3074.15	-0.6987	-0.0204193
3074.61	0.000811768	0.00482971
3075.09	0.000720215	0.0074173
3075.55	-0.698181	-0.0204193
3076.01	-0.000363159	0.00483704
3076.49	0.000588989	0.00741028
3076.95	-0.697571	-0.0204193
3077.41	0.000408936	0.00482666
3077.89	-0.000424194	0.00741974
3078.35	-0.698547	-0.0204193
3078.81	-0.000320435	0.00483154
3079.29	0.000198364	0.00741547
3079.75	-0.697723	-0.0204102
3080.21	0.0006073	0.00482605
3080.69	-0.000384521	0.0074173
3081.15	-0.6987	-0.0204071
3081.61	0.000354004	0.00482819
3082.09	0.000765991	0.00741089
3082.55	-0.698761	-0.0204041
3083.01	0.000872803	0.0048291
3083.49	0.000521851	0.00740875
3083.95	-0.69873	-0.0204071
3084.41	-0.000311279	0.00483612
3084.89	-0.000509644	0.00741608
3085.35	-0.698395	-0.0204132
3085.81	0.000354004	0.00483337
3086.29	0.000500488	0.00740448
3086.75	-0.698059	-0.020401
3087.21	0.000640869	0.00482819
3087.69	-0.000476074	0.00741486
3088.15	-0.698822	-0.0203674
3088.61	-0.000292969	0.00484863
3089.09	3.66211e-05	0.00742096
3089.55	-0.697815	-0.0203949
3090.01	-0.000531006	0.00483917
3090.49	0.000701904	0.00740723
3090.95	-0.6987	-0.0203888
3091.41	0.000238037	0.00483643
3091.89	0.000576782	0.0074057
3092.35	-0.697601	-0.0203949
3092.81	0.000775146	0.00483246
3093.29	-0.000106812	0.00740845
3093.75	-0.698792	-0.0203888
3094.21	0.000515747	0.00483368
3094.69	-0.000341797	0.00741333
3095.15	-0.697937	-0.0203949
3095.61	0.000106812	0.00483521
3096.09	0.00020752	0.00740723
3096.55	-0.69754	-0.0203949
3097.01	2.74658e-05	0.00483246
3097.49	0.00020752	0.00740845
3097.95	-0.698425	-0.0203827
3098.41	0.000650024	0.00483521
3098.89	-0.000445557	0.00740692
3099.35	-0.698517	-0.0203857
3099.81	-0.000460815	0.00484009
3100.29	0.000540161	0.00740082
3100.75	-0.697723	-0.0203949
3101.21	0.000756836	0.00483002
3101.69	-0.000302124	0.00740936
3102.15	-0.698456	-0.0203888
3102.61	-0.000115967	0.00483673
3103.09	-0.000210571	0.00740662
3103.55	-0.698273	-0.0203796
3104.01	-6.10352e-05	0.00484161
3104.49	0.000494385	0.00740448
3104.95	-0.698181	-0.0203888
3105.41	-0.000393677	0.00483734
3105.89	-0.000292969	0.00740631
3106.35	-0.697968	-0.0203766
3106.81	-5.49316e-05	0.00483978
3107.29	-0.000473022	0.00740417
3107.75	-0.69873	-0.0203796
3108.21	-0.000445557	0.0048407
3108.69	0.000454712	0.00739441
3109.15	-0.697479	-0.0203827
3109.61	0.00078125	0.00483215
3110.09	-0.000500488	0.00740021
3110.55	-0.697754	-0.0203857
3111.01	0.000393677	0.00483429
3111.49	0.000717163	0.00738983
3111.95	-0.697571	-0.0203857
3112.41	-0.000167847	0.00484192
3112.89	-7.62939e-05	0.0073938
3113.35	-0.698608	-0.0203857
3113.81	-0.000128174	0.0048407
3114.29	-0.000469971	0.00739929
3114.75	-0.69809	-0.0203827
3115.21	-6.10352e-05	0.00483765
3115.69	9.76562e-05	0.00739136
3116.15	-0.698486	-0.0203888
3116.61	-0.000479126	0.00483917
3117.09	0.000158691	0.00739197
3117.55	-0.698669	-0.0203735
3118.01	-0.000378418	0.00484314
3118.49	0.000204468	0.00739197
3118.95	-0.698761	-0.0203735
3119.41	-3.66211e-05	0.0048407
3119.89	0.000732422	0.00738892
3120.35	-0.698639	-0.0203766
3120.81	-0.000183105	0.00484375
3121.29	0.00017395	0.00739319
3121.75	-0.697723	-0.0203766
3122.21	-0.000180054	0.00486176
3122.69	-0.000421143	0.00740692
3123.15	-0.698822	-0.0203644
3123.61	0.000518799	0.00483643
3124.09	-0.000506592	0.00739746
3124.55	-0.698364	-0.0203735
3125.01	-4.88281e-05	0.00483978
3125.49	-0.000463867	0.00739624
3125.95	-0.698669	-0.0203888
3126.41	0.000662231	0.004841
3126.89	-0.000170898	0.00740479
3127.35	-0.698792	-0.0203918
3127.81	0.000189209	0.00484039
3128.29	-0.000567627	0.00740143
3128.75	-0.697968	-0.0203979
3129.21	0.000686646	0.00483887
3129.69	0.000708008	0.00739258
3130.15	-0.698761	-0.0203827
3130.61	-0.000317383	0.00484619
3131.09	0.000646973	0.00739136
3131.55	-0.698242	-0.0204041
3132.01	-0.000350952	0.00484192
3132.49	0.000637817	0.00738831
3132.95	-0.697479	-0.0203949
3133.41	-0.000430298	0.00484283
3133.89	2.74658e-05	0.00739166
3134.35	-0.698212	-0.0203857
3134.81	-0.000479126	0.00484375
3135.29	0.00039978	0.00739288
3135.75	-0.697693	-0.0203918
3136.21	-0.00057373	0.00484436
3136.69	-5.18799e-05	0.00738953
3137.15	-0.697662	-0.0203918
3137.61	0.000463867	0.00484009
3138.09	-0.000231934	0.00739136
3138.55	-0.6987	-0.0203857
3139.01	-0.000283813	0.00484528
3139.49	-3.05176e-05	0.0073877
3139.95	-0.698151	-0.0204041
3140.41	-0.00043335	0.0048468
3140.89	0.000500488	0.00738495
3141.35	-0.698578	-0.0203857
3141.81	0.000686646	0.00483887
3142.29	0.000509644	0.00738831
3142.75	-0.69873	-0.0203888
3143.21	-0.000518799	0.00484833
3143.69	-0.000354004	0.00739227
3144.15	-0.697601	-0.0203888
3144.61	-0.000256348	0.00484863
3145.09	0.000604248	0.00737946
3145.55	-0.69873	-0.0203888
3146.01	-0.000125122	0.00484375
3146.49	-0.000378418	0.00738586
3146.95	-0.698181	-0.0203949
3147.41	0.000759888	0.00483856
3147.89	-0.000469971	0.00738678
3148.35	-0.698334	-0.0203857
3148.81	-0.000250244	0.00485046
3149.29	-0.000411987	0.00738647
3149.75	-0.698761	-0.0203766
3150.21	3.96729e-05	0.00484833
3150.69	0.000744629	0.00738068
3151.15	-0.697662	-0.0203766
3151.61	9.76562e-05	0.00484863
3152.09	-0.000460815	0.00738434
3152.55	-0.697998	-0.0203796
3153.01	0.00065918	0.00484314
3153.49	-0.000521851	0.00738525
3153.95	-0.697693	-0.0203735
3154.41	0.00078125	0.00484253
3154.89	-0.000463867	0.00738495
3155.35	-0.698547	-0.0203644
3155.81	0.000140381	0.00484436
3156.29	-0.000439453	0.00738342
3156.75	-0.698639	-0.0203705
3157.21	-0.000430298	0.00484924
3157.69	0.000634766	0.0073761
3158.15	-0.697571	-0.0203827
3158.61	-0.00027771	0.00485199
3159.09	-0.00050354	0.00737823
3159.55	-0.69873	-0.0203705
3160.01	0.000140381	0.00484894
3160.49	0.000271606	0.00737823
3160.95	-0.698425	-0.0203766
3161.41	1.52588e-05	0.00484924
3161.89	-0.000405884	0.00739441
3162.35	-0.698761	-0.0203979
3162.81	0.000363159	0.00485016
3163.29	-0.000527954	0.00739197
3163.75	-0.698334	-0.0203888
3164.21	0.000775146	0.00485016
3164.69	-0.000360107	0.007388
3165.15	-0.697937	-0.0203918
3165.61	0.000735474	0.00484467
3166.09	-0.00050354	0.00739197
3166.55	-0.697723	-0.0203918
3167.01	0.000820923	0.00484741
3167.49	0.000439453	0.00738129
3167.95	-0.698273	-0.0203949
3168.41	0.000189209	0.00485046
3168.89	0.000515747	0.00738007
3169.35	-0.698822	-0.0203918
3169.81	0.000250244	0.00485168
3170.29	-0.000460815	0.00738708
3170.75	-0.698792	-0.0203888
3171.21	-0.000411987	0.00485229
3171.69	0.000592041	0.00737701
3172.15	-0.69809	-0.0203949
3172.61	-0.000341797	0.00485535
3173.09	-2.74658e-05	0.0073877
3173.55	-0.697845	-0.0203888
3174.01	-0.000540161	0.00485291
3174.49	0.000238037	0.00737885
3174.95	-0.698517	-0.0203796
3175.41	0.000735474	0.00484741
3175.89	-0.000485229	0.00738281
3176.35	-0.697998	-0.0203888
3176.81	-9.76562e-05	0.00485443
3177.29	-0.000415039	0.00738647
3177.75	-0.697998	-0.0203705
3178.21	-7.32422e-05	0.00485443
3178.69	-0.000247192	0.00738312
3179.15	-0.697632	-0.0203796
3179.61	-0.000314331	0.00485443
3180.09	-0.000460815	0.00737976
3180.55	-0.698547	-0.0203735
3181.01	0.000610352	0.0048468
3181.49	-0.000335693	0.00737396
3181.95	-0.698517	-0.0203796
3182.41	-0.000415039	0.00485565
3182.89	-0.000479126	0.00738068
3183.35	-0.697571	-0.0203827
3183.81	-0.000314331	0.00485413
3184.29	-4.27246e-05	0.00737885
3184.75	-0.698425	-0.0203705
3185.21	-0.000372314	0.00485382
3185.69	0.000720215	0.00737274
3186.15	-0.697693	-0.0203796
3186.61	-0.000454712	0.00485535
3187.09	0.000576782	0.00737122
3187.55	-0.6987	-0.0203644
3188.01	0.000735474	0.00485016
3188.49	0.000521851	0.00737762
3188.95	-0.698761	-0.0203644
3189.41	-0.000360107	0.0048584
3189.89	0.000582886	0.00736877
3190.35	-0.698517	-0.0203674
3190.81	-0.000427246	0.00485809
3191.29	-0.00045166	0.00737885
3191.75	-0.69873	-0.0203766
3192.21	0.000750732	0.00485138
3192.69	-3.96729e-05	0.00737061
3193.15	-0.697937	-0.0203705
3193.61	-0.000216675	0.00485931
3194.09	0.000531006	0.00737091
3194.55	-0.698303	-0.0203674
3195.01	-0.000463867	0.00485718
3195.49	-0.000585937	0.00737305
3195.95	-0.69873	-0.0203674
3196.41	0.000817871	0.00485382
3196.89	0.00067749	0.00736542
3197.35	-0.698761	-0.0203644
3197.81	-0.000363159	0.00485901
3198.29	-0.000143433	0.00736755
3198.75	-0.697571	-0.0203674
3199.21	0.000759888	0.00485352
3199.69	0.000195313	0.00736938
3200.15	-0.69873	-0.0203674
3200.61	-0.000442505	0.00486084
3201.09	0.000619507	0.00736328
3201.55	-0.69812	-0.0203644
3202.01	-0.000354004	0.00485992
3202.49	-3.35693e-05	0.00736969
3202.95	-0.698181	-0.0203674
3203.41	-0.000524902	0.00485809
3203.89	-0.000479126	0.00736938
3204.35	-0.697479	-0.0203674
3204.81	0.000714111	0.00485199
3205.29	0.000738525	0.00736084
3205.75	-0.698547	-0.0203613
3206.21	-0.000189209	0.00486023
3206.69	-0.000518799	0.00736755
3207.15	-0.698395	-0.0203552
3207.61	-0.000296021	0.00485657
3208.09	0.000726318	0.0073587
3208.55	-0.69754	-0.0203644
3209.01	0.000714111	0.00485413
3209.49	0.000784302	0.00736481
3209.95	-0.697601	-0.0203583
3210.41	-0.00050354	0.00485992
3210.89	0.000247192	0.00736542
3211.35	-0.69873	-0.0203613
3211.81	-0.000439453	0.00486053
3212.29	-0.000460815	0.00736725
3212.75	-0.69812	-0.0203522
3213.21	0.000143433	0.00485352
3213.69	0.000537109	0.00736206
3214.15	-0.698608	-0.0203644
3214.61	-0.000308228	0.00486267
3215.09	-0.000344849	0.00736694
3215.55	-0.698547	-0.0203705
3216.01	8.54492e-05	0.00485992
3216.49	-0.000460815	0.00736633
3216.95	-0.698608	-0.0203613
3217.41	-0.000476074	0.00486176
3217.89	-9.76562e-05	0.00736572
3218.35	-0.697601	-0.0203674
3218.81	0.000585937	0.00485504
3219.29	-0.000195313	0.00735931
3219.75	-0.697723	-0.0203705
3220.21	-0.000454712	0.00485931
3220.69	-0.000335693	0.00736389
3221.15	-0.69809	-0.0203552
3221.61	0.000393677	0.00485382
3222.09	-0.000488281	0.00736237
3222.55	-0.698395	-0.0203766
3223.01	0.000714111	0.00485199
3223.49	0.00045166	0.00735107
3223.95	-0.697693	-0.0203705
3224.41	0.000750732	0.00485474
3224.89	-4.88281e-05	0.00736633
3225.35	-0.697571	-0.0203857
3225.81	-0.000354004	0.00485748
3226.29	0.000265503	0.00735901
3226.75	-0.698425	-0.0203735
3227.21	9.46045e-05	0.00485901
3227.69	0.000546265	0.00735992
3228.15	-0.698364	-0.0203735
3228.61	-0.000375366	0.00486359
3229.09	0.000601196	0.00735809
3229.55	-0.698669	-0.0203827
3230.01	-0.000170898	0.00485901
3230.49	-0.000524902	0.00736542
3230.95	-0.69873	-0.0203827
3231.41	0.000222778	0.00485992
3231.89	0.000476074	0.00736053
3232.35	-0.698059	-0.0203735
3232.81	0.000411987	0.00485474
3233.29	0.000125122	0.00736023
3233.75	-0.698669	-0.0203674
3234.21	0.000741577	0.00485596
3234.69	-0.000457764	0.00735992
3235.15	-0.697693	-0.0203827
3235.61	-0.000411987	0.00486328
3236.09	-0.000479126	0.00735992
3236.55	-0.697479	-0.0203796
3237.01	-0.000408936	0.00486359
3237.49	0.000509644	0.00735138
3237.95	-0.697998	-0.0203827
3238.41	-0.000363159	0.00486328
3238.89	0.000650024	0.00734955
3239.35	-0.69754	-0.0203735
3239.81	0.000534058	0.00485443
3240.29	0.000588989	0.00734833
3240.75	-0.697571	-0.0203735
3241.21	0.000613403	0.00485382
3241.69	-0.000512695	0.00735413
3242.15	-0.697876	-0.0203796
3242.61	0.000177002	0.00485931
3243.09	-0.000482178	0.00735626
3243.55	-0.69873	-0.0203674
3244.01	-0.000302124	0.00486389
3244.49	0.000622559	0.00735168
3244.95	-0.697906	-0.0203735
3245.41	-0.000408936	0.00486481
3245.89	0.000616455	0.0073468
3246.35	-0.698334	-0.0203705
3246.81	-0.000463867	0.00486298
3247.29	0.000601196	0.00734467
3247.75	-0.698578	-0.0203613
3248.21	-0.000408936	0.00486603
3248.69	-0.000439453	0.00735107
3249.15	-0.69812	-0.0203735
3249.61	0.000247192	0.00486481
3250.09	-0.000332642	0.00735413
3250.55	-0.698792	-0.0203613
3251.01	-0.000421143	0.00486847
3251.49	0.000549316	0.00734802
3251.95	-0.698212	-0.0203583
3252.41	0.000238037	0.0048642
3252.89	-0.00045166	0.00734985
3253.35	-0.69812	-0.0203705
3253.81	3.05176e-06	0.0048642
3254.29	0.000778198	0.00734558
3254.75	-0.698029	-0.0203613
3255.21	0.000619507	0.00486328
3255.69	-0.0003479	0.00735291
3256.15	-0.697876	-0.0203583
3256.61	0.000628662	0.00486176
3257.09	-0.000439453	0.00735168
3257.55	-0.697998	-0.0203644
3258.01	-9.15527e-05	0.00486298
3258.49	0.000405884	0.0073465
3258.95	-0.698242	-0.0203522
3259.41	0.00032959	0.00486511
3259.89	-0.00043335	0.00734955
3260.35	-0.697968	-0.0203522
3260.81	0.000189209	0.0048645
3261.29	0.000604248	0.00733978
3261.75	-0.697601	-0.0203613
3262.21	0.000674438	0.00486023
3262.69	-0.000534058	0.00735046
3263.15	-0.6987	-0.0203583
3263.61	0.000775146	0.00486267
3264.09	0.00055542	0.00734039
3264.55	-0.697601	-0.0203583
3265.01	-0.00043335	0.0048703
3265.49	-0.000228882	0.00734894
3265.95	-0.69751	-0.0203552
3266.41	1.2207e-05	0.00486603
3266.89	0.00010376	0.00734528
3267.35	-0.698669	-0.0203552
3267.81	-0.000317383	0.00487152
3268.29	0.000158691	0.00734131
3268.75	-0.69873	-0.0203522
3269.21	0.000567627	0.00487061
3269.69	-0.000561523	0.00734802
3270.15	-0.698151	-0.0203522
3270.61	0.000393677	0.00486511
3271.09	0.000476074	0.007341
3271.55	-0.697662	-0.0203491
3272.01	-0.000222778	0.00487244
3272.49	0.000369263	0.00733978
3272.95	-0.698517	-0.0203461
3273.41	-0.000448608	0.00487122
3273.89	-0.000500488	0.00734528
3274.35	-0.697449	-0.0203522
3274.81	-0.00045166	0.00487213
3275.29	-0.000137329	0.00734039
3275.75	-0.697601	-0.0203552
3276.21	-0.000421143	0.00487122
3276.69	0.000253296	0.00733459
3277.15	-0.697601	-0.0203522
3277.61	0.000546265	0.0048703
3278.09	0.000408936	0.00733612
3278.55	-0.698761	-0.020343
3279.01	0.000302124	0.00486725
3279.49	0.000628662	0.00733398
3279.95	-0.698547	-0.02034
3280.41	0.000219727	0.00487396
3280.89	-2.44141e-05	0.00734039
3281.35	-0.698273	-0.0203552
3281.81	0.000735474	0.00486725
3282.29	-9.76562e-05	0.00733765
3282.75	-0.69812	-0.0203369
3283.21	0.000619507	0.00486786
3283.69	-0.000341797	0.00733734
3284.15	-0.698486	-0.020343
3284.61	0.000769043	0.00486572
3285.09	-0.000369263	0.00733856
3285.55	-0.697632	-0.0203491
3286.01	-0.000219727	0.00487183
3286.49	-0.000161743	0.00733856
3286.95	-0.698822	-0.02034
3287.41	0.000640869	0.00486969
3287.89	0.000717163	0.00733185
3288.35	-0.69812	-0.02034
3288.81	0.000683594	0.00486511
3289.29	0.000552368	0.00733063
3289.75	-0.697876	-0.0203461
3290.21	0.000576782	0.00486877
3290.69	-0.000161743	0.00732941
3291.15	-0.697937	-0.02034
3291.61	0.000845337	0.00487244
3292.09	0.000564575	0.00732727
3292.55	-0.697723	-0.0203369
3293.01	0.000778198	0.00486938
3293.49	0.000588989	0.00733215
3293.95	-0.697968	-0.0203461
3294.41	-0.000241089	0.00487335
3294.89	0.000601196	0.00732666
3295.35	-0.69873	-0.02034
3295.81	0.000460815	0.00487274
3296.29	0.000283813	0.00732849
3296.75	-0.69751	-0.0203369
3297.21	0.000628662	0.00486847
3297.69	-0.000180054	0.00733124
3298.15	-0.69812	-0.0203339
3298.61	-0.000518799	0.00487671
3299.09	0.000628662	0.00732941
3299.55	-0.697968	-0.0203339
3300.01	0.00038147	0.00487061
3300.49	-0.000463867	0.00733276
3300.95	-0.698212	-0.0203247
3301.41	0.000131226	0.0048764
3301.89	-6.40869e-05	0.00732849
3302.35	-0.698059	-0.0203339
3302.81	-0.000128174	0.00487885
3303.29	0.000683594	0.00732391
3303.75	-0.6987	-0.0203217
3304.21	6.10352e-06	0.00487488
3304.69	0.000427246	0.007323
3305.15	-0.69754	-0.0203339
3305.61	0.000238037	0.00487915
3306.09	-9.15527e-06	0.00733093
3306.55	-0.698547	-0.0203217
3307.01	-0.000509644	0.00487885
3307.49	0.000714111	0.00732056
3307.95	-0.698608	-0.0203186
3308.41	-7.01904e-05	0.00487976
3308.89	0.000585937	0.00732208
3309.35	-0.69751	-0.0203247
3309.81	-0.000317383	0.00488068
3310.29	0.000549316	0.00732147
3310.75	-0.698608	-0.0203186
3311.21	-0.000164795	0.0048761
3311.69	1.83105e-05	0.0073233
3312.15	-0.698364	-0.0203125
3312.61	0.000405884	0.00487244
3313.09	-0.000482178	0.00732269
3313.55	-0.697906	-0.0203156
3314.01	-0.000115967	0.00488159
3314.49	-0.000125122	0.00731964
3314.95	-0.697754	-0.0203125
3315.41	0.000717163	0.00487091
3315.89	-0.000500488	0.00732605
3316.35	-0.697784	-0.0203217
3316.81	0.000448608	0.00487305
3317.29	0.000137329	0.00732178
3317.75	-0.69873	-0.0203033
3318.21	0.000695801	0.00487427
3318.69	-0.000473022	0.0073233
3319.15	-0.698761	-0.0203033
3319.61	-0.000311279	0.00488098
3320.09	-0.000476074	0.00732025
3320.55	-0.698151	-0.0203094
3321.01	0.000836182	0.00487549
3321.49	0.000595093	0.00731171
3321.95	-0.697601	-0.0203064
3322.41	-0.000369263	0.00488312
3322.89	-0.00039978	0.00731995
3323.35	-0.698029	-0.0202972
3323.81	0.000463867	0.00487885
3324.29	-0.000518799	0.00731781
3324.75	-0.697906	-0.0202881
3325.21	0.000402832	0.00488007
3325.69	-0.000115967	0.00731415
3326.15	-0.69812	-0.0203033
3326.61	-0.000436401	0.00488159
3327.09	0.000668335	0.00730957
3327.55	-0.697876	-0.0203003
3328.01	-3.96729e-05	0.00487732
3328.49	-0.000570679	0.00731781
3328.95	-0.698608	-0.0202881
3329.41	0.00078125	0.00487793
3329.89	0.00065918	0.00730652
3330.35	-0.698059	-0.0202881
3330.81	0.000106812	0.00487762
3331.29	-0.000115967	0.00731293
3331.75	-0.698853	-0.0202881
3332.21	-0.000192261	0.00488281
3332.69	-0.000506592	0.00731567
3333.15	-0.698822	-0.0202942
3333.61	0.00010376	0.00488312
3334.09	-0.000192261	0.00731567
3334.55	-0.697571	-0.0203003
3335.01	0.000283813	0.00488068
3335.49	0.000274658	0.00731384
3335.95	-0.698212	-0.0202942
3336.41	-0.000546265	0.00488403
3336.89	-0.00012207	0.0073114
3337.35	-0.698212	-0.0203003
3337.81	-0.000137329	0.0048822
3338.29	0.00062561	0.00730347
3338.75	-0.6987	-0.0202911
3339.21	0.000704956	0.00487732
3339.69	0.000668335	0.00730286
3340.15	-0.698456	-0.0202972
3340.61	0.000741577	0.00487671
3341.09	3.35693e-05	0.00730896
3341.55	-0.697601	-0.020285
3342.01	0.000268555	0.00488159
3342.49	4.88281e-05	0.00730774
3342.95	-0.697937	-0.020282
3343.41	0.000216675	0.00487762
3343.89	0.000167847	0.00730316
3344.35	-0.698761	-0.020282
3344.81	-3.05176e-06	0.00488556
3345.29	0.00022583	0.00730011
3345.75	-0.698486	-0.020282
3346.21	-0.000219727	0.00488129
3346.69	-0.000231934	0.0073053
3347.15	-0.697388	-0.020285
3347.61	-0.000161743	0.0048822
3348.09	-0.000509644	0.00730499
3348.55	-0.697998	-0.020285
3349.01	0.000662231	0.00487549
3349.49	-0.000180054	0.00730347
3349.95	-0.698425	-0.020285
3350.41	0.000753784	0.00487518
3350.89	0.000241089	0.00730316
3351.35	-0.698639	-0.0202667
3351.81	-0.000454712	0.00488403
3352.29	-0.000457764	0.00730316
3352.75	-0.697998	-0.0202789
3353.21	0.000442505	0.00487885
3353.69	0.000161743	0.0072937
3354.15	-0.697479	-0.0202759
3354.61	0.000769043	0.00487671
3355.09	1.52588e-05	0.0072934
3355.55	-0.698303	-0.0202759
3356.01	0.000567627	0.00488068
3356.49	0.00050354	0.00729004
3356.95	-0.697784	-0.0202759
3357.41	0.000820923	0.00487885
3357.89	-0.000320435	0.00729126
3358.35	-0.698273	-0.0202759
3358.81	-0.000164795	0.00488068
3359.29	0.000482178	0.00729309
3359.75	-0.697693	-0.0202728
3360.21	0.000143433	0.00488068
3360.69	-0.000418091	0.00729797
3361.15	-0.69812	-0.0202759
3361.61	0.000747681	0.00487976
3362.09	-2.13623e-05	0.00729645
3362.55	-0.697784	-0.0202759
3363.01	3.35693e-05	0.0048822
3363.49	0.0006073	0.00728699
3363.95	-0.6987	-0.0202637
3364.41	-0.000210571	0.00488831
3364.89	0.000680542	0.00728607
3365.35	-0.697723	-0.0202698
3365.81	-8.54492e-05	0.00488892
3366.29	0.000717163	0.00728668
3366.75	-0.698761	-0.0202667
3367.21	0.000222778	0.00487946
3367.69	0.000695801	0.00728516
3368.15	-0.698456	-0.0202698
3368.61	0.000704956	0.00488068
3369.09	-0.000204468	0.00729279
3369.55	-0.698303	-0.0202759
3370.01	0.000643921	0.00487823
3370.49	0.000680542	0.00728455
3370.95	-0.698608	-0.0202698
3371.41	-0.000466919	0.00488861
3371.89	0.000119019	0.00728607
3372.35	-0.698456	-0.0202545
3372.81	8.23975e-05	0.00488922
3373.29	-0.000592041	0.00728638
3373.75	-0.697662	-0.0202637
3374.21	-0.000393677	0.00488678
3374.69	0.000592041	0.0072818
3375.15	-0.697601	-0.0202606
3375.61	-0.000317383	0.00488739
3376.09	0.000418091	0.00728607
3376.55	-0.698303	-0.0202515
3377.01	0.000741577	0.00488251
3377.49	-0.000369263	0.00728851
3377.95	-0.697662	-0.0202545
3378.41	-2.44141e-05	0.00488586
3378.89	0.000585937	0.0072818
3379.35	-0.697601	-0.0202637
3379.81	2.44141e-05	0.00489227
3380.29	-0.000579834	0.00728851
3380.75	-0.697693	-0.0202484
3381.21	0	0.00488953
3381.69	0.000546265	0.0072757
3382.15	-0.698608	-0.0202454
3382.61	-0.000366211	0.00488922
3383.09	-0.000488281	0.00728516
3383.55	-0.697693	-0.0202454
3384.01	3.35693e-05	0.00488586
3384.49	0.000720215	0.00727783
3384.95	-0.698059	-0.0202454
3385.41	-0.000112915	0.00489197
3385.89	0.00038147	0.00729004
3386.35	-0.69812	-0.0202759
3386.81	-0.000436401	0.00489258
3387.29	0.000289917	0.00728882
3387.75	-0.698151	-0.0202881
3388.21	0.000726318	0.00488403
3388.69	0.000125122	0.00729309
3389.15	-0.698334	-0.020285
3389.61	-0.000143433	0.00489227
3390.09	4.27246e-05	0.0072937
3390.55	-0.6987	-0.0202759
3391.01	-0.0003479	0.00489258
3391.49	-0.000460815	0.00729492
3391.95	-0.697571	-0.0202789
3392.41	0.000759888	0.00488434
3392.89	-0.000445557	0.00729248
3393.35	-0.698059	-0.020285
3393.81	0.000558472	0.00488861
3394.29	0.000387573	0.00729034
3394.75	-0.698029	-0.020285
3395.21	-0.000482178	0.00488922
3395.69	0.000222778	0.00729095
3396.15	-0.698761	-0.0202789
3396.61	-9.15527e-06	0.00489014
3397.09	-3.35693e-05	0.0072879
3397.55	-0.697632	-0.0202789
3398.01	5.79834e-05	0.00488831
3398.49	5.18799e-05	0.00728882
3398.95	-0.698669	-0.0202698
3399.41	0.000717163	0.00488586
3399.89	-0.000268555	0.00729309
3400.35	-0.697571	-0.0202789
3400.81	0.000387573	0.00488708
3401.29	-1.52588e-05	0.00728363
3401.75	-0.697876	-0.0202759
3402.21	-3.66211e-05	0.00489532
3402.69	5.49316e-05	0.00728302
3403.15	-0.697754	-0.0202728
3403.61	0.000289917	0.00489166
3404.09	0.000280762	0.00728638
3404.55	-0.69873	-0.0202698
3405.01	0.000158691	0.00488861
3405.49	-0.000521851	0.0072876
3405.95	-0.697449	-0.0202759
3406.41	8.23975e-05	0.00488983
3406.89	0.000283813	0.00728394
3407.35	-0.697632	-0.0202789
3407.81	-0.000372314	0.00489319
3408.29	-0.000485229	0.00728333
3408.75	-0.698059	-0.0202759
3409.21	0.000723267	0.00489258
3409.69	-0.000369263	0.0072818
3410.15	-0.698669	-0.0202759
3410.61	0.000366211	0.0048938
3411.09	-0.000112915	0.00729034
3411.55	-0.698792	-0.0202759
3412.01	7.62939e-05	0.00489502
3412.49	-6.40869e-05	0.00729065
3412.95	-0.698547	-0.0202759
3413.41	-0.000109863	0.00489471
3413.89	-0.000509644	0.00729034
3414.35	-0.697937	-0.0202789
3414.81	-0.000250244	0.00489349
3415.29	-0.000186157	0.0072876
3415.75	-0.697479	-0.0202789
3416.21	0.000747681	0.00488953
3416.69	0.000143433	0.00728668
3417.15	-0.6987	-0.0202759
3417.61	-0.000427246	0.00489319
3418.09	0.000482178	0.00727905
3418.55	-0.698273	-0.0202667
3419.01	0.000427246	0.00488678
3419.49	-0.000473022	0.00728485
3419.95	-0.69873	-0.0202637
3420.41	0.000302124	0.00489319
3420.89	0.000198364	0.00727966
3421.35	-0.69754	-0.0202637
3421.81	0.000112915	0.00489044
3422.29	0.000704956	0.00727539
3422.75	-0.698517	-0.0202759
3423.21	0.000253296	0.00488678
3423.69	0.000357056	0.00727234
3424.15	-0.698761	-0.0202698
3424.61	0.000738525	0.00488617
3425.09	0.000567627	0.00727631
3425.55	-0.698212	-0.0202698
3426.01	-0.000363159	0.00489594
3426.49	-0.000115967	0.00728088
3426.95	-0.697968	-0.020282
3427.41	-0.000363159	0.00489716
3427.89	-0.000448608	0.00727814
3428.35	-0.698395	-0.0202759
3428.81	0.000222778	0.00488892
3429.29	0.000656128	0.00727173
3429.75	-0.698517	-0.0202667
3430.21	-0.000384521	0.00489655
3430.69	0.000738525	0.00727081
3431.15	-0.698792	-0.0202667
3431.61	0.000662231	0.00488617
3432.09	-0.000457764	0.00727386
3432.55	-0.698334	-0.0202576
3433.01	0.000762939	0.00488861
3433.49	-0.000201416	0.00727417
3433.95	-0.697845	-0.0202698
3434.41	-0.000274658	0.00489777
3434.89	0.000686646	0.00726898
3435.35	-0.698486	-0.0202576
3435.81	-0.000265503	0.00489685
3436.29	-0.000161743	0.0072699
3436.75	-0.69873	-0.0202576
3437.21	0.000701904	0.00488831
3437.69	-0.000457764	0.00727173
3438.15	-0.698761	-0.0202484
3438.61	0.000631714	0.00488953
3439.09	0.000268555	0.00726257
3439.55	-0.698456	-0.0202606
3440.01	-0.000457764	0.00489441
3440.49	-0.000518799	0.00727051
3440.95	-0.697968	-0.0202637
3441.41	0.000762939	0.00488892
3441.89	0.000524902	0.00726196
3442.35	-0.698761	-0.0202606
3442.81	-0.000238037	0.00489105
3443.29	-0.00043335	0.00726746
3443.75	-0.697754	-0.0202576
3444.21	-8.23975e-05	0.00489471
3444.69	-0.000482178	0.00726929
3445.15	-0.698181	-0.0202545
3445.61	0.000802612	0.00488892
3446.09	0.000656128	0.0072644
3446.55	-0.698212	-0.0202515
3447.01	0.000445557	0.00489319
3447.49	0.000204468	0.0072641
3447.95	-0.697571	-0.0202545
3448.41	-0.000393677	0.00489502
3448.89	0.000244141	0.00725769
3449.35	-0.698364	-0.0202423
3449.81	-0.000332642	0.00489532
3450.29	0.000686646	0.00725677
3450.75	-0.697632	-0.0202545
3451.21	0.000759888	0.00488831
3451.69	1.2207e-05	0.00725891
3452.15	-0.698639	-0.0202454
3452.61	-0.00039978	0.00489746
3453.09	0.000811768	0.00725525
3453.55	-0.69809	-0.0202484
3454.01	0.000683594	0.00489197
3454.49	0.000186157	0.00725677
3454.95	-0.697784	-0.0202515
3455.41	-0.000454712	0.0048996
3455.89	0.00072937	0.00725494
3456.35	-0.697479	-0.0202393
3456.81	0.00067749	0.00488892
3457.29	3.05176e-05	0.00725952
3457.75	-0.697571	-0.0202423
3458.21	0.000552368	0.00488708
3458.69	3.05176e-06	0.00725647
3459.15	-0.69812	-0.0202393
3459.61	0.00038147	0.00489349
3460.09	-0.000543213	0.00725616
3460.55	-0.6987	-0.0202301
3461.01	0.000131226	0.00488953
3461.49	0.00067749	0.00724915
3461.95	-0.698608	-0.0202271
3462.41	-0.000411987	0.00489868
3462.89	-0.000247192	0.00725922
3463.35	-0.697571	-0.0202332
3463.81	0.000714111	0.00489075
3464.29	-0.000482178	0.00725769
3464.75	-0.6987	-0.0202362
3465.21	-0.000369263	0.00489685
3465.69	0.00038147	0.00725372
3466.15	-0.697571	-0.0202423
3466.61	0.000354004	0.00488983
3467.09	0.000204468	0.007258
3467.55	-0.697449	-0.0202454
3468.01	0.000845337	0.00489105
3468.49	-0.000314331	0.00725952
3468.95	-0.697601	-0.0202515
3469.41	-0.000402832	0.00489807
3469.89	-0.000256348	0.00726166
3470.35	-0.698822	-0.0202484
3470.81	-0.000439453	0.00489929
3471.29	-0.000378418	0.00726044
3471.75	-0.698822	-0.0202454
3472.21	0.000622559	0.00489349
3472.69	0.000717163	0.00725159
3473.15	-0.698761	-0.0202362
3473.61	0.000430298	0.00489227
3474.09	0.000134277	0.00725159
3474.55	-0.697998	-0.0202484
3475.01	0.000759888	0.00489502
3475.49	-0.000518799	0.00725708
3475.95	-0.698029	-0.0202423
3476.41	0.00043335	0.00489532
3476.89	0.000405884	0.00725372
3477.35	-0.697784	-0.0202423
3477.81	-0.000323486	0.00489838
3478.29	0.000421143	0.00725372
3478.75	-0.697479	-0.0202423
3479.21	-0.000418091	0.00490417
3479.69	-0.000439453	0.00725983
3480.15	-0.697601	-0.0202423
3480.61	0.000570679	0.00489655
3481.09	0.000527954	0.00724731
3481.55	-0.698212	-0.0202423
3482.01	0.000839233	0.00489563
3482.49	-0.000466919	0.00725586
3482.95	-0.698669	-0.0202209
3483.41	0.000411987	0.00489594
3483.89	0.000497437	0.00725098
3484.35	-0.697662	-0.0202393
3484.81	-5.79834e-05	0.0048996
3485.29	0.00045166	0.00725098
3485.75	-0.697723	-0.0202362
3486.21	0.000653076	0.00489655
3486.69	-0.000314331	0.00725433
3487.15	-0.698151	-0.0202271
3487.61	-0.000320435	0.00490326
3488.09	0.000341797	0.00725037
3488.55	-0.698334	-0.020224
3489.01	-0.000402832	0.00490479
3489.49	6.10352e-06	0.00725586
3489.95	-0.698792	-0.0202209
3490.41	6.10352e-06	0.00489624
3490.89	-0.000469971	0.00725586
3491.35	-0.698029	-0.0202332
3491.81	0.000405884	0.00489929
3492.29	0.000213623	0.00724915
3492.75	-0.697937	-0.0202362
3493.21	-0.000430298	0.00490662
3493.69	-0.000195313	0.00725616
3494.15	-0.698151	-0.0202301
3494.61	0.00038147	0.00490143
3495.09	0.000219727	0.00725098
3495.55	-0.69873	-0.0202271
3496.01	0.000552368	0.00489838
3496.49	-0.000436401	0.00725159
3496.95	-0.698822	-0.0202209
3497.41	-2.74658e-05	0.00490692
3497.89	-0.000314331	0.00725037
3498.35	-0.698273	-0.0202209
3498.81	-0.000424194	0.00490814
3499.29	-0.000241089	0.00725525
3499.75	-0.698059	-0.0202209
3500.21	-0.000396729	0.00491058
3500.69	-0.000457764	0.00725403
3501.15	-0.697601	-0.0202332
3501.61	-0.000228882	0.00490692
3502.09	-0.000115967	0.00724976
3502.55	-0.698029	-0.0202179
3503.01	0.00050354	0.00490204
3503.49	7.62939e-05	0.00724365
3503.95	-0.698761	-0.0202148
3504.41	-0.000521851	0.00490814
3504.89	-5.79834e-05	0.00724518
3505.35	-0.698761	-0.0202179
3505.81	0.000762939	0.00490204
3506.29	-0.000506592	0.00725098
3506.75	-0.697632	-0.0202209
3507.21	0.000646973	0.00490417
3507.69	0.000393677	0.00724335
3508.15	-0.698242	-0.0202087
3508.61	7.62939e-05	0.00490875
3509.09	0.000613403	0.00724365
3509.55	-0.69873	-0.0202148
3510.01	0.000579834	0.00490356
3510.49	-0.000531006	0.00725128
3510.95	-0.697601	-0.0202148
3511.41	0.000540161	0.00490143
3511.89	0.000720215	0.00724243
3512.35	-0.697754	-0.0202209
3512.81	-0.000436401	0.00491547
3513.29	1.52588e-05	0.00724609
3513.75	-0.698303	-0.0202057
3514.21	0.000216675	0.00490662
3514.69	-6.10352e-06	0.00724396
3515.15	-0.698486	-0.0202026
3515.61	0.000436401	0.00490631
3516.09	-0.000292969	0.00724731
3516.55	-0.697784	-0.0202179
3517.01	0.000598145	0.00490479
3517.49	0.000201416	0.00724945
3517.95	-0.698792	-0.0202026
3518.41	0.000778198	0.00490814
3518.89	0.000744629	0.00724152
3519.35	-0.69809	-0.0202209
3519.81	0.000769043	0.00490936
3520.29	-2.13623e-05	0.0072467
3520.75	-0.698212	-0.0202087
3521.21	-0.000396729	0.00491699
3521.69	0.000622559	0.00724152
3522.15	-0.698792	-0.0202087
3522.61	0.000720215	0.0049115
3523.09	-1.2207e-05	0.0072464
3523.55	-0.697723	-0.0202148
3524.01	3.96729e-05	0.00491577
3524.49	0.000598145	0.00724152
3524.95	-0.698334	-0.0202026
3525.41	0.000628662	0.00490906
3525.89	0.000750732	0.00723846
3526.35	-0.69873	-0.0201996
3526.81	0.000680542	0.00490814
3527.29	0.0003479	0.00724426
3527.75	-0.697601	-0.0202118
3528.21	-0.000384521	0.00491974
3528.69	0.000332642	0.00723999
3529.15	-0.69873	-0.0202026
3529.61	-0.000436401	0.0049176
3530.09	0.000350952	0.00723907
3530.55	-0.698364	-0.0202087
3531.01	-8.54492e-05	0.0049115
3531.49	0.000601196	0.00724152
3531.95	-0.697968	-0.0202179
3532.41	-0.000134277	0.00491119
3532.89	0.000106812	0.0072406
3533.35	-0.697571	-0.0202759
3533.81	-0.000384521	0.0049234
3534.29	3.96729e-05	0.00727692
3534.75	-0.69873	-0.0202759
3535.21	0.000192261	0.00492493
3535.69	-0.000427246	0.00727661
3536.15	-0.697632	-0.0202789
3536.61	0.000579834	0.00492065
3537.09	0.000650024	0.00726532
3537.55	-0.697449	-0.0202789
3538.01	7.01904e-05	0.00492462
3538.49	-0.000323486	0.00727051
3538.95	-0.69873	-0.0202759
3539.41	0.000613403	0.00492432
3539.89	0.000692749	0.00726959
3540.35	-0.698364	-0.0202667
3540.81	3.35693e-05	0.00492981
3541.29	0.000622559	0.00726532
3541.75	-0.698761	-0.0202667
3542.21	-0.000357056	0.00493103
3542.69	-0.000271606	0.00727142
3543.15	-0.697601	-0.0202789
3543.61	0.000656128	0.00492096
3544.09	-0.000216675	0.00727264
3544.55	-0.697998	-0.0202667
3545.01	-0.00038147	0.00493073
3545.49	8.8501e-05	0.00726501
3545.95	-0.698822	-0.0202698
3546.41	0.00067749	0.00491943
3546.89	-0.000280762	0.00727051
3547.35	-0.698273	-0.0202698
3547.81	0.000750732	0.00492035
3548.29	-0.000424194	0.00726959
3548.75	-0.697784	-0.020285
3549.21	-0.000448608	0.00492859
3549.69	0.000109863	0.00726746
3550.15	-0.69873	-0.0202606
3550.61	3.05176e-06	0.00492889
3551.09	5.18799e-05	0.00726349
3551.55	-0.698792	-0.0202667
3552.01	0.000741577	0.004921875
3552.49	-0.000518799	0.0072702
3552.95	-0.698334	-0.0202667
3553.41	0.00067749	0.00492249
3553.89	-0.000476074	0.00726898
3554.35	-0.69873	-0.0202576
3554.81	0.000796509	0.00492218
3555.29	-0.000460815	0.00726288
3555.75	-0.698425	-0.0202606
3556.21	0.000756836	0.00492706
3556.69	-0.000228882	0.00726379
3557.15	-0.697998	-0.0202637
3557.61	0.000515747	0.00492828
3558.09	0.00017395	0.00725983
3558.55	-0.697662	-0.0202667
3559.01	0.000198364	0.00492767
3559.49	0.000497437	0.00725555
3559.95	-0.697693	-0.0202667
3560.41	-0.000134277	0.0049295
3560.89	0.000335693	0.00726135
3561.35	-0.698486	-0.0202545
3561.81	0.000753784	0.00492584
3562.29	0.00072937	0.00725677
3562.75	-0.698792	-0.0202545
3563.21	-0.000537109	0.00493134
3563.69	-0.000128174	0.00726105
3564.15	-0.69873	-0.0202484
3564.61	-0.000250244	0.00493439
3565.09	0.000241089	0.00725952
3565.55	-0.69873	-0.0202545
3566.01	0.000442505	0.00492554
3566.49	-0.000280762	0.00725922
3566.95	-0.69751	-0.0202484
3567.41	0.000308228	0.0049292
3567.89	0.000653076	0.00725189
3568.35	-0.697693	-0.0202606
3568.81	-0.00022583	0.00493103
3569.29	0.000704956	0.0072522
3569.75	-0.698212	-0.0202576
3570.21	-0.000494385	0.00493195
3570.69	-0.000109863	0.00726013
3571.15	-0.697723	-0.0202576
3571.61	0.000128174	0.00493195
3572.09	-0.000378418	0.00725861
3572.55	-0.697571	-0.0202515
3573.01	-6.71387e-05	0.00493469
3573.49	-7.32422e-05	0.007258
3573.95	-0.698639	-0.0202606
3574.41	-0.00027771	0.00493805
3574.89	0.000650024	0.0072644
3575.35	-0.69754	-0.0202759
3575.81	0.000756836	0.00493042
3576.29	-0.000473022	0.00727203
3576.75	-0.698181	-0.0202759
3577.21	0.00045166	0.00493042
3577.69	-0.000515747	0.00726685
3578.15	-0.697998	-0.0202789
3578.61	0.000183105	0.00493317
3579.09	0.000570679	0.0072641
3579.55	-0.698364	-0.0202667
3580.01	0.000350952	0.00493286
3580.49	-0.000311279	0.00726959
3580.95	-0.698761	-0.0202698
3581.41	0.000723267	0.00493103
3581.89	0.000363159	0.00726685
3582.35	-0.697632	-0.0202759
3582.81	-0.000445557	0.00493896
3583.29	-0.00015564	0.00726715
3583.75	-0.698608	-0.0202698
3584.21	-0.000271606	0.00493378
3584.69	-0.000128174	0.00726898
3585.15	-0.698486	-0.0202576
3585.61	-0.000366211	0.00493835
3586.09	-0.000314331	0.00727112
3586.55	-0.697845	-0.0202576
3587.01	0.000668335	0.00493286
3587.49	0.000332642	0.007265625
3587.95	-0.697479	-0.0202637
3588.41	3.05176e-06	0.00493378
3588.89	3.05176e-06	0.00726501
3589.35	-0.698578	-0.0202576
3589.81	-0.000448608	0.00493896
3590.29	-0.000262451	0.00726532
3590.75	-0.698639	-0.0202484
3591.21	-0.000158691	0.00494415
3591.69	-0.000357056	0.00726746
3592.15	-0.69873	-0.0202576
3592.61	0.000161743	0.00493317
3593.09	0.000195313	0.007258
3593.55	-0.698151	-0.0202515
3594.01	-0.000421143	0.0049408
3594.49	-0.00015564	0.007258
3594.95	-0.698853	-0.0202545
3595.41	-6.10352e-05	0.00493805
3595.89	-0.000506592	0.00726288
3596.35	-0.69812	-0.0202545
3596.81	0.000149536	0.00493469
3597.29	-0.000524902	0.00726196
3597.75	-0.697662	-0.0202545
3598.21	0.000778198	0.00493622
3598.69	-0.000219727	0.00725525
3599.15	-0.698029	-0.0202545
3599.61	0.000204468	0.00493042
3600.09	-0.000210571	0.00726044
3600.55	-0.698456	-0.0202484
3601.01	-0.000469971	0.00494141
3601.49	0.000601196	0.00725281
3601.95	-0.697693	-0.0202454
3602.41	-6.10352e-05	0.00493622
3602.89	0.000448608	0.00725555
3603.35	-0.698761	-0.0202545
3603.81	0.00071106	0.00493683
3604.29	-0.000430298	0.007265625
3604.75	-0.698059	-0.0202698
3605.21	-0.000512695	0.00494324
3605.69	-0.000192261	0.00725861
3606.15	-0.69812	-0.0202515
3606.61	-0.000119019	0.00493652
3607.09	0.000219727	0.00725983
3607.55	-0.697662	-0.0202637
3608.01	0.000125122	0.00493866
3608.49	0.000253296	0.00725647
3608.95	-0.698425	-0.0202637
3609.41	0.0003479	0.00493774
3609.89	0.000390625	0.00725769
3610.35	-0.697723	-0.0202606
3610.81	0.000653076	0.00493347
3611.29	-0.000289917	0.00726074
3611.75	-0.697998	-0.0202667
3612.21	0.000341797	0.0049411
3612.69	0.000552368	0.00725708
3613.15	-0.698608	-0.0202606
3613.61	0.000735474	0.00493744
3614.09	0.000689697	0.00725006
3614.55	-0.69873	-0.0202515
3615.01	-0.000384521	0.00494171
3615.49	-0.000479126	0.00726074
3615.95	-0.698578	-0.0202515
3616.41	0.000268555	0.00493805
3616.89	-0.000259399	0.00726318
3617.35	-0.698517	-0.0202484
3617.81	-0.000332642	0.00494659
3618.29	0.000469971	0.00725342
3618.75	-0.69873	-0.0202515
3619.21	-0.000430298	0.00494476
3619.69	-0.000634766	0.00725677
3620.15	-0.697723	-0.0202637
3620.61	0.00012207	0.00493713
3621.09	-0.000500488	0.00725769
3621.55	-0.697723	-0.0202576
3622.01	-0.000448608	0.00494659
3622.49	-0.000415039	0.00725952
3622.95	-0.698578	-0.0202606
3623.41	-0.00032959	0.00494476
3623.89	5.49316e-05	0.00725616
3624.35	-0.698761	-0.0202545
3624.81	-0.000375366	0.00494324
3625.29	0.000106812	0.00725403
3625.75	-0.698761	-0.0202515
3626.21	-3.66211e-05	0.00494019
3626.69	0.000524902	0.00725372
3627.15	-0.69873	-0.0202484
3627.61	0.000552368	0.00493683
3628.09	-0.000448608	0.00725525
3628.55	-0.698792	-0.0202454
3629.01	0.00078125	0.00493896
3629.49	-0.000250244	0.00725281
3629.95	-0.698822	-0.0202545
3630.41	0.000100708	0.00494568
3630.89	0.00067749	0.00724609
3631.35	-0.698547	-0.0202576
3631.81	-0.000445557	0.00494659
3632.29	-0.000418091	0.00725464
3632.75	-0.697632	-0.0202545
3633.21	3.35693e-05	0.00494476
3633.69	-0.000588989	0.0072525
3634.15	-0.698273	-0.0202484
3634.61	0.000622559	0.00493683
3635.09	-0.000485229	0.00725342
3635.55	-0.69754	-0.0202576
3636.01	0.000332642	0.00493805
3636.49	-0.000244141	0.00724854
3636.95	-0.698486	-0.0202362
3637.41	0.000765991	0.00493896
3637.89	0.000650024	0.00724487
3638.35	-0.698425	-0.0202515
3638.81	0.000509644	0.00494232
3639.29	0.00055542	0.00724396
3639.75	-0.697754	-0.0202515
3640.21	0.000320435	0.00494446
3640.69	0.000650024	0.00724701
3641.15	-0.697815	-0.0202362
3641.61	0.000497437	0.00493622
3642.09	-0.000421143	0.00724457
3642.55	-0.69754	-0.0202454
3643.01	0.000714111	0.00493713
3643.49	0.000717163	0.0072403
3643.95	-0.697937	-0.0202515
3644.41	-0.000341797	0.00494598
3644.89	-0.00027771	0.00724609
3645.35	-0.697632	-0.0202484
3645.81	0.000308228	0.00493988
3646.29	0.000350952	0.00724396
3646.75	-0.697784	-0.0202362
3647.21	0.000204468	0.00494415
3647.69	-0.00045166	0.00724182
3648.15	-0.69873	-0.0202332
3648.61	0.000286865	0.00494598
3649.09	0.000692749	0.00723816
3649.55	-0.698761	-0.0202301
3650.01	-0.00045166	0.0049472
3650.49	-0.000497437	0.00724304
3650.95	-0.697937	-0.0202332
3651.41	0.000704956	0.00493744
3651.89	0.000543213	0.00723236
3652.35	-0.698395	-0.0202271
3652.81	-0.0003479	0.00494751
3653.29	-0.000390625	0.00723846
3653.75	-0.6987	-0.0202301
3654.21	0.000222778	0.00494171
3654.69	-0.000234985	0.0072403
3655.15	-0.698761	-0.0202271
3655.61	0.00072937	0.00493744
3656.09	-9.15527e-05	0.00723206
3656.55	-0.697784	-0.0202393
3657.01	0.000601196	0.00493866
3657.49	-0.000543213	0.00723633
3657.95	-0.69754	-0.0202362
3658.41	0.000765991	0.00494019
3658.89	0.000631714	0.00722687
3659.35	-0.697449	-0.0202332
3659.81	-0.000283813	0.00494598
3660.29	-0.000296021	0.00723816
3660.75	-0.698761	-0.020224
3661.21	9.76562e-05	0.00494446
3661.69	-0.000338745	0.00723602
3662.15	-0.698486	-0.0202271
3662.61	0.000845337	0.00494019
3663.09	0.000762939	0.00722778
3663.55	-0.69754	-0.0202271
3664.01	-0.000445557	0.00494507
3664.49	0.000540161	0.0072229
3664.95	-0.698334	-0.0202301
3665.41	7.93457e-05	0.00494598
3665.89	-0.000216675	0.00723236
3666.35	-0.698792	-0.020224
3666.81	0.000622559	0.00493896
3667.29	0.000704956	0.00722229
3667.75	-0.698761	-0.0202209
3668.21	-0.00032959	0.00494904
3668.69	-0.000100708	0.00722778
3669.15	-0.697601	-0.020224
3669.61	-0.000219727	0.00494843
3670.09	-0.000149536	0.00723206
3670.55	-0.697754	-0.0202271
3671.01	0.000119019	0.00494629
3671.49	0.000671387	0.00722382
3671.95	-0.698547	-0.0202271
3672.41	0.000601196	0.00493866
3672.89	0.000408936	0.00722107
3673.35	-0.698822	-0.020224
3673.81	-0.000457764	0.00494537
3674.29	0.000686646	0.00722137
3674.75	-0.697906	-0.0202271
3675.21	-0.000332642	0.00494751
3675.69	-0.000457764	0.00722778
3676.15	-0.697845	-0.0202148
3676.61	0.00045166	0.00493866
3677.09	-0.00043335	0.00722839
3677.55	-0.698578	-0.0202118
3678.01	0.00032959	0.00493866
3678.49	0.000372314	0.00721863
3678.95	-0.698669	-0.0202087
3679.41	0.000726318	0.00493835
3679.89	-0.000363159	0.00722137
3680.35	-0.697845	-0.0202179
3680.81	-0.000262451	0.00494293
3681.29	0.000546265	0.00721741
3681.75	-0.697662	-0.0202148
3682.21	0.000744629	0.00494049
3682.69	0.000701904	0.00721954
3683.15	-0.698761	-0.0202087
3683.61	0.000756836	0.00493835
3684.09	0.000372314	0.00721466
3684.55	-0.698364	-0.0202026
3685.01	-2.44141e-05	0.00493896
3685.49	0.000564575	0.00721344
3685.95	-0.698273	-0.0202026
3686.41	-0.000378418	0.00494904
3686.89	-0.000494385	0.00722107
3687.35	-0.698151	-0.0202026
3687.81	-0.000372314	0.00494568
3688.29	0.000323486	0.00721313
3688.75	-0.697418	-0.0202026
3689.21	0.000454712	0.00494171
3689.69	0.00027771	0.00721313
3690.15	-0.69809	-0.0202057
3690.61	0.000543213	0.00493744
3691.09	-0.000402832	0.00721375
3691.55	-0.6987	-0.0201935
3692.01	-0.000476074	0.00494629
3692.49	-0.000531006	0.0072171
3692.95	-0.698425	-0.0201965
3693.41	0.00065918	0.00493744
3693.89	-0.000411987	0.00721527
3694.35	-0.698669	-0.0201965
3694.81	0.000369263	0.0049408
3695.29	-0.000256348	0.00721558
3695.75	-0.698364	-0.0202087
3696.21	-0.000222778	0.00494385
3696.69	0.000506592	0.00720673
3697.15	-0.698761	-0.0201965
3697.61	0.000747681	0.00493713
3698.09	0.00055542	0.00720795
3698.55	-0.697784	-0.0201965
3699.01	0.000848389	0.00494019
3699.49	0.000775146	0.00721008
3699.95	-0.698334	-0.0201965
3700.41	-0.000427246	0.00495056
3700.89	-2.74658e-05	0.00721161
3701.35	-0.698853	-0.0201904
3701.81	-0.000357056	0.00495331
3702.29	0.000698853	0.0072052
3702.75	-0.69754	-0.0201874
3703.21	0.000363159	0.00494415
3703.69	0.000344849	0.00720459
3704.15	-0.697845	-0.0202026
3704.61	0.000302124	0.00494568
3705.09	0.000643921	0.00720367
3705.55	-0.697845	-0.0201965
3706.01	-0.000494385	0.00494659
3706.49	-0.000469971	0.00721222
3706.95	-0.698578	-0.0201935
3707.41	-0.000222778	0.00494385
3707.89	-0.000283813	0.00720978
3708.35	-0.697968	-0.0201965
3708.81	-0.000314331	0.0049469
3709.29	0.000634766	0.00720306
3709.75	-0.697723	-0.0201904
3710.21	-0.000332642	0.00495117
3710.69	0.000674438	0.00720398
3711.15	-0.697998	-0.0201813
3711.61	-3.05176e-05	0.00494934
3712.09	-0.000344849	0.00720978
3712.55	-0.698792	-0.0201782
3713.01	0.000823975	0.00494263
3713.49	-0.000311279	0.00720306
3713.95	-0.697601	-0.0201843
3714.41	-0.00039978	0.00495087
3714.89	0.000585937	0.0071994
3715.35	-0.697815	-0.0201813
3715.81	0.000137329	0.00494568
3716.29	0.000656128	0.00719879
3716.71	-6.10352e-05	0.00360992