File: Edgar/20240605/20240605/electrodeposition_pulsed_potential_20240605_B/pulses_0_to_1000.txt
Time (s)	WE(1).Potential (V)	WE(1).Current (A)
181.727	-0.698547	-0.00457794
182.187	0.00050354	-7.93457e-07
182.667	0.00027771	0.000101196
183.127	-0.69873	-0.00463013
183.587	-0.000268555	1.55029e-05
184.067	-0.000302124	0.000144073
184.527	-0.698486	-0.00533173
184.987	0.000357056	1.23291e-05
185.467	0.000674438	0.000161774
185.927	-0.6987	-0.00608154
186.387	0.000671387	1.40381e-06
186.867	0.000421143	0.000171844
187.327	-0.698517	-0.00679718
187.787	0.000186157	-1.37024e-05
188.267	0.000344849	0.000165588
188.727	-0.698456	-0.00741913
189.187	-0.000183105	-3.37524e-05
189.667	0.000613403	0.000153595
190.127	-0.699249	-0.00793152
190.587	-1.2207e-05	-5.49927e-05
191.067	-8.54492e-05	0.000155365
191.527	-0.698547	-0.00838928
191.987	0.000134277	-7.9834e-05
192.467	0.000717163	0.000151276
192.927	-0.699066	-0.0087616
193.387	0.00071106	-9.56116e-05
193.867	0.000494385	0.000168549
194.327	-0.699097	-0.00912476
194.787	0.000662231	-0.000109863
195.267	0.00020752	0.000199219
195.727	-0.699188	-0.00945129
196.187	0.00057373	-0.00012146
196.667	0.00055542	0.000238281
197.127	-0.69928	-0.00976257
197.587	0.000292969	-0.000128448
198.067	-0.000296021	0.000299835
198.527	-0.698822	-0.0100494
198.987	0.000640869	-0.000140289
199.467	0.000473022	0.000363037
199.927	-0.698456	-0.0103241
200.387	-0.00020752	-0.000142303
200.867	-0.000344849	0.000452148
201.327	-0.698425	-0.0105988
201.787	-0.000292969	-0.000149994
202.267	0.000360107	0.000543823
202.727	-0.69931	-0.0108398
203.187	0.000765991	-0.000164215
203.667	0.000332642	0.000653381
204.127	-0.69928	-0.0110779
204.587	0.000457764	-0.000166351
205.067	-6.40869e-05	0.000779724
205.527	-0.699249	-0.0113098
205.987	2.44141e-05	-0.000171173
206.467	0.00027771	0.000911865
206.927	-0.698242	-0.0115387
207.387	-0.000286865	-0.000176361
207.867	0.000585937	0.00105194
208.327	-0.698303	-0.0117462
208.787	-0.000283813	-0.000182159
209.267	0.000546265	0.0012027
209.727	-0.698669	-0.0119507
210.187	0.000241089	-0.00019101
210.667	0.000741577	0.00135803
211.127	-0.698639	-0.0121399
211.587	0.000598145	-0.000198486
212.067	3.96729e-05	0.00152832
212.527	-0.698456	-0.0123138
212.987	0.000408936	-0.000201355
213.467	0.000750732	0.00168854
213.927	-0.699097	-0.0125
214.387	0.000415039	-0.000203247
214.867	-0.000198364	0.00186554
215.327	-0.698242	-0.012677
215.787	-0.000268555	-0.000204407
216.267	0.000845337	0.00203186
216.727	-0.698273	-0.0128387
217.187	0.000280762	-0.000214417
217.667	0.000238037	0.00220398
218.127	-0.698761	-0.0130005
218.587	0.00038147	-0.000213013
219.067	-0.000198364	0.00238525
219.527	-0.698181	-0.0131561
219.987	0.000485229	-0.000221313
220.467	0.000238037	0.00255341
220.927	-0.698456	-0.0133026
221.387	-0.000262451	-0.000218597
221.867	0.000482178	0.00272034
222.327	-0.698303	-0.0134491
222.787	-0.00010376	-0.000222565
223.267	0.000280762	0.002890625
223.727	-0.69812	-0.0135925
224.187	-0.00015564	-0.000224487
224.667	0.00020752	0.00305939
225.127	-0.698425	-0.0137268
225.587	4.27246e-05	-0.000228424
226.067	-0.000137329	0.00322723
226.527	-0.698425	-0.0138458
226.987	0.000701904	-0.000236267
227.467	0.00057373	0.00338715
227.927	-0.699158	-0.013974
228.387	0.000640869	-0.00023819
228.867	0.000769043	0.00354462
229.327	-0.699127	-0.0141052
229.787	0.000753784	-0.000241669
230.267	0.000732422	0.00370209
230.727	-0.699127	-0.0142242
231.187	0.00045166	-0.000242767
231.667	-0.000170898	0.00385345
232.127	-0.69809	-0.0143433
232.587	0.000765991	-0.000244263
233.067	-0.000219727	0.0040033
233.527	-0.698059	-0.0144592
233.987	0.000750732	-0.000245544
234.467	0.000119019	0.00414368
234.927	-0.699005	-0.0145569
235.387	-0.000222778	-0.00024118
235.867	0.000527954	0.00428436
236.327	-0.699158	-0.0146698
236.787	0.000714111	-0.000249756
237.267	-0.000250244	0.00442322
237.727	-0.697968	-0.0147797
238.187	0.000335693	-0.000247955
238.667	2.44141e-05	0.0045517
239.127	-0.698181	-0.0148743
239.587	-0.000231934	-0.000245911
240.067	0.000350952	0.00467926
240.527	-0.699036	-0.0149719
240.987	0.000656128	-0.000253632
241.467	0.000524902	0.00480164
241.927	-0.699036	-0.0150696
242.387	0.000622559	-0.00025531
242.867	0.000689697	0.00491882
243.327	-0.698944	-0.0151672
243.787	3.96729e-05	-0.000254517
244.267	0.000231934	0.00503937
244.727	-0.698334	-0.0152527
245.187	0.000671387	-0.000257507
245.667	0.000408936	0.00514496
246.127	-0.698975	-0.0153473
246.587	0.000671387	-0.000258301
247.067	-0.000274658	0.0052594
247.527	-0.699005	-0.0154297
247.987	0.000238037	-0.000254303
248.467	0.000582886	0.00535828
248.927	-0.69812	-0.0155182
249.387	0.000442505	-0.000256775
249.867	-0.000268555	0.00546356
250.327	-0.698029	-0.0156006
250.787	-4.57764e-05	-0.000253784
251.267	0.000430298	0.00555756
251.727	-0.698761	-0.0156799
252.187	0.000167847	-0.000255615
252.667	0.000219727	0.00565491
253.127	-0.698608	-0.0157501
253.587	0.000604248	-0.000258606
254.067	-0.000302124	0.00574921
254.527	-0.699005	-0.0158295
254.987	-0.000146484	-0.00025174
255.467	-0.000177002	0.00583679
255.927	-0.69809	-0.0159088
256.387	0.000579834	-0.000257202
256.867	8.8501e-05	0.00592224
257.327	-0.698883	-0.0159821
257.787	-0.000320435	-0.000250061
258.267	0.000152588	0.00599945
258.727	-0.698944	-0.0160522
259.187	-0.00012207	-0.000249115
259.667	-0.000323486	0.00608643
260.127	-0.698456	-0.0161224
260.587	0.000128174	-0.000250092
261.067	5.49316e-05	0.00616211
261.527	-0.698761	-0.0161926
261.987	0.000482178	-0.000253235
262.467	-0.000158691	0.00623962
262.927	-0.698212	-0.0162628
263.387	0.000244141	-0.000249756
263.867	0.000137329	0.00631165
264.327	-0.698761	-0.01633
264.787	0.000195313	-0.000248169
265.267	0.000354004	0.00638306
265.727	-0.697937	-0.0163971
266.187	-0.000234985	-0.000243011
266.667	-3.35693e-05	0.00645569
267.127	-0.698853	-0.0164612
267.587	0.000588989	-0.000245972
268.067	-0.000256348	0.0065271
268.527	-0.698029	-0.0165314
268.987	-0.000192261	-0.000238678
269.467	9.15527e-05	0.00658691
269.927	-0.698578	-0.0165863
270.387	-0.000234985	-0.000234314
270.867	0.000646973	0.00665161
271.327	-0.698853	-0.0166473
271.787	-0.000286865	-0.000234222
272.267	0.000616455	0.0067157
272.727	-0.698914	-0.0167023
273.187	-0.000195313	-0.000230682
273.667	-3.05176e-06	0.00677887
274.127	-0.698059	-0.0167725
274.587	0.000476074	-0.00022934
275.067	0.000177002	0.00682739
275.527	-0.698181	-0.0168274
275.987	-0.000131226	-0.000223267
276.467	-2.13623e-05	0.00688873
276.927	-0.698181	-0.0168854
277.387	0.000579834	-0.000224182
277.867	-6.71387e-05	0.0069455
278.327	-0.699036	-0.0169342
278.787	0.000152588	-0.000218719
279.267	0.000476074	0.00699341
279.727	-0.698914	-0.01698
280.187	-6.10352e-06	-0.000212952
280.667	0.000335693	0.00704437
281.127	-0.6987	-0.017038
281.587	-0.000195313	-0.000207123
282.067	-0.000405884	0.00710358
282.527	-0.697937	-0.0170959
282.987	0.000482178	-0.000208435
283.467	3.66211e-05	0.0071463
283.927	-0.698486	-0.0171448
284.387	0.000759888	-0.000204926
284.867	-0.000448608	0.00719971
285.327	-0.69873	-0.0171906
285.787	0.000195313	-0.000194183
286.267	0.00045166	0.00724518
286.727	-0.697937	-0.0172394
287.187	-0.00010376	-0.000189026
287.667	-0.000393677	0.00729675
288.127	-0.698914	-0.0172852
288.587	0.000692749	-0.000190308
289.067	0.000518799	0.0073288
289.527	-0.698669	-0.0173279
289.987	0.000375366	-0.000183685
290.467	-0.000180054	0.00737518
290.927	-0.698303	-0.0173737
291.387	0.000109863	-0.000176239
291.867	0.000268555	0.00741669
292.327	-0.698914	-0.0174286
292.787	-0.000271606	-0.00016684
293.267	-0.000363159	0.00746521
293.727	-0.698059	-0.0174713
294.187	-0.000253296	-0.000161285
294.667	5.18799e-05	0.00750732
295.127	-0.697845	-0.0175232
295.587	-0.000177002	-0.000155701
296.067	-7.01904e-05	0.00754089
296.527	-0.697876	-0.0175598
296.987	-7.01904e-05	-0.000152557
297.467	-0.000592041	0.00758362
297.927	-0.697968	-0.0176117
298.387	0.000613403	-0.000146576
298.867	0.000268555	0.00761414
299.327	-0.698334	-0.0176514
299.787	0.000354004	-0.000139191
300.267	-0.000436401	0.00765991
300.727	-0.69873	-0.0176788
301.187	0.000326538	-0.000134125
301.667	-0.000442505	0.00769958
302.127	-0.698853	-0.0177185
302.587	2.44141e-05	-0.000124237
303.067	0.000469971	0.00772705
303.527	-0.698395	-0.0177551
303.987	0.000637817	-0.000121674
304.467	-0.000311279	0.00777283
304.927	-0.698517	-0.0177917
305.387	0.000704956	-0.00011554
305.867	-0.000369263	0.00779114
306.327	-0.698608	-0.0178436
306.787	0.000274658	-0.000105103
307.267	-0.000302124	0.00782776
307.727	-0.698822	-0.0178741
308.187	-0.000180054	-9.47571e-05
308.667	-0.000549316	0.00787048
309.127	-0.6987	-0.0179138
309.587	-0.000326538	-8.74023e-05
310.067	-0.00045166	0.00788879
310.527	-0.697998	-0.0179535
310.987	0.000723267	-8.57544e-05
311.467	-1.83105e-05	0.00791626
311.927	-0.698639	-0.0179749
312.387	-0.000292969	-6.97021e-05
312.867	0.000454712	0.00795288
313.327	-0.697876	-0.0180206
313.787	0.000384521	-6.61926e-05
314.267	-0.000314331	0.00797729
314.727	-0.698425	-0.0180573
315.187	4.57764e-05	-5.71594e-05
315.667	-0.000100708	0.00801392
316.127	-0.698944	-0.0180878
316.587	7.01904e-05	-4.82178e-05
317.067	0.000469971	0.00803528
317.527	-0.698242	-0.0181183
317.987	0.000653076	-4.41589e-05
318.467	0.000460815	0.0080658
318.927	-0.698639	-0.0181519
319.387	-0.000146484	-3.11279e-05
319.867	-7.62939e-05	0.00809021
320.327	-0.697876	-0.0181946
320.787	-0.00022583	-2.13928e-05
321.267	-0.000531006	0.00812378
321.727	-0.697784	-0.0182251
322.187	0.000488281	-2.05994e-05
322.667	-1.83105e-05	0.00814819
323.127	-0.69812	-0.0182526
323.587	0.000250244	-4.15039e-06
324.067	0.000524902	0.00817261
324.527	-0.698547	-0.0182922
324.987	0.000585937	2.13623e-07
325.467	-0.00043335	0.00819397
325.927	-0.698212	-0.0183197
326.387	-0.000192261	1.40381e-05
326.867	-0.000341797	0.00821838
327.327	-0.698853	-0.0183472
327.787	-0.000253296	2.41089e-05
328.267	-0.000405884	0.00823364
328.727	-0.69812	-0.0183868
329.187	-3.96729e-05	3.10669e-05
329.667	-0.000488281	0.00826721
330.127	-0.697906	-0.0184082
330.587	0.000604248	3.66211e-05
331.067	0.000439453	0.00827637
331.527	-0.698212	-0.0184357
331.987	-0.000167847	4.95911e-05
332.467	-0.00032959	0.00829773
332.927	-0.697845	-0.0184692
333.387	0.000405884	5.56335e-05
333.867	0.000479126	0.00831909
334.327	-0.697937	-0.0185028
334.787	-0.000338745	6.84814e-05
335.267	0.000265503	0.00834656
335.727	-0.698425	-0.0185272
336.187	0.000756836	7.26624e-05
336.667	-0.000152588	0.00837097
337.127	-0.698853	-0.0185608
337.587	-0.000265503	8.80127e-05
338.067	0.000393677	0.00838013
338.527	-0.69873	-0.0185852
338.987	0.000622559	9.15833e-05
339.467	-8.54492e-05	0.00840149
339.927	-0.697815	-0.0186218
340.387	-0.000274658	0.000107635
340.867	-0.000411987	0.0084259
341.327	-0.698792	-0.0186432
341.787	-0.000296021	0.000118927
342.267	-0.000137329	0.00845337
342.727	-0.697815	-0.0186676
343.187	0.000177002	0.000125488
343.667	0.000463867	0.00845947
344.127	-0.698273	-0.0186981
344.587	0.000283813	0.000134613
345.067	0.000448608	0.00846863
345.527	-0.698822	-0.0187164
345.987	0.000283813	0.000144287
346.467	-0.000524902	0.00849915
346.927	-0.697968	-0.01875
347.387	-0.000317383	0.000157257
347.867	0.000213623	0.0085144
348.327	-0.698853	-0.0187714
348.787	0.00072937	0.000163696
349.267	-0.000506592	0.00853271
349.727	-0.697845	-0.0188049
350.187	-0.000283813	0.00017746
350.667	0.000183105	0.00854187
351.127	-0.697845	-0.0188263
351.587	0.000216675	0.00018457
352.067	0.00020752	0.00856018
352.527	-0.69873	-0.0188446
352.987	-0.000149536	0.000198639
353.467	4.27246e-05	0.00856323
353.927	-0.697754	-0.0188721
354.387	0.000683594	0.000201843
354.867	-0.000543213	0.00858459
355.327	-0.698639	-0.0188904
355.787	0.000427246	0.000212708
356.267	-0.000314331	0.00859375
356.727	-0.698547	-0.0189117
357.187	0.000415039	0.000223145
357.667	-0.000375366	0.00860596
358.127	-0.697968	-0.0189331
358.587	0.000115967	0.000237671
359.067	-0.000152588	0.00863037
359.527	-0.698761	-0.0189484
359.987	0.000323486	0.00024472
360.467	0.000527954	0.00863037
360.927	-0.697815	-0.0189819
361.387	-3.35693e-05	0.000256348
361.867	-0.00057373	0.00865173
362.327	-0.69873	-0.0189972
362.787	0.000668335	0.00026712
363.267	-0.000500488	0.00866394
363.727	-0.698303	-0.0190186
364.187	-5.79834e-05	0.000281464
364.667	6.10352e-06	0.00866699
365.127	-0.6987	-0.019043
365.587	-0.000152588	0.000291687
366.067	0.000430298	0.0086792
366.527	-0.698059	-0.0190735
366.987	0.000650024	0.000297546
367.467	-0.00043335	0.00870972
367.927	-0.697723	-0.0190796
368.387	-0.000216675	0.000315399
368.867	0.000360107	0.00871277
369.327	-0.697723	-0.0191193
369.787	0.000204468	0.000319946
370.267	-0.000479126	0.00873108
370.727	-0.698517	-0.0191284
371.187	0.000628662	0.000328156
371.667	0.00017395	0.00874023
372.127	-0.69809	-0.0191498
372.587	3.05176e-06	0.000341797
373.067	0.000186157	0.00874939
373.527	-0.697784	-0.0191803
373.987	0.000756836	0.000349579
374.467	-0.000604248	0.00875854
374.927	-0.698669	-0.0191895
375.387	-1.83105e-05	0.000367401
375.867	0.000466919	0.0087677
376.327	-0.697845	-0.0192139
376.787	-0.000283813	0.00037796
377.267	0.00043335	0.00877991
377.727	-0.697968	-0.0192322
378.187	-0.000143433	0.000387878
378.667	-2.44141e-05	0.00878601
379.127	-0.697815	-0.0192596
379.587	-0.00027771	0.000401794
380.067	-0.000338745	0.00881042
380.527	-0.698792	-0.0192749
380.987	0.000662231	0.000406036
381.467	0.000396729	0.00881042
381.927	-0.698425	-0.0192963
382.387	-2.13623e-05	0.000421631
382.867	-6.10352e-05	0.00882568
383.327	-0.698761	-0.0193085
383.787	0.000247192	0.00043161
384.267	-0.000476074	0.00883179
384.727	-0.697754	-0.0193268
385.187	0.000360107	0.000442657
385.667	-0.000213623	0.00883484
386.127	-0.698303	-0.0193451
386.587	0.000738525	0.000451477
387.067	0.000186157	0.0088562
387.527	-0.698669	-0.0193542
387.987	0.000778198	0.000463409
388.467	0.000445557	0.0088562
388.927	-0.69812	-0.0193817
389.387	0.000256348	0.000475616
389.867	-0.000198364	0.0088562
390.327	-0.698761	-0.019397
390.787	0.000543213	0.000481171
391.267	0.000360107	0.00886841
391.727	-0.698822	-0.0194244
392.187	-7.01904e-05	0.000500793
392.667	-0.000344849	0.00888672
393.127	-0.6987	-0.0194305
393.587	0.000689697	0.00050415
394.067	0.00015564	0.00888367
394.527	-0.698486	-0.019458
394.987	0.000262451	0.000521545
395.467	0.000372314	0.00889893
395.927	-0.69873	-0.0194702
396.387	0.00043335	0.00053009
396.867	-0.00062561	0.00889893
397.327	-0.697815	-0.0194916
397.787	-0.000292969	0.000546875
398.267	0.000595093	0.00891113
398.727	-0.698059	-0.0195007
399.187	0.000842285	0.000549011
399.667	0.000622559	0.00892334
400.127	-0.698639	-0.0195099
400.587	-0.000332642	0.000567627
401.067	2.44141e-05	0.00892029
401.527	-0.698212	-0.0195374
401.987	0.000213623	0.000579224
402.467	0.000418091	0.00892944
402.927	-0.697754	-0.0195526
403.387	0.000799561	0.000584106
403.867	-0.00057373	0.00894165
404.327	-0.698151	-0.0195801
404.787	-0.000161743	0.000600281
405.267	0.000543213	0.0089447
405.727	-0.698425	-0.0195831
406.187	-0.000180054	0.000614319
406.667	0.000219727	0.00894775
407.127	-0.69754	-0.0195984
407.587	-0.000100708	0.000625305
408.067	0.000296021	0.00895691
408.527	-0.697815	-0.0196198
408.987	8.8501e-05	0.000633545
409.467	0.000424194	0.00895996
409.927	-0.697693	-0.019632
410.387	0.000534058	0.000640564
410.867	0.000375366	0.00898132
411.327	-0.698822	-0.0196472
411.787	0.000759888	0.000651245
412.267	-0.000109863	0.00897522
412.727	-0.698517	-0.0196564
413.187	-0.000234985	0.00066864
413.667	0.000326538	0.008984375
414.127	-0.698181	-0.0196869
414.587	-7.93457e-05	0.000680237
415.067	0.000430298	0.00899353
415.527	-0.697845	-0.0197021
415.987	0.00055542	0.000685425
416.467	-0.000613403	0.00900269
416.927	-0.697876	-0.0197205
417.387	-0.000216675	0.000704041
417.867	0.000338745	0.00899963
418.327	-0.697968	-0.0197174
418.787	-0.000146484	0.000712585
419.267	2.44141e-05	0.00901184
419.727	-0.698669	-0.0197388
420.187	0.000637817	0.000718079
420.667	0.000509644	0.00901794
421.127	-0.698761	-0.0197479
421.587	0.000616455	0.000731506
422.067	0.0003479	0.00901489
422.527	-0.698669	-0.0197662
422.987	0.00083313	0.000739441
423.467	-0.000692749	0.00903015
423.927	-0.698456	-0.0197876
424.387	0.000360107	0.000751038
424.867	-0.000619507	0.0090332
425.327	-0.698761	-0.0197968
425.787	0.000488281	0.000761719
426.267	0.000460815	0.00903931
426.727	-0.698212	-0.0198212
427.187	-0.000299072	0.000778198
427.667	0.000448608	0.00903625
428.127	-0.697968	-0.0198364
428.587	0.000787354	0.000782776
429.067	-0.000515747	0.00905457
429.527	-0.698151	-0.0198578
429.987	0.00072937	0.000793152
430.467	5.18799e-05	0.00906372
430.927	-0.697845	-0.01987
431.387	-0.000259399	0.000811768
431.867	-0.000384521	0.00905457
432.327	-0.698792	-0.0198761
432.787	0.00085144	0.00081543
433.267	0.000482178	0.00906372
433.727	-0.697998	-0.0199036
434.187	0.00072937	0.000828552
434.667	-0.000546265	0.00907593
435.127	-0.697998	-0.0199066
435.587	0.000814819	0.00084137
436.067	-2.74658e-05	0.00906982
436.527	-0.69873	-0.0199249
436.987	0.000128174	0.000856018
437.467	0.000167847	0.00907593
437.927	-0.698151	-0.0199432
438.387	-2.13623e-05	0.00086731
438.867	0.000164795	0.00908813
439.327	-0.698547	-0.0199402
439.787	0.000756836	0.000871582
440.267	-0.000567627	0.00908508
440.727	-0.698761	-0.0199554
441.187	-0.000231934	0.000888977
441.667	0.000238037	0.00908508
442.127	-0.6987	-0.0199738
442.587	-6.10352e-06	0.000896606
443.067	0.000198364	0.00909119
443.527	-0.698578	-0.019989
443.987	0.00050354	0.000903625
444.467	0.000421143	0.00909729
444.927	-0.698547	-0.0200012
445.387	0.00078125	0.000914612
445.867	0.000164795	0.00909729
446.327	-0.698669	-0.0200104
446.787	0.000683594	0.00092865
447.267	0.000445557	0.00910645
447.727	-0.697723	-0.0200226
448.187	-0.00020752	0.000939331
448.667	0.000482178	0.00911255
449.127	-0.697662	-0.0200409
449.587	-0.000112915	0.000950317
450.067	-0.000363159	0.00911865
450.527	-0.698486	-0.020047
450.987	0.000692749	0.000957642
451.467	-0.00012207	0.0091095
451.927	-0.697998	-0.0200714
452.387	-0.000210571	0.000972595
452.867	0.000167847	0.0091156
453.327	-0.697906	-0.0200714
453.787	-6.10352e-06	0.000984192
454.267	-0.000527954	0.00912476
454.727	-0.698547	-0.0200867
455.187	0.000662231	0.00098938
455.667	-0.000463867	0.00912781
456.127	-0.697998	-0.0200989
456.587	0.000744629	0.00099762
457.067	0.000292969	0.00912781
457.527	-0.697815	-0.0201141
457.987	0.000445557	0.0010083
458.467	4.57764e-05	0.00913696
458.927	-0.697784	-0.0201294
459.387	6.40869e-05	0.00101776
459.867	-0.000164795	0.00913696
460.327	-0.697784	-0.0201416
460.787	0.000259399	0.00102783
461.267	0.000247192	0.00913696
461.727	-0.697723	-0.0201447
462.187	0.000708008	0.0010379
462.667	-6.40869e-05	0.00913391
463.127	-0.698792	-0.0201569
463.587	-0.000115967	0.00105499
464.067	-0.000357056	0.00914307
464.527	-0.698425	-0.0201599
464.987	0.000531006	0.00106201
465.467	-0.000326538	0.00914612
465.927	-0.698517	-0.0201752
466.387	0.000689697	0.00107056
466.867	-0.000601196	0.00914001
467.327	-0.698639	-0.0201843
467.787	0.000765991	0.00107941
468.267	-0.000588989	0.00914917
468.727	-0.698608	-0.0201935
469.187	0.000106812	0.00109589
469.667	-0.000463867	0.00914001
470.127	-0.698578	-0.0201965
470.587	-0.000259399	0.0011084
471.067	-0.000177002	0.00913696
471.527	-0.697723	-0.0202179
471.987	0.000473022	0.00111145
472.467	-3.35693e-05	0.00914612
472.927	-0.697632	-0.0202209
473.387	0.000686646	0.0011203
473.867	0.000241089	0.00914001
474.327	-0.697845	-0.0202362
474.787	-0.000341797	0.00113617
475.267	-0.000634766	0.00914612
475.727	-0.697693	-0.0202393
476.187	0.000219727	0.00114868
476.667	-0.000640869	0.00914612
477.127	-0.697601	-0.0202484
477.587	0.000335693	0.00115814
478.067	-0.000396729	0.00916138
478.527	-0.697632	-0.0202515
478.987	0.000717163	0.00116333
479.467	0.000137329	0.00914307
479.927	-0.698792	-0.0202698
480.387	-2.44141e-05	0.00117645
480.867	-0.000500488	0.00915527
481.327	-0.697601	-0.0202789
481.787	0.000775146	0.00118225
482.267	-5.49316e-05	0.00914612
482.727	-0.697693	-0.0202881
483.187	0.000393677	0.0011972
483.667	0.00045166	0.00915833
484.127	-0.697601	-0.0202942
484.587	-0.000259399	0.00120941
485.067	-0.000552368	0.00915527
485.527	-0.698059	-0.0202972
485.987	0.000894165	0.00121521
486.467	0.000524902	0.00916138
486.927	-0.697998	-0.0203125
487.387	0.000787354	0.00122803
487.867	-0.000137329	0.00916443
488.327	-0.698059	-0.0203186
488.787	-0.000213623	0.00124268
489.267	0.000527954	0.00915527
489.727	-0.698761	-0.0203217
490.187	0.000787354	0.00124054
490.667	0.000244141	0.00914612
491.127	-0.698822	-0.0203369
491.587	-0.000164795	0.00125671
492.067	-0.000537109	0.00915527
492.527	-0.698029	-0.0203491
492.987	-7.93457e-05	0.00127014
493.467	-0.00050354	0.00915833
493.927	-0.697571	-0.0203522
494.387	-0.000115967	0.00128113
494.867	0.00015564	0.00916748
495.327	-0.697998	-0.0203644
495.787	0.000445557	0.00128693
496.267	0.000387573	0.00915833
496.727	-0.698761	-0.0203705
497.187	-8.54492e-05	0.00129669
497.667	-0.000149536	0.00917358
498.127	-0.697601	-0.0203796
498.587	0.00067749	0.00130096
499.067	-0.000579834	0.00916748
499.527	-0.698669	-0.0203796
499.987	0.000817871	0.00131226
500.467	0.000311279	0.00916138
500.927	-0.697815	-0.0203979
501.387	0.000180054	0.001328125
501.867	-0.000640869	0.00917053
502.327	-0.698792	-0.0203979
502.787	0.000738525	0.00133331
503.267	-0.000543213	0.00917053
503.727	-0.697937	-0.0204163
504.187	0.000854492	0.00134155
504.667	-0.00032959	0.00917969
505.127	-0.698853	-0.0204193
505.587	0.000836182	0.00135193
506.067	1.52588e-05	0.00917664
506.527	-0.697937	-0.0204285
506.987	-0.000210571	0.00137054
507.467	-0.000497437	0.00917358
507.927	-0.698181	-0.0204285
508.387	0.000708008	0.00137207
508.867	0.000494385	0.00917358
509.327	-0.697601	-0.0204407
509.787	0.000137329	0.00138336
510.267	-0.000384521	0.00916443
510.727	-0.697662	-0.0204468
511.187	-0.000250244	0.00140076
511.667	0.000195313	0.00917664
512.127	-0.6987	-0.0204529
512.587	0.000537109	0.00140106
513.067	-0.000390625	0.00917053
513.527	-0.6987	-0.0204529
513.987	-0.000256348	0.00141754
514.467	-0.000265503	0.00917053
514.927	-0.698181	-0.020462
515.387	-0.00012207	0.0014267
515.867	0.000527954	0.00917358
516.327	-0.697632	-0.0204651
516.787	0.000311279	0.00143341
517.267	-0.000253296	0.00917969
517.727	-0.69754	-0.0204803
518.187	0.000271606	0.00144287
518.667	-0.000506592	0.00917969
519.127	-0.698792	-0.0204773
519.587	-0.000119019	0.00145599
520.067	2.13623e-05	0.00918579
520.527	-0.698181	-0.0204895
520.987	-0.000326538	0.00146729
521.467	-0.000506592	0.00917358
521.927	-0.697784	-0.0205078
522.387	-0.000250244	0.00147369
522.867	0.000610352	0.00917969
523.327	-0.69873	-0.0205048
523.787	0.000161743	0.00148773
524.267	0.000524902	0.00917358
524.727	-0.698761	-0.0205139
525.187	-7.32422e-05	0.00149719
525.667	-0.000189209	0.00918274
526.127	-0.697571	-0.0205231
526.587	0.000576782	0.00149963
527.067	0.000485229	0.00917358
527.527	-0.697784	-0.0205292
527.987	5.49316e-05	0.00151154
528.467	0.000564575	0.00917664
528.927	-0.698273	-0.0205322
529.387	-0.000137329	0.00152618
529.867	0.000375366	0.00917358
530.327	-0.697571	-0.0205353
530.787	0.00032959	0.0015329
531.267	-0.000283813	0.00917358
531.727	-0.697906	-0.0205505
532.187	-2.74658e-05	0.00154541
532.667	-0.000128174	0.00917664
533.127	-0.698212	-0.0205475
533.587	-0.000296021	0.00155396
534.067	0.000247192	0.00917053
534.527	-0.697601	-0.0205566
534.987	-0.000418091	0.00156219
535.467	-0.000668335	0.00917664
535.927	-0.697662	-0.0205597
536.387	-0.000299072	0.00157227
536.867	-0.000537109	0.00918274
537.327	-0.697723	-0.0205627
537.787	0.000814819	0.00157654
538.267	0.00055542	0.00917358
538.727	-0.69809	-0.020575
539.187	-0.000164795	0.0015921
539.667	-0.000631714	0.00918579
540.127	-0.697968	-0.0205627
540.587	0.000482178	0.00159821
541.067	0.000210571	0.00918579
541.527	-0.69873	-0.0205688
541.987	3.05176e-05	0.00160797
542.467	-0.000662231	0.00917358
542.927	-0.697632	-0.0205872
543.387	-0.000195313	0.0016214
543.867	9.76562e-05	0.00918274
544.327	-0.698486	-0.0205933
544.787	0.00083313	0.0016217
545.267	-0.000271606	0.00917969
545.727	-0.698425	-0.0205963
546.187	-0.000424194	0.00163971
546.667	0.000494385	0.00918579
547.127	-0.698578	-0.0206024
547.587	0.000445557	0.00164734
548.067	0.000228882	0.00918274
548.527	-0.697845	-0.0206085
548.987	0.000115967	0.00165771
549.467	-0.000476074	0.00917358
549.927	-0.698608	-0.0205963
550.387	0.000305176	0.0016626
550.867	2.74658e-05	0.00917053
551.327	-0.697693	-0.0206116
551.787	-5.18799e-05	0.00167419
552.267	0.000283813	0.00917053
552.727	-0.697723	-0.0206238
553.187	0.000152588	0.0016806
553.667	-0.000192261	0.00917664
554.127	-0.698608	-0.0206116
554.587	0.000238037	0.0016922
555.067	-0.000326538	0.00917053
555.527	-0.698669	-0.0206329
555.987	-0.000311279	0.00170288
556.467	0.000289917	0.00917664
556.927	-0.697601	-0.020639
557.387	0.000537109	0.00170746
557.867	0.000601196	0.00917053
558.327	-0.69873	-0.0206329
558.787	-0.000280762	0.00172302
559.267	0.000640869	0.00916748
559.727	-0.697876	-0.020639
560.187	-0.000283813	0.00173096
560.667	0.000204468	0.00917664
561.127	-0.697754	-0.0206543
561.587	8.8501e-05	0.0017392
562.067	0.00055542	0.00916748
562.527	-0.698578	-0.0206482
562.987	0.000747681	0.00174133
563.467	0.000363159	0.00916138
563.927	-0.698761	-0.0206573
564.387	0.000869751	0.00174927
564.867	-0.00055542	0.00916138
565.327	-0.697632	-0.0206543
565.787	0.000393677	0.00176025
566.267	-0.000210571	0.00917053
566.727	-0.69809	-0.0206573
567.187	-0.000198364	0.00177582
567.667	0.000531006	0.00916443
568.127	-0.697815	-0.0206787
568.587	0.000738525	0.00177551
569.067	-0.0006073	0.00916138
569.527	-0.698425	-0.0206635
569.987	0.000775146	0.00178467
570.467	-3.05176e-05	0.00915222
570.927	-0.698669	-0.0206635
571.387	0.000906372	0.0017926
571.867	-0.000640869	0.00916138
572.327	-0.698608	-0.0206757
572.787	0.000274658	0.00180786
573.267	-0.000543213	0.00916748
573.727	-0.697693	-0.0206848
574.187	-0.000366211	0.00181671
574.667	-0.000311279	0.00916443
575.127	-0.697906	-0.0206848
575.587	0.00038147	0.00182312
576.067	0.000534058	0.00915222
576.527	-0.6987	-0.0206757
576.987	0.00067749	0.00182678
577.467	0.000543213	0.00915222
577.927	-0.697571	-0.0206909
578.387	6.10352e-05	0.00183868
578.867	-0.000201416	0.00914001
579.327	-0.698212	-0.0206818
579.787	6.40869e-05	0.00184998
580.267	0.000268555	0.00915527
580.727	-0.698242	-0.0207001
581.187	0.000805664	0.0018512
581.667	8.54492e-05	0.00913391
582.127	-0.697845	-0.0207031
582.587	0.000888062	0.00186066
583.067	-0.000723267	0.00914001
583.527	-0.698242	-0.0207001
583.987	0.000189209	0.00186768
584.467	9.46045e-05	0.00913086
584.927	-0.697693	-0.0207001
585.387	0.000741577	0.00187653
585.867	0.000146484	0.00914307
586.327	-0.697876	-0.0207062
586.787	-0.000189209	0.00189178
587.267	0.000418091	0.00913391
587.727	-0.698883	-0.0207031
588.187	0.000198364	0.00189484
588.667	-2.74658e-05	0.00914001
589.127	-0.698792	-0.0207123
589.587	0.000259399	0.0019046
590.067	0.000527954	0.00913086
590.527	-0.69873	-0.0207245
590.987	-0.000320435	0.00191559
591.467	0.00032959	0.00914307
591.927	-0.698303	-0.0207397
592.387	0.000823975	0.00191376
592.867	-0.000726318	0.00913086
593.327	-0.698334	-0.0207275
593.787	0.00010376	0.0019278
594.267	-0.000537109	0.00914612
594.727	-0.697693	-0.0207489
595.187	-8.54492e-05	0.00193665
595.667	0.000411987	0.00913391
596.127	-0.698792	-0.0207611
596.587	0.000457764	0.00193726
597.067	-3.05176e-05	0.00915222
597.527	-0.697571	-0.0207764
597.987	-0.000363159	0.00195282
598.467	5.49316e-05	0.00914001
598.927	-0.698029	-0.0207794
599.387	0.00078125	0.00195404
599.867	4.57764e-05	0.00914917
600.327	-0.698425	-0.0207733
600.787	-0.000299072	0.00196991
601.267	-0.00065918	0.00913696
601.727	-0.698181	-0.0207703
602.187	-0.000341797	0.00197815
602.667	-0.000494385	0.00914917
603.127	-0.698761	-0.0207855
603.587	0.000595093	0.00197906
604.067	-0.000460815	0.00913391
604.527	-0.698822	-0.0207855
604.987	7.32422e-05	0.00199219
605.467	-0.000491333	0.00913086
605.927	-0.697815	-0.0207916
606.387	0.000814819	0.00199646
606.867	0.00038147	0.00913086
607.327	-0.698761	-0.0207886
607.787	0.000872803	0.00200104
608.267	-1.2207e-05	0.00912476
608.727	-0.69754	-0.0207916
609.187	0.000158691	0.0020105
609.667	-0.000579834	0.00913086
610.127	-0.698669	-0.0207855
610.587	0.000808716	0.00201691
611.067	-0.000598145	0.00912781
611.527	-0.697479	-0.0207916
611.987	0.000714111	0.00201965
612.467	0.000509644	0.0091095
612.927	-0.698822	-0.0208069
613.387	0.000335693	0.00202271
613.867	-0.000259399	0.0091095
614.327	-0.697662	-0.020813
614.787	0.000543213	0.00202393
615.267	-6.10352e-05	0.00909424
615.727	-0.698669	-0.0208038
616.187	-0.000369263	0.00203583
616.667	0.000494385	0.00910339
617.127	-0.697906	-0.0208191
617.587	0.000405884	0.00203674
618.067	-0.00010376	0.00910034
618.527	-0.697632	-0.020816
618.987	0.000189209	0.00204468
619.467	-0.00067749	0.00909119
619.927	-0.698059	-0.0208099
620.387	-0.000308228	0.00206055
620.867	-0.000637817	0.00909119
621.327	-0.697601	-0.020816
621.787	-0.00012207	0.0020694
622.267	0.000210571	0.00907898
622.727	-0.698578	-0.020816
623.187	0.000839233	0.00206879
623.667	0.000473022	0.00909119
624.127	-0.698853	-0.020816
624.587	-8.54492e-05	0.00208374
625.067	-0.000411987	0.00908508
625.527	-0.69809	-0.0208252
625.987	0.000653076	0.00208252
626.467	0.000515747	0.00907898
626.927	-0.698303	-0.0208221
627.387	-0.000308228	0.00209808
627.867	-0.000283813	0.00907593
628.327	-0.697937	-0.020813
628.787	7.01904e-05	0.00210663
629.267	0.00057373	0.00907593
629.727	-0.698669	-0.0208221
630.187	-0.000244141	0.00211273
630.667	-0.000726318	0.00907288
631.127	-0.698517	-0.0208099
631.587	-0.000161743	0.00212555
632.067	0.000372314	0.00907898
632.527	-0.698792	-0.020816
632.987	-0.000228882	0.00213074
633.467	0.000460815	0.00906982
633.927	-0.6987	-0.0208191
634.387	0.000152588	0.00213593
634.867	0.00050354	0.00906677
635.327	-0.698608	-0.0208191
635.787	0.000424194	0.00214203
636.267	6.71387e-05	0.00906982
636.727	-0.697662	-0.0208313
637.187	-0.000341797	0.00215302
637.667	-0.000524902	0.00906067
638.127	-0.698212	-0.0208282
638.587	-0.00032959	0.00216187
639.067	-0.000601196	0.00906067
639.527	-0.698761	-0.0208191
639.987	-0.000222778	0.00216705
640.467	6.10352e-05	0.00905457
640.927	-0.6987	-0.0208221
641.387	0.000549316	0.00217163
641.867	-0.000442505	0.00904846
642.327	-0.697784	-0.0208221
642.787	0.000717163	0.00217499
643.267	-0.000415039	0.00904541
643.727	-0.697784	-0.0208374
644.187	8.23975e-05	0.00219269
644.667	0.000152588	0.00904541
645.127	-0.698669	-0.0208252
645.587	0.000164795	0.00219818
646.067	0.000152588	0.00905151
646.527	-0.697876	-0.0208374
646.987	-0.000341797	0.00220642
647.467	3.35693e-05	0.00904541
647.927	-0.698364	-0.0208435
648.387	0.000830078	0.00220734
648.867	-7.93457e-05	0.00905457
649.327	-0.698822	-0.0208344
649.787	0.000439453	0.00221436
650.267	0.000180054	0.00905151
650.727	-0.698059	-0.0208344
651.187	0.00015564	0.00222687
651.667	0.000286865	0.00903625
652.127	-0.698242	-0.0208344
652.587	-0.000268555	0.00223663
653.067	0.000497437	0.00904236
653.527	-0.697601	-0.0208496
653.987	0.000793457	0.0022345
654.467	0.000219727	0.00905151
654.927	-0.698242	-0.0208466
655.387	0.000570679	0.00224182
655.867	0.000375366	0.00904236
656.327	-0.697601	-0.0208527
656.787	-0.000323486	0.00225647
657.267	-0.000445557	0.00904236
657.727	-0.697784	-0.0208618
658.187	0.000442505	0.00226105
658.667	0.000454712	0.00903015
659.127	-0.698242	-0.0208618
659.587	-3.05176e-05	0.00226837
660.067	-0.000570679	0.0090332
660.527	-0.698639	-0.0208649
660.987	0.000180054	0.00227814
661.467	0.000152588	0.00904541
661.927	-0.698181	-0.0208618
662.387	0.000772095	0.00227783
662.867	0.00045166	0.00903015
663.327	-0.698547	-0.0208557
663.787	0.000796509	0.00228638
664.267	-0.000363159	0.00902405
664.727	-0.697937	-0.0208557
665.187	-3.05176e-05	0.0022937
665.667	0.000469971	0.00903015
666.127	-0.698364	-0.0208588
666.587	0.000448608	0.00229828
667.067	0.0003479	0.00903015
667.527	-0.698395	-0.0208649
667.987	0.000662231	0.00230835
668.467	0.000375366	0.0090332
668.927	-0.69809	-0.0208893
669.387	-0.000204468	0.00231812
669.867	-0.000390625	0.00905457
670.327	-0.698456	-0.0208832
670.787	-7.01904e-05	0.00232361
671.267	-0.000384521	0.00904541
671.727	-0.698547	-0.0208923
672.187	0.000192261	0.00232727
672.667	-1.83105e-05	0.00904236
673.127	-0.698547	-0.0208954
673.587	0.000817871	0.00232941
674.067	-0.000296021	0.0090332
674.527	-0.698364	-0.0208893
674.987	-0.000292969	0.00234436
675.467	0.000509644	0.0090332
675.927	-0.697632	-0.0208984
676.387	0.000863647	0.00234406
676.867	-0.000695801	0.00903015
677.327	-0.697784	-0.0208984
677.787	-0.000265503	0.00235809
678.267	-0.000610352	0.00903015
678.727	-0.698486	-0.0208862
679.187	0.000317383	0.00235687
679.667	-0.000241089	0.009021
680.127	-0.698059	-0.0208984
680.587	0.000689697	0.00236298
681.067	3.05176e-06	0.00901794
681.527	-0.6987	-0.0208984
681.987	0.000613403	0.00236908
682.468	-0.000131226	0.009021
682.928	-0.698212	-0.0209045
683.388	0.000427246	0.00237518
683.868	-0.000491333	0.00902405
684.328	-0.698273	-0.0209015
684.788	-0.000204468	0.00238861
685.268	0.000177002	0.00901489
685.728	-0.697754	-0.0209076
686.188	0.000250244	0.00239319
686.668	0.000149536	0.0090332
687.128	-0.697754	-0.0209137
687.588	0.000350952	0.00239838
688.068	-0.000549316	0.00901489
688.528	-0.697968	-0.0209076
688.988	-0.000228882	0.00240479
689.468	0.000201416	0.00901794
689.928	-0.697754	-0.0209167
690.388	0.000430298	0.00240936
690.868	-0.000183105	0.00900879
691.328	-0.697693	-0.0209198
691.788	3.66211e-05	0.00241852
692.268	-0.000421143	0.00901489
692.728	-0.698517	-0.0209137
693.188	6.10352e-05	0.00242401
693.668	0.000241089	0.00901184
694.128	-0.698425	-0.0209106
694.588	0.000289917	0.00242889
695.068	-0.000482178	0.00901184
695.528	-0.698364	-0.0209137
695.988	0.000564575	0.00243683
696.468	0.000177002	0.00900269
696.928	-0.697632	-0.0209229
697.388	0.000662231	0.00244141
697.868	0.000537109	0.00900269
698.328	-0.698639	-0.0209259
698.788	-0.000350952	0.00245636
699.268	0.000305176	0.00900574
699.728	-0.697632	-0.0209259
700.188	-0.000268555	0.00246307
700.668	-0.000515747	0.00900269
701.128	-0.697815	-0.0209259
701.588	-0.000247192	0.00246918
702.068	0.000408936	0.00899658
702.528	-0.69754	-0.020929
702.988	0.000311279	0.00246735
703.468	-0.000570679	0.00899963
703.928	-0.69873	-0.0209259
704.388	0.000579834	0.00247406
704.868	3.96729e-05	0.00900574
705.328	-0.697937	-0.0209381
705.788	0.000131226	0.00248016
706.268	-0.00057373	0.00900879
706.728	-0.697601	-0.0209595
707.188	0.000274658	0.00248657
707.668	-9.15527e-05	0.00901489
708.128	-0.698334	-0.0209595
708.588	0.000366211	0.00249176
709.068	-0.000570679	0.009021
709.528	-0.69809	-0.0209625
709.988	0.000405884	0.00249817
710.468	-0.000427246	0.00900879
710.928	-0.697693	-0.0209625
711.388	-0.00015564	0.0025058
711.868	-0.000509644	0.00900574
712.328	-0.698303	-0.0209625
712.788	9.15527e-05	0.00251099
713.268	4.27246e-05	0.00900574
713.728	-0.698303	-0.0209656
714.188	-2.13623e-05	0.00251648
714.668	-0.000457764	0.00900269
715.128	-0.697845	-0.0209717
715.588	-0.000216675	0.00252319
716.068	-0.000375366	0.00900574
716.528	-0.698639	-0.0209564
716.988	0.000509644	0.00252502
717.468	0.000366211	0.00899658
717.928	-0.697876	-0.0209656
718.388	0.00057373	0.0025293
718.868	-0.000265503	0.00898743
719.328	-0.697784	-0.0209625
719.788	8.8501e-05	0.00254059
720.268	0.000125122	0.008984375
720.728	-0.697937	-0.0209625
721.188	0.000201416	0.002547
721.668	-0.000628662	0.00899353
722.128	-0.697601	-0.0209686
722.588	0.000534058	0.00254608
723.068	-0.000250244	0.00899353
723.528	-0.698578	-0.0209717
723.988	1.52588e-05	0.00255402
724.468	0.00010376	0.00899353
724.928	-0.698669	-0.0209656
725.388	0.000686646	0.0025589
725.868	-0.000482178	0.00899048
726.328	-0.698547	-0.0209686
726.788	0.000491333	0.00256622
727.268	0.000231934	0.00899658
727.728	-0.698639	-0.0209656
728.188	0.000140381	0.0025766
728.668	-0.000506592	0.00899048
729.128	-0.698761	-0.0209778
729.588	-0.000164795	0.0025824
730.068	-7.01904e-05	0.00897827
730.528	-0.698273	-0.0209686
730.988	0.000512695	0.00258453
731.468	0.000247192	0.008984375
731.928	-0.698578	-0.0209808
732.388	0.000537109	0.00259186
732.868	-4.57764e-05	0.00897522
733.328	-0.698608	-0.0209808
733.788	0.000515747	0.00259521
734.268	-0.00050354	0.00898132
734.728	-0.698334	-0.0209808
735.188	-0.000238037	0.00260864
735.668	-0.000375366	0.00897522
736.128	-0.697968	-0.020993
736.588	8.23975e-05	0.00261322
737.068	0.000161743	0.00897217
737.528	-0.697815	-0.0209839
737.988	-0.000253296	0.00261932
738.468	-0.00050354	0.00897522
738.928	-0.698242	-0.0209961
739.388	0.000466919	0.00262115
739.868	-7.32422e-05	0.00897827
740.328	-0.697632	-0.0209961
740.788	0.000680542	0.00262512
741.268	0.000369263	0.00897217
741.728	-0.698517	-0.0210022
742.188	0.000604248	0.0026297
742.668	0.000204468	0.008984375
743.128	-0.698334	-0.0210175
743.588	-0.000265503	0.00264191
744.068	-0.000549316	0.00898132
744.528	-0.698334	-0.0210144
744.988	-0.000289917	0.00264435
745.468	4.57764e-05	0.008984375
745.928	-0.697906	-0.0210236
746.388	-0.000170898	0.00264893
746.868	0.000314331	0.00898132
747.328	-0.698608	-0.0210144
747.788	3.96729e-05	0.00265594
748.268	-0.000485229	0.00897827
748.728	-0.69809	-0.0210175
749.188	0.000634766	0.00265594
749.668	0.000341797	0.00896912
750.128	-0.697845	-0.0210205
750.588	-0.000192261	0.00266815
751.068	-0.000402832	0.00896301
751.528	-0.697784	-0.0210297
751.988	0.000732422	0.00266693
752.468	-9.15527e-06	0.00897217
752.928	-0.697968	-0.0210236
753.388	0.000717163	0.00267212
753.868	1.2207e-05	0.00897217
754.328	-0.698273	-0.0210236
754.788	0.000256348	0.00268066
755.268	-0.000595093	0.00896912
755.728	-0.697968	-0.0210236
756.188	-0.000241089	0.00268677
756.668	-0.000564575	0.00896301
757.128	-0.698303	-0.0210297
757.588	0.000106812	0.00269592
758.068	0.000411987	0.00896606
758.528	-0.698578	-0.0210266
758.988	-0.000100708	0.00270111
759.468	0.000460815	0.00895386
759.928	-0.698395	-0.0210388
760.388	-0.000317383	0.00270721
760.868	0.000350952	0.00895691
761.328	-0.697968	-0.0210388
761.788	-0.000149536	0.00271118
762.268	-0.000259399	0.00895691
762.728	-0.69754	-0.0210358
763.188	0.000680542	0.0027121
763.668	-0.000354004	0.00896606
764.128	-0.697571	-0.0210419
764.588	8.8501e-05	0.00271973
765.068	-1.52588e-05	0.0089447
765.528	-0.698578	-0.0210358
765.988	0.000778198	0.00272125
766.468	-0.000408936	0.00895386
766.928	-0.6987	-0.0210266
767.388	0.000698853	0.00273102
767.868	0.000286865	0.00895691
768.328	-0.698151	-0.0210327
768.788	0.000106812	0.00273743
769.268	-0.000558472	0.00895386
769.728	-0.698181	-0.0210358
770.188	0.000552368	0.00273712
770.668	-0.000509644	0.0089447
771.128	-0.698547	-0.0210266
771.588	-0.000161743	0.00274933
772.068	0.000488281	0.0089386
772.528	-0.69751	-0.0210388
772.988	-0.000149536	0.00275452
773.468	-0.00012207	0.00894775
773.928	-0.697693	-0.0210419
774.388	-0.000149536	0.00275696
774.868	-0.000341797	0.0089447
775.328	-0.698456	-0.0210388
775.788	0.000674438	0.00275818
776.268	-0.000616455	0.00894165
776.728	-0.697601	-0.021048
777.188	3.96729e-05	0.00276489
777.668	-0.000314331	0.00892944
778.128	-0.697723	-0.021048
778.588	0.000714111	0.00276672
779.068	6.10352e-06	0.00894165
779.528	-0.69873	-0.0210602
779.988	9.46045e-05	0.00276978
780.468	0.000238037	0.0089386
780.928	-0.698608	-0.0210785
781.388	0.000268555	0.00277496
781.868	-0.000546265	0.0089386
782.328	-0.698273	-0.0210846
782.788	0.000201416	0.00277985
783.268	-0.000167847	0.0089447
783.728	-0.69751	-0.0210724
784.188	0.000802612	0.00278351
784.668	-0.000619507	0.0089386
785.128	-0.698639	-0.0210693
785.588	0.000521851	0.00278778
786.068	0.000454712	0.0089325
786.528	-0.698761	-0.0210724
786.988	0.000698853	0.00279358
787.468	-0.00027771	0.00892029
787.928	-0.6987	-0.0210663
788.388	-0.000366211	0.00280365
788.868	-0.000595093	0.00892944
789.328	-0.698242	-0.0210724
789.788	0.000775146	0.00280121
790.268	-0.000421143	0.00892944
790.728	-0.697662	-0.0210785
791.188	-0.000311279	0.00281647
791.668	0.000421143	0.00892639
792.128	-0.698456	-0.0210785
792.588	0.000747681	0.0028186
793.068	0.000369263	0.00892639
793.528	-0.697937	-0.0210846
793.988	0.000286865	0.0028186
794.468	3.05176e-05	0.00891724
794.928	-0.697418	-0.02109375
795.388	-0.000357056	0.00283173
795.868	-0.000546265	0.0089325
796.328	-0.698151	-0.0210907
796.788	0.000714111	0.0028302
797.268	0.000497437	0.00892944
797.728	-0.698639	-0.0210999
798.188	0.000579834	0.00283325
798.668	-0.000506592	0.00892639
799.128	-0.698212	-0.0210968
799.588	-0.000418091	0.00284698
800.068	0.000582886	0.0089325
800.528	-0.697571	-0.0211121
800.988	-0.000436401	0.00284882
801.468	0.000262451	0.00892334
801.928	-0.697662	-0.0211151
802.388	-0.000280762	0.00285797
802.868	0.000421143	0.00892029
803.328	-0.697784	-0.0211182
803.788	-0.000292969	0.00286224
804.268	0.000457764	0.00892334
804.728	-0.698242	-0.0211182
805.188	-0.000112915	0.0028656
805.668	-0.000183105	0.00892334
806.128	-0.698181	-0.0211121
806.588	0.000476074	0.00286713
807.068	-0.000500488	0.0089325
807.528	-0.697571	-0.0211243
807.988	-1.2207e-05	0.0028772
808.468	-0.000360107	0.0089386
808.928	-0.697571	-0.0211243
809.388	-0.00017395	0.00287964
809.868	-0.000631714	0.00892944
810.328	-0.6987	-0.0211182
810.788	-0.000390625	0.002883
811.268	-0.000656128	0.00892944
811.728	-0.697906	-0.0211212
812.188	0.000692749	0.00288788
812.668	-0.00045166	0.00892944
813.128	-0.69812	-0.0211273
813.588	-0.000241089	0.00289551
814.068	-0.000585937	0.00892639
814.528	-0.698608	-0.0211273
814.988	0.000119019	0.00289856
815.468	-0.000106812	0.00892029
815.928	-0.698639	-0.0211334
816.388	-0.000354004	0.00290588
816.868	8.23975e-05	0.00892944
817.328	-0.69873	-0.0211365
817.788	0.000497437	0.00290283
818.268	-0.000552368	0.00891418
818.728	-0.698578	-0.0211334
819.188	-0.000158691	0.0029129
819.668	-0.000622559	0.00891113
820.128	-0.698456	-0.0211304
820.588	0.000784302	0.00291199
821.068	-0.000692749	0.00891113
821.528	-0.697845	-0.0211304
821.988	0.000466919	0.00292206
822.468	0.00050354	0.00890198
822.928	-0.698792	-0.0211182
823.388	-0.000430298	0.00292816
823.868	0.000488281	0.00890198
824.328	-0.698517	-0.0211121
824.788	0.000201416	0.00292999
825.268	0.000308228	0.00890198
825.728	-0.698425	-0.0211121
826.188	3.96729e-05	0.0029364
826.668	0.000442505	0.00889893
827.128	-0.698273	-0.0211182
827.588	-0.000265503	0.0029425
828.068	0.000320435	0.00889893
828.528	-0.697723	-0.0211334
828.988	-0.000274658	0.00294891
829.468	-0.000497437	0.00889282
829.928	-0.698425	-0.0211212
830.388	0.000726318	0.00294495
830.868	0.000360107	0.00889282
831.328	-0.698608	-0.0211212
831.788	0.00078125	0.00295135
832.268	-4.57764e-05	0.00888977
832.728	-0.698181	-0.0211334
833.188	-0.000390625	0.00295929
833.668	-0.000570679	0.00889587
834.128	-0.698029	-0.0211334
834.588	-0.000140381	0.00296448
835.068	0.0003479	0.00888977
835.528	-0.698578	-0.0211273
835.988	0.000576782	0.00296326
836.468	0.00017395	0.00888367
836.928	-0.698639	-0.0211334
837.388	-7.01904e-05	0.00297455
837.868	-2.74658e-05	0.00889893
838.328	-0.698578	-0.0211334
838.788	-0.000259399	0.00298065
839.268	-0.00010376	0.00889587
839.728	-0.698303	-0.0211426
840.188	-0.000137329	0.00298279
840.668	-0.000195313	0.00889282
841.128	-0.698761	-0.0211365
841.588	-0.000341797	0.00298981
842.068	-0.000628662	0.00888062
842.528	-0.69812	-0.0211365
842.988	-0.00043335	0.00299408
843.468	0.00027771	0.00888062
843.928	-0.697571	-0.0211487
844.388	-0.000393677	0.0029953
844.868	-0.000643921	0.00888672
845.328	-0.698639	-0.0211395
845.788	0.000469971	0.00299591
846.268	-0.000415039	0.00889282
846.728	-0.698669	-0.0211426
847.188	0.000393677	0.00300171
847.668	-0.000106812	0.00888062
848.128	-0.698639	-0.0211548
848.588	0.000561523	0.00300201
849.068	-0.000274658	0.00888977
849.528	-0.697754	-0.0211731
849.988	-2.13623e-05	0.00300507
850.468	0.000527954	0.00887756
850.928	-0.697906	-0.0211792
851.388	-0.000302124	0.00301147
851.868	0.000271606	0.00888367
852.328	-0.698059	-0.0211731
852.788	-0.000332642	0.00301636
853.268	0.000595093	0.00888367
853.728	-0.69754	-0.0211761
854.188	-0.000341797	0.00302216
854.668	0.000546265	0.00888062
855.128	-0.698334	-0.02117
855.588	-0.000378418	0.00302582
856.068	0.000421143	0.00887451
856.528	-0.697876	-0.0211639
856.988	0.000683594	0.00302307
857.468	0.000262451	0.00888367
857.928	-0.6987	-0.0211731
858.388	-0.000314331	0.00303192
858.868	0.000161743	0.00888062
859.328	-0.697449	-0.0211731
859.788	0.00072937	0.00302979
860.268	-0.000585937	0.00887146
860.728	-0.69751	-0.0211609
861.188	-0.000158691	0.00304474
861.668	0.000372314	0.00885925
862.128	-0.698334	-0.0211639
862.588	0.000741577	0.00303925
863.068	0.000332642	0.0088562
863.528	-0.698303	-0.0211639
863.988	0.000421143	0.00304413
864.468	-0.000717163	0.00885315
864.928	-0.697662	-0.0211731
865.388	0.000466919	0.00304535
865.868	0.00055542	0.00885925
866.328	-0.697571	-0.02117
866.788	-8.8501e-05	0.00305481
867.268	0.000317383	0.0088501
867.728	-0.697693	-0.0211578
868.188	-9.15527e-06	0.00305664
868.668	0.000463867	0.0088562
869.128	-0.697754	-0.0211487
869.588	0.000250244	0.00305878
870.068	0.000518799	0.00884705
870.528	-0.697418	-0.0211548
870.988	-0.000228882	0.0030661
871.468	0.000457764	0.00883789
871.928	-0.698608	-0.0211517
872.388	-0.000332642	0.0030719
872.868	-0.000601196	0.00884399
873.328	-0.698029	-0.0211517
873.788	-0.000375366	0.00307587
874.268	-0.0006073	0.00884399
874.728	-0.697571	-0.0211578
875.188	4.88281e-05	0.00307587
875.668	-0.000708008	0.00883484
876.128	-0.698578	-0.0211517
876.588	-0.000143433	0.00307983
877.068	-0.000448608	0.00882874
877.528	-0.69751	-0.0211517
877.988	0.000546265	0.0030838
878.468	0.000296021	0.00882874
878.928	-0.698059	-0.0211365
879.388	0.000723267	0.00308624
879.868	-0.000518799	0.00882874
880.328	-0.698822	-0.0211456
880.788	-0.00032959	0.00309662
881.268	0.000421143	0.00882568
881.688	0.000427246	0.000888672