File: Edgar/20240605/20240605/electrodeposition_pulsed_potential_20240605_B/pulses_3000_to_4000.txt
Time (s)	WE(1).Potential (V)	WE(1).Current (A)
2308	-0.697876	-0.023877
2308.46	0.000537109	0.00308838
2308.94	-0.000576782	0.00700439
2309.4	-0.697968	-0.0211639
2309.86	-6.10352e-06	0.00425507
2310.34	-0.000469971	0.00748322
2310.8	-0.698761	-0.0209076
2311.26	0.000741577	0.00441376
2311.74	0.000164795	0.00756531
2312.2	-0.697479	-0.0208496
2312.66	0.000726318	0.00446442
2313.14	-0.000268555	0.00761108
2313.6	-0.698822	-0.020813
2314.06	0.000762939	0.00449036
2314.54	-0.000653076	0.00763855
2315	-0.6987	-0.0207947
2315.46	0.000238037	0.00451202
2315.94	-0.000405884	0.00765686
2316.4	-0.698669	-0.0207855
2316.86	0.000372314	0.00453003
2317.34	0.000601196	0.00766602
2317.8	-0.698547	-0.0207642
2318.26	-0.000292969	0.0045343
2318.74	0.000350952	0.00767822
2319.2	-0.698792	-0.0207611
2319.66	-0.0003479	0.00454834
2320.14	-0.000595093	0.00768127
2320.6	-0.697479	-0.0207581
2321.06	0.000564575	0.00454865
2321.54	0.000219727	0.00767212
2322	-0.698608	-0.0207489
2322.46	-0.000244141	0.00455811
2322.94	-0.000466919	0.00768433
2323.4	-0.697571	-0.0207489
2323.86	-0.000100708	0.00456177
2324.34	-0.000747681	0.00769043
2324.8	-0.698547	-0.0207306
2325.26	0.000170898	0.00457184
2325.74	-0.000268555	0.00768127
2326.2	-0.698181	-0.0207306
2326.66	-0.000231934	0.00457458
2327.14	0.000363159	0.00768433
2327.6	-0.698456	-0.0207153
2328.06	-0.000134277	0.00457428
2328.54	-0.000549316	0.00769653
2329	-0.698608	-0.0207214
2329.46	0.000131226	0.00457977
2329.94	-0.000488281	0.00770874
2330.4	-0.697693	-0.0207184
2330.86	-0.000164795	0.0045816
2331.34	-6.71387e-05	0.00769348
2331.8	-0.697906	-0.0207184
2332.26	-0.000488281	0.0045874
2332.74	-0.000192261	0.00770874
2333.2	-0.697601	-0.0207184
2333.66	0.00057373	0.00458557
2334.14	3.35693e-05	0.00769653
2334.6	-0.698364	-0.020697
2335.06	0.0003479	0.0045871
2335.54	0.000128174	0.00771179
2336	-0.69751	-0.0207123
2336.46	-0.000299072	0.00459381
2336.94	-0.00057373	0.00770569
2337.4	-0.698181	-0.0207062
2337.86	0.000765991	0.00458984
2338.34	0.000344849	0.00769653
2338.8	-0.697693	-0.0207062
2339.26	0.000723267	0.00459167
2339.74	-0.000421143	0.00770874
2340.2	-0.698059	-0.0207062
2340.66	7.01904e-05	0.00459106
2341.14	-0.000531006	0.00771179
2341.6	-0.698669	-0.020694
2342.06	0.000515747	0.00459717
2342.54	-0.000469971	0.00771179
2343	-0.698578	-0.0207001
2343.46	0.000717163	0.00459656
2343.94	0.00027771	0.00770569
2344.4	-0.698608	-0.0206848
2344.86	-0.000375366	0.00460693
2345.34	-0.000143433	0.00771484
2345.8	-0.697754	-0.020697
2346.26	-0.000296021	0.00460541
2346.74	-0.000408936	0.0077179
2347.2	-0.698761	-0.0206818
2347.66	-0.000372314	0.00460907
2348.14	-0.000384521	0.00770264
2348.6	-0.697937	-0.020694
2349.06	0.000854492	0.00460419
2349.54	0.000585937	0.00771179
2350	-0.698669	-0.0206818
2350.46	-0.000424194	0.00460999
2350.94	0.000332642	0.00769958
2351.4	-0.697845	-0.0206848
2351.86	0.000735474	0.00460236
2352.34	-8.8501e-05	0.00770874
2352.8	-0.697479	-0.0206818
2353.26	-0.000186157	0.00461151
2353.74	-0.000653076	0.00770874
2354.2	-0.698364	-0.0206726
2354.66	0.000775146	0.00460541
2355.14	-0.000415039	0.00771484
2355.6	-0.697815	-0.0206757
2356.06	0.000537109	0.00461304
2356.54	-0.000680542	0.00771484
2357	-0.698669	-0.0206757
2357.46	-0.000430298	0.00461243
2357.94	0.000424194	0.00769958
2358.4	-0.697723	-0.0206787
2358.86	-0.000448608	0.00461517
2359.34	0.000247192	0.00771179
2359.8	-0.697662	-0.0206787
2360.26	0.000747681	0.00460999
2360.74	-0.000622559	0.00770874
2361.2	-0.698883	-0.0206696
2361.66	-0.000375366	0.00461884
2362.14	0.000448608	0.00769958
2362.6	-0.698334	-0.0206757
2363.06	0.000665283	0.00460999
2363.54	-0.000262451	0.00771179
2364	-0.698639	-0.0206665
2364.46	0.000170898	0.0046106
2364.94	-0.000473022	0.00771179
2365.4	-0.69754	-0.0206696
2365.86	0.000119019	0.00461395
2366.34	-0.000637817	0.00770569
2366.8	-0.698059	-0.0206726
2367.26	-0.000231934	0.004617
2367.74	-0.000231934	0.00770569
2368.2	-0.697449	-0.0206696
2368.66	0.00017395	0.00461395
2369.14	-0.000564575	0.00770569
2369.6	-0.698578	-0.0206696
2370.06	0.000332642	0.00461334
2370.54	-7.01904e-05	0.00769348
2371	-0.697632	-0.0206757
2371.46	0.000256348	0.00462158
2371.94	0.000491333	0.00770874
2372.4	-0.698822	-0.0206665
2372.86	-0.000473022	0.0046228
2373.34	-0.000592041	0.00769348
2373.8	-0.69873	-0.0206604
2374.26	0.0003479	0.00461517
2374.74	-0.000640869	0.00770264
2375.2	-0.698517	-0.0206726
2375.66	0.000732422	0.00461792
2376.14	0.000411987	0.00769043
2376.6	-0.697968	-0.0206573
2377.06	0.000265503	0.00462067
2377.54	-0.000424194	0.00770569
2378	-0.697571	-0.0206665
2378.46	-3.35693e-05	0.00462006
2378.94	0.000576782	0.00769653
2379.4	-0.698547	-0.0206573
2379.86	-0.000527954	0.00462524
2380.34	-0.000701904	0.00769348
2380.8	-0.697571	-0.0206696
2381.26	-0.000424194	0.00462555
2381.74	-0.000668335	0.00769653
2382.2	-0.698212	-0.0206635
2382.66	0.000152588	0.00462402
2383.14	-0.000668335	0.00769653
2383.6	-0.697479	-0.0206635
2384.06	-7.93457e-05	0.00462616
2384.54	-0.000622559	0.00769653
2385	-0.698578	-0.0206696
2385.46	-0.000115967	0.00462952
2385.94	0.00038147	0.00768433
2386.4	-0.698456	-0.0206757
2386.86	-0.000320435	0.00462738
2387.34	-0.000482178	0.00769958
2387.8	-0.69873	-0.0206665
2388.26	0.00083313	0.00462219
2388.74	0.000595093	0.00769348
2389.2	-0.697876	-0.0206757
2389.66	0.000619507	0.00462067
2390.14	5.79834e-05	0.00768738
2390.6	-0.697693	-0.0206757
2391.06	0.000482178	0.00462311
2391.54	-0.000543213	0.00768738
2392	-0.697479	-0.0206696
2392.46	-8.23975e-05	0.00462646
2392.94	6.10352e-05	0.00769653
2393.4	-0.697479	-0.0206726
2393.86	3.05176e-06	0.00463074
2394.34	-0.000521851	0.00769653
2394.8	-0.697723	-0.0206665
2395.26	0.000216675	0.00462708
2395.74	-0.000152588	0.00769348
2396.2	-0.6987	-0.0206573
2396.66	-0.000344849	0.00463409
2397.14	0.00057373	0.00768738
2397.6	-0.698761	-0.0206604
2398.06	-0.00022583	0.00463379
2398.54	0.000378418	0.00768738
2399	-0.697601	-0.0206665
2399.46	-0.000378418	0.00463318
2399.94	0.000512695	0.00767822
2400.4	-0.698547	-0.0206573
2400.86	0.000750732	0.00462585
2401.34	-0.000643921	0.00768433
2401.8	-0.697784	-0.0206665
2402.26	0.000308228	0.00462982
2402.74	-0.000601196	0.00768738
2403.2	-0.6987	-0.0206573
2403.66	0.000753784	0.00462738
2404.14	-0.000701904	0.00768127
2404.6	-0.698273	-0.0206543
2405.06	-0.000518799	0.00463318
2405.54	-0.000570679	0.00768127
2406	-0.698242	-0.0206635
2406.46	-0.000305176	0.00463684
2406.94	-0.00065918	0.00767822
2407.4	-0.697571	-0.0206604
2407.86	-0.000418091	0.00463593
2408.34	-0.000439453	0.00767517
2408.8	-0.698792	-0.0206512
2409.26	-0.000424194	0.00463379
2409.74	0.000265503	0.00767517
2410.2	-0.698151	-0.0206635
2410.66	-0.00032959	0.0046347
2411.14	-0.000308228	0.00768127
2411.6	-0.698486	-0.0206543
2412.06	0.000796509	0.00462769
2412.54	0.000549316	0.00768127
2413	-0.697662	-0.0206573
2413.46	0.000250244	0.00462646
2413.94	0.000561523	0.00767517
2414.4	-0.697968	-0.0206635
2414.86	-7.01904e-05	0.00463501
2415.34	0.000247192	0.00767517
2415.8	-0.697693	-0.0206604
2416.26	-0.000421143	0.0046347
2416.74	0.000445557	0.00766907
2417.2	-0.697968	-0.0206421
2417.66	0.00078125	0.00462646
2418.14	-0.000320435	0.00767822
2418.6	-0.69751	-0.0206543
2419.06	0.000457764	0.00462891
2419.54	0.000485229	0.00767212
2420	-0.697784	-0.0206482
2420.46	-0.000109863	0.00463379
2420.94	-0.00050354	0.00766907
2421.4	-0.697906	-0.0206451
2421.86	-0.000454712	0.00462799
2422.34	-0.00067749	0.00766296
2422.8	-0.697906	-0.020636
2423.26	0.000543213	0.00462982
2423.74	0.000106812	0.00766907
2424.2	-0.69754	-0.0206512
2424.66	0.000317383	0.00462769
2425.14	0.000476074	0.00767212
2425.6	-0.697815	-0.0206482
2426.06	0.000363159	0.00462708
2426.54	0.000119019	0.00767517
2427	-0.698761	-0.020636
2427.46	0.000579834	0.00462646
2427.94	-0.000500488	0.00766296
2428.4	-0.697693	-0.0206482
2428.86	-0.000430298	0.00463623
2429.34	0.00017395	0.00765686
2429.8	-0.697998	-0.020639
2430.26	0.000570679	0.00463074
2430.74	0.000442505	0.00766602
2431.2	-0.697449	-0.0206421
2431.66	0.000512695	0.00463013
2432.14	0.000405884	0.00765686
2432.6	-0.697449	-0.020636
2433.06	-5.49316e-05	0.00463593
2433.54	-0.000299072	0.00766907
2434	-0.698822	-0.020639
2434.46	-0.000390625	0.00463318
2434.94	-0.000177002	0.00764771
2435.4	-0.697784	-0.0206299
2435.86	0.00072937	0.00462769
2436.34	-0.000268555	0.00766296
2436.8	-0.698334	-0.0206329
2437.26	0.000619507	0.00463135
2437.74	-0.000714111	0.00765381
2438.2	-0.697571	-0.0206329
2438.66	-0.000442505	0.00463562
2439.14	0.000427246	0.00765991
2439.6	-0.697479	-0.0206329
2440.06	0.0003479	0.00463013
2440.54	-7.32422e-05	0.00766296
2441	-0.698578	-0.0206207
2441.46	0.000289917	0.00462982
2441.94	-0.000143433	0.00765991
2442.4	-0.697571	-0.0206268
2442.86	-0.000341797	0.00463623
2443.34	0.000112915	0.00764465
2443.8	-0.698792	-0.0206268
2444.26	0.000247192	0.00463348
2444.74	-0.000680542	0.00764465
2445.2	-0.698792	-0.0206177
2445.66	0.000698853	0.00462952
2446.14	-4.27246e-05	0.00765686
2446.6	-0.697815	-0.0206238
2447.06	0.000549316	0.00463043
2447.54	-0.000595093	0.00764465
2448	-0.6987	-0.0206116
2448.46	-0.000457764	0.00463837
2448.94	9.15527e-05	0.00765076
2449.4	-0.698669	-0.0206085
2449.86	0.000119019	0.00463287
2450.34	0.000213623	0.00765076
2450.8	-0.69754	-0.0206146
2451.26	-0.000119019	0.00463562
2451.74	-0.000317383	0.00763855
2452.2	-0.69873	-0.0206116
2452.66	6.10352e-05	0.00463287
2453.14	-8.23975e-05	0.00765076
2453.6	-0.698425	-0.0206055
2454.06	-9.15527e-05	0.00463196
2454.54	0.000564575	0.0076355
2455	-0.698456	-0.0205994
2455.46	0.000683594	0.00463165
2455.94	-0.000680542	0.0076416
2456.4	-0.698792	-0.0205963
2456.86	0.000756836	0.00463135
2457.34	-0.000650024	0.00762939
2457.8	-0.697784	-0.0205994
2458.26	0.000402832	0.00463654
2458.74	0.000201416	0.00762634
2459.2	-0.697662	-0.0205994
2459.66	0.000708008	0.00463226
2460.14	-0.000415039	0.00763855
2460.6	-0.698181	-0.0205872
2461.06	-0.000308228	0.00463593
2461.54	-0.000656128	0.0076355
2462	-0.698547	-0.0205811
2462.46	-0.000177002	0.0046405
2462.94	-0.000631714	0.0076355
2463.4	-0.69751	-0.0205963
2463.86	-0.000198364	0.00463837
2464.34	0.000518799	0.00762329
2464.8	-0.697998	-0.0205963
2465.26	0.000646973	0.00463409
2465.74	-0.000238037	0.00762939
2466.2	-0.69812	-0.020575
2466.66	0.000732422	0.00463257
2467.14	-0.000640869	0.00762634
2467.6	-0.698151	-0.020575
2468.06	0.000811768	0.00463409
2468.54	-0.000695801	0.00762329
2469	-0.69873	-0.0205841
2469.46	1.52588e-05	0.0046347
2469.94	0.000564575	0.00762024
2470.4	-0.69809	-0.020575
2470.86	0.000686646	0.00463318
2471.34	-0.00057373	0.00762939
2471.8	-0.698578	-0.0205872
2472.26	0.000326538	0.00463623
2472.74	-0.000143433	0.00762939
2473.2	-0.697815	-0.0205841
2473.66	-0.000222778	0.00464386
2474.14	0.000466919	0.00761719
2474.6	-0.697479	-0.0205811
2475.06	0.00078125	0.00463654
2475.54	0.000210571	0.00761108
2476	-0.698639	-0.020578
2476.46	-0.000506592	0.00464264
2476.94	7.93457e-05	0.00761414
2477.4	-0.6987	-0.020575
2477.86	0.000424194	0.00463562
2478.34	0.000579834	0.00761719
2478.8	-0.69809	-0.020578
2479.26	0.000317383	0.00463562
2479.74	0	0.00762329
2480.2	-0.698608	-0.0205688
2480.66	0.000732422	0.00463684
2481.14	-0.000637817	0.00762024
2481.6	-0.697632	-0.020575
2482.06	0.000280762	0.0046405
2482.54	0.000564575	0.00761719
2483	-0.697784	-0.0205627
2483.46	0.000695801	0.00463593
2483.94	-0.000576782	0.00761108
2484.4	-0.697998	-0.0205719
2484.86	-0.00017395	0.00464752
2485.34	-0.000683594	0.00761719
2485.8	-0.698822	-0.0205536
2486.26	0.000369263	0.00463867
2486.74	-3.96729e-05	0.00761719
2487.2	-0.698273	-0.0205536
2487.66	-0.000228882	0.00464813
2488.14	0.000540161	0.00760803
2488.6	-0.698395	-0.0205505
2489.06	0.000604248	0.00464172
2489.54	0.000115967	0.00760498
2490	-0.69751	-0.0205566
2490.46	0.000747681	0.00463928
2490.94	-0.000671387	0.00761108
2491.4	-0.697662	-0.0205627
2491.86	-0.000299072	0.00464386
2492.34	-0.000646973	0.00759888
2492.8	-0.697601	-0.0205566
2493.26	-0.000344849	0.00464661
2493.74	0.000592041	0.00759888
2494.2	-0.698364	-0.0205536
2494.66	0.000161743	0.004646
2495.14	-0.000640869	0.00761108
2495.6	-0.697449	-0.0205505
2496.06	0.000631714	0.00464142
2496.54	-0.000100708	0.00759888
2497	-0.698456	-0.0205444
2497.46	0.000296021	0.00464508
2497.94	0.000579834	0.00760193
2498.4	-0.698395	-0.0205414
2498.86	-0.000473022	0.00465118
2499.34	0.000164795	0.00759888
2499.8	-0.69812	-0.0205566
2500.26	0.000854492	0.00464355
2500.74	-0.000692749	0.00760193
2501.2	-0.697937	-0.0205414
2501.66	0.000274658	0.00464691
2502.14	0.000445557	0.00759583
2502.6	-0.697998	-0.0205505
2503.06	-0.000256348	0.00465363
2503.54	-0.000265503	0.00759277
2504	-0.698151	-0.0205353
2504.46	0.000738525	0.00464569
2504.94	0.000485229	0.00759888
2505.4	-0.6987	-0.0205414
2505.86	-0.000430298	0.00465485
2506.34	-0.000601196	0.00760193
2506.8	-0.697998	-0.0205505
2507.26	-0.000506592	0.00465698
2507.74	-0.000689697	0.00759888
2508.2	-0.697571	-0.0205505
2508.66	-0.000335693	0.00465027
2509.14	-0.000280762	0.00758972
2509.6	-0.698578	-0.0205627
2510.06	0.000378418	0.00463684
2510.54	0.000421143	0.00757751
2511	-0.698059	-0.0205444
2511.46	-5.18799e-05	0.00463623
2511.94	-0.000616455	0.00759277
2512.4	-0.697571	-0.0205627
2512.86	0.000473022	0.00463898
2513.34	0.000527954	0.00757751
2513.8	-0.697601	-0.0205658
2514.26	-0.000247192	0.00464325
2514.74	0.000534058	0.00758972
2515.2	-0.698669	-0.0205688
2515.66	-0.000390625	0.00463715
2516.14	-0.000558472	0.00758362
2516.6	-0.697815	-0.0205719
2517.06	0.00078125	0.00463379
2517.54	0.000314331	0.00757751
2518	-0.697571	-0.0205811
2518.46	0.000744629	0.0046344
2518.94	-0.00022583	0.00757751
2519.4	-0.697479	-0.0205688
2519.86	0.000640869	0.00463715
2520.34	3.05176e-06	0.00758667
2520.8	-0.697693	-0.020578
2521.26	-0.000430298	0.00464569
2521.74	-0.000543213	0.00758362
2522.2	-0.698395	-0.0205566
2522.66	3.05176e-05	0.00464325
2523.14	-7.62939e-05	0.00757751
2523.6	-0.698608	-0.0205566
2524.06	8.54492e-05	0.00464813
2524.54	0.000265503	0.00758667
2525	-0.698608	-0.020575
2525.46	-0.000427246	0.00464783
2525.94	-0.000396729	0.00758972
2526.4	-0.698303	-0.0205719
2526.86	2.44141e-05	0.00464661
2527.34	3.35693e-05	0.00758667
2527.8	-0.697815	-0.0205627
2528.26	0.000576782	0.0046405
2528.74	0.00020752	0.00758667
2529.2	-0.69751	-0.0205658
2529.66	-0.000430298	0.00464935
2530.14	0.000250244	0.00757446
2530.6	-0.698364	-0.0205658
2531.06	0.000790405	0.00463959
2531.54	-0.000305176	0.00758667
2532	-0.69754	-0.0205658
2532.46	-0.0003479	0.0046463
2532.94	7.32422e-05	0.00757751
2533.4	-0.698273	-0.0205566
2533.86	-2.13623e-05	0.00464722
2534.34	0.000582886	0.00757751
2534.8	-0.697784	-0.0205688
2535.26	-0.000213623	0.00464722
2535.74	0.000570679	0.00758057
2536.2	-0.69754	-0.0205566
2536.66	-5.49316e-05	0.00464661
2537.14	0.00057373	0.00757751
2537.6	-0.69812	-0.0205658
2538.06	0.000778198	0.00464569
2538.54	0.000637817	0.00760498
2539	-0.697937	-0.0206146
2539.46	-0.000341797	0.00465973
2539.94	-0.00065918	0.00761414
2540.4	-0.698761	-0.0206146
2540.86	-0.000335693	0.00466125
2541.34	-0.000616455	0.00761414
2541.8	-0.697571	-0.0206146
2542.26	0.00045166	0.00465424
2542.74	0.000540161	0.00760193
2543.2	-0.698395	-0.0206207
2543.66	8.54492e-05	0.00466156
2544.14	-0.000637817	0.00760803
2544.6	-0.698669	-0.0206085
2545.06	-0.000366211	0.00466278
2545.54	-0.000537109	0.00760803
2546	-0.698547	-0.0206055
2546.46	-0.000308228	0.00466522
2546.94	0.000326538	0.00761108
2547.4	-0.69751	-0.0206177
2547.86	0.000622559	0.00465546
2548.34	-0.000616455	0.00760803
2548.8	-0.698029	-0.0206116
2549.26	-0.000320435	0.00466034
2549.74	0.000518799	0.00760803
2550.2	-0.697632	-0.0206116
2550.66	-8.8501e-05	0.00466583
2551.14	0.000509644	0.00759888
2551.6	-0.697876	-0.0206055
2552.06	0.000692749	0.00465576
2552.54	-0.000631714	0.00760803
2553	-0.69754	-0.0206177
2553.46	-0.000393677	0.00466644
2553.94	0.000466919	0.00760193
2554.4	-0.697754	-0.0206146
2554.86	0.000320435	0.00466003
2555.34	0.000637817	0.00760498
2555.8	-0.698242	-0.0206055
2556.26	0.000250244	0.00466644
2556.74	3.05176e-06	0.00760498
2557.2	-0.697693	-0.0206177
2557.66	9.15527e-06	0.0046637
2558.14	2.13623e-05	0.00760803
2558.6	-0.698517	-0.0206085
2559.06	-0.000445557	0.0046701
2559.54	3.35693e-05	0.00759583
2560	-0.697479	-0.0206055
2560.46	-0.000305176	0.00467072
2560.94	9.15527e-06	0.00758972
2561.4	-0.6987	-0.0205963
2561.86	-0.00043335	0.00467102
2562.34	0.000515747	0.00759277
2562.8	-0.698792	-0.0205963
2563.26	0.000314331	0.00466492
2563.74	-3.05176e-05	0.00760498
2564.2	-0.697723	-0.0206024
2564.66	-0.000112915	0.00467743
2565.14	-0.000323486	0.00760803
2565.6	-0.6987	-0.0205963
2566.06	0.000720215	0.00466919
2566.54	-0.000299072	0.00760498
2567	-0.697815	-0.0205902
2567.46	0.000167847	0.00467285
2567.94	-0.000582886	0.00760803
2568.4	-0.698792	-0.0205872
2568.86	-0.000210571	0.00467712
2569.34	-0.00038147	0.00759888
2569.8	-0.69873	-0.0205841
2570.26	0.000335693	0.00467224
2570.74	-5.49316e-05	0.00761108
2571.2	-0.697876	-0.0205933
2571.66	0.000811768	0.0046701
2572.14	0.000546265	0.00759277
2572.6	-0.698669	-0.0205811
2573.06	-0.0003479	0.00467926
2573.54	0.00010376	0.00760498
2574	-0.697601	-0.0205933
2574.46	0.000540161	0.00467102
2574.94	0.000411987	0.00759888
2575.4	-0.698792	-0.0205872
2575.86	0.000238037	0.00467529
2576.34	-0.000112915	0.00760498
2576.8	-0.698517	-0.020578
2577.26	-0.00022583	0.00467804
2577.74	1.83105e-05	0.00760193
2578.2	-0.698029	-0.0205719
2578.66	-9.46045e-05	0.00468414
2579.14	0.000320435	0.00758972
2579.6	-0.69809	-0.0205719
2580.06	9.15527e-06	0.00467529
2580.54	0.000479126	0.00758972
2581	-0.698578	-0.0205811
2581.46	-0.000100708	0.0046814
2581.94	-0.000509644	0.00759583
2582.4	-0.697479	-0.020578
2582.86	-0.000387573	0.00468109
2583.34	0.000198364	0.00759888
2583.8	-0.698303	-0.020578
2584.26	0.000750732	0.00467682
2584.74	0.000576782	0.00758972
2585.2	-0.698364	-0.0205688
2585.66	0.000650024	0.0046759
2586.14	-0.000680542	0.00758972
2586.6	-0.69751	-0.020575
2587.06	0.000454712	0.00467804
2587.54	-0.000393677	0.00760193
2588	-0.6987	-0.0205719
2588.46	0.000198364	0.00467865
2588.94	-4.57764e-05	0.00758362
2589.4	-0.69873	-0.0205627
2589.86	3.05176e-06	0.00468048
2590.34	-5.18799e-05	0.00758057
2590.8	-0.697968	-0.0205597
2591.26	-0.000289917	0.00468658
2591.74	-0.000628662	0.00758972
2592.2	-0.697845	-0.0205688
2592.66	-0.000228882	0.00468597
2593.14	-0.000482178	0.00758972
2593.6	-0.697968	-0.0205688
2594.06	0.000762939	0.00467957
2594.54	0.000250244	0.00757751
2595	-0.698425	-0.0205597
2595.46	0.00083313	0.0046814
2595.94	0.000128174	0.00757751
2596.4	-0.697968	-0.0205627
2596.86	0.000521851	0.00468414
2597.34	-7.62939e-05	0.00758972
2597.8	-0.698059	-0.0205688
2598.26	-0.000454712	0.00468933
2598.74	0.00057373	0.00758057
2599.2	-0.698669	-0.0205627
2599.66	0.000546265	0.00468292
2600.14	-0.000588989	0.00758362
2600.6	-0.698517	-0.0205505
2601.06	0.000164795	0.00468292
2601.54	0.000161743	0.00758057
2602	-0.69754	-0.0205627
2602.46	0.000311279	0.00468658
2602.94	0.000463867	0.00757751
2603.4	-0.6987	-0.0205505
2603.86	0.000521851	0.00468079
2604.34	-0.00057373	0.00758057
2604.8	-0.697968	-0.0205505
2605.26	-0.00027771	0.0046875
2605.74	0.000393677	0.00757141
2606.2	-0.697693	-0.0205566
2606.66	0.000366211	0.00468689
2607.14	0.000485229	0.00758057
2607.6	-0.697418	-0.0205475
2608.06	4.88281e-05	0.00468781
2608.54	0.000531006	0.00757446
2609	-0.6987	-0.0205475
2609.46	0.000744629	0.00468292
2609.94	-0.00017395	0.00756531
2610.4	-0.698029	-0.0205505
2610.86	-0.000485229	0.00469055
2611.34	-0.000741577	0.00756226
2611.8	-0.697662	-0.0205505
2612.26	-0.000161743	0.00468506
2612.74	-0.000231934	0.00757751
2613.2	-0.697601	-0.0205475
2613.66	0.000570679	0.0046817
2614.14	-0.000213623	0.00757141
2614.6	-0.698822	-0.0205383
2615.06	0.000125122	0.00468719
2615.54	-3.96729e-05	0.00757141
2616	-0.698151	-0.0205292
2616.46	-0.000250244	0.00469086
2616.94	0.000540161	0.00756226
2617.4	-0.69751	-0.0205475
2617.86	0.00022583	0.00468903
2618.34	-0.000653076	0.00756226
2618.8	-0.69873	-0.0205322
2619.26	-0.000549316	0.00469025
2619.74	0.000640869	0.00756226
2620.2	-0.698761	-0.0205322
2620.66	0.000723267	0.00468445
2621.14	0.000534058	0.00755615
2621.6	-0.697876	-0.0205322
2622.06	-0.000292969	0.00468994
2622.54	-0.000619507	0.00755615
2623	-0.69812	-0.02052
2623.46	-5.49316e-05	0.00469238
2623.94	0.000100708	0.00756226
2624.4	-0.69754	-0.0205322
2624.86	-3.35693e-05	0.00468903
2625.34	0.000125122	0.00755615
2625.8	-0.698517	-0.02052
2626.26	-0.000216675	0.0046933
2626.74	-0.000515747	0.00755615
2627.2	-0.698303	-0.02052
2627.66	0.000473022	0.00469391
2628.14	2.13623e-05	0.00756836
2628.6	-0.698364	-0.02052
2629.06	-0.000341797	0.0046936
2629.54	0.000112915	0.0075592
2630	-0.697845	-0.02052
2630.46	-0.00045166	0.00469421
2630.94	-0.000619507	0.00756226
2631.4	-0.697968	-0.020517
2631.86	0.000497437	0.00468933
2632.34	-0.000143433	0.00755005
2632.8	-0.698212	-0.02052
2633.26	-0.00027771	0.0046991
2633.74	-0.000390625	0.0075592
2634.2	-0.697815	-0.0205292
2634.66	-0.000427246	0.0046991
2635.14	-0.000714111	0.00755615
2635.6	-0.69873	-0.0205109
2636.06	0.00071106	0.00469391
2636.54	-0.000445557	0.00755005
2637	-0.698761	-0.020517
2637.46	0.000482178	0.00469543
2637.94	0.000106812	0.00754395
2638.4	-0.698517	-0.0205109
2638.86	2.13623e-05	0.00469513
2639.34	0.000161743	0.0075531
2639.8	-0.698242	-0.0205048
2640.26	0.000228882	0.00469788
2640.74	0.000558472	0.00756226
2641.2	-0.697418	-0.0205414
2641.66	0.000375366	0.00470276
2642.14	-0.000469971	0.007547
2642.6	-0.698364	-0.0205322
2643.06	3.66211e-05	0.00470612
2643.54	-0.000469971	0.00756226
2644	-0.698364	-0.0205353
2644.46	-0.000247192	0.00470337
2644.94	0.000335693	0.007547
2645.4	-0.698639	-0.0205353
2645.86	-0.00027771	0.00470093
2646.34	-0.000100708	0.007547
2646.8	-0.698151	-0.020517
2647.26	0.00065918	0.00469757
2647.74	0.000567627	0.0075531
2648.2	-0.698822	-0.0205261
2648.66	0.000665283	0.0046991
2649.14	-0.000534058	0.00756226
2649.6	-0.698364	-0.0205353
2650.06	0.000848389	0.0046991
2650.54	-0.000332642	0.00755615
2651	-0.697571	-0.0205353
2651.46	-0.000448608	0.00470673
2651.94	-0.000473022	0.00755005
2652.4	-0.698242	-0.0205109
2652.86	-0.00043335	0.00470917
2653.34	0.00022583	0.00754089
2653.8	-0.69754	-0.0205261
2654.26	0.00022583	0.00470123
2654.74	0.000253296	0.00753784
2655.2	-0.698395	-0.02052
2655.66	0.000665283	0.00470001
2656.14	0.000546265	0.00754395
2656.6	-0.698761	-0.0205078
2657.06	0.000634766	0.00470215
2657.54	-0.000671387	0.007547
2658	-0.698578	-0.0205261
2658.46	0.00072937	0.00469971
2658.94	0.000546265	0.007547
2659.4	-0.697906	-0.0205231
2659.86	0.000317383	0.00470642
2660.34	-3.05176e-06	0.00755615
2660.8	-0.69873	-0.02052
2661.26	-0.000445557	0.00470795
2661.74	-0.000628662	0.00755615
2662.2	-0.69873	-0.02052
2662.66	5.79834e-05	0.00470459
2663.14	-0.000646973	0.00755005
2663.6	-0.698761	-0.0205139
2664.06	0.00062561	0.00470215
2664.54	-0.000643921	0.00755005
2665	-0.698669	-0.0205139
2665.46	-0.000228882	0.00470734
2665.94	-1.83105e-05	0.0075531
2666.4	-0.698639	-0.0205139
2666.86	-0.000439453	0.00471008
2667.34	0.000396729	0.00753784
2667.8	-0.69754	-0.0205261
2668.26	0.00039978	0.00470703
2668.74	-0.000628662	0.00755005
2669.2	-0.698822	-0.0205109
2669.66	-0.000335693	0.00471436
2670.14	-0.000308228	0.00755005
2670.6	-0.698792	-0.020517
2671.06	-0.000253296	0.00471558
2671.54	0.000228882	0.00753784
2672	-0.698364	-0.0205231
2672.46	0.000665283	0.00470612
2672.94	-0.000567627	0.00754089
2673.4	-0.698578	-0.0205139
2673.86	-0.000326538	0.00471588
2674.34	0.000183105	0.00753784
2674.8	-0.698792	-0.0205017
2675.26	0.000143433	0.00471375
2675.74	0.000567627	0.00753479
2676.2	-0.697998	-0.0205109
2676.66	0.000369263	0.00471039
2677.14	-0.000305176	0.00755005
2677.6	-0.697418	-0.0205139
2678.06	0.000756836	0.00470581
2678.54	0.000500488	0.00753784
2679	-0.69809	-0.0205078
2679.46	0.000747681	0.00470612
2679.94	0.00057373	0.00753784
2680.4	-0.6987	-0.0205048
2680.86	-3.66211e-05	0.00471527
2681.34	0.000436401	0.00753174
2681.8	-0.6987	-0.0205048
2682.26	0.000888062	0.00470978
2682.74	0.000323486	0.00754089
2683.2	-0.698303	-0.0204987
2683.66	0.000772095	0.00470978
2684.14	0.000546265	0.00753174
2684.6	-0.697845	-0.0205078
2685.06	0.000762939	0.00470978
2685.54	-0.000628662	0.00753784
2686	-0.698029	-0.0204956
2686.46	-0.000424194	0.00471954
2686.94	0.000323486	0.00753784
2687.4	-0.69754	-0.0205048
2687.86	0.000527954	0.0047113
2688.34	-0.000598145	0.00753479
2688.8	-0.697784	-0.0205109
2689.26	0.000186157	0.00471985
2689.74	-0.000723267	0.00752869
2690.2	-0.698639	-0.0205017
2690.66	3.05176e-06	0.00471985
2691.14	-0.00043335	0.00754089
2691.6	-0.698456	-0.0204956
2692.06	-0.000387573	0.00471832
2692.54	-0.000640869	0.00753479
2693	-0.697601	-0.0204987
2693.46	0.000457764	0.00471222
2693.94	-0.000210571	0.00752258
2694.4	-0.69873	-0.0204865
2694.86	0.000744629	0.00471344
2695.34	0.000491333	0.00752563
2695.8	-0.698151	-0.0204895
2696.26	0.000357056	0.00471619
2696.74	0.000637817	0.00752869
2697.2	-0.69754	-0.0204956
2697.66	-0.000314331	0.0047168
2698.14	-3.05176e-06	0.00751343
2698.6	-0.698242	-0.0204956
2699.06	0.000756836	0.00471283
2699.54	-0.000338745	0.00752869
2700	-0.698029	-0.0204834
2700.46	6.40869e-05	0.00471893
2700.94	0	0.00751038
2701.4	-0.698822	-0.0204834
2701.86	-0.000100708	0.00472229
2702.34	-0.000210571	0.00752563
2702.8	-0.698792	-0.0204742
2703.26	-0.000161743	0.00472565
2703.74	-0.00020752	0.00751648
2704.2	-0.698059	-0.0204803
2704.66	0.000531006	0.00471985
2705.14	-0.000708008	0.00752258
2705.6	-0.697601	-0.0204865
2706.06	-5.18799e-05	0.0047229
2706.54	0.000552368	0.00751648
2707	-0.698761	-0.0204712
2707.46	-0.000436401	0.00472229
2707.94	-0.000531006	0.00751343
2708.4	-0.698303	-0.0204681
2708.86	3.05176e-06	0.00471893
2709.34	-0.000595093	0.00751648
2709.8	-0.69809	-0.0204773
2710.26	0.000543213	0.00471802
2710.74	0.00055542	0.00752869
2711.2	-0.697815	-0.0205292
2711.66	-1.52588e-05	0.00472076
2712.14	-6.10352e-05	0.00755005
2712.6	-0.698242	-0.0205322
2713.06	0.000228882	0.00472534
2713.54	-0.000454712	0.007547
2714	-0.698639	-0.0205231
2714.46	-0.000354004	0.0047226
2714.94	-0.00045166	0.00753784
2715.4	-0.697601	-0.0205322
2715.86	0.000787354	0.00471619
2716.34	0.000570679	0.00753479
2716.8	-0.698303	-0.0205353
2717.26	0.000396729	0.00471649
2717.74	0.000598145	0.00753784
2718.2	-0.698334	-0.0205139
2718.66	0.000244141	0.00471497
2719.14	-7.93457e-05	0.00752563
2719.6	-0.697906	-0.0205292
2720.06	0.000598145	0.00471924
2720.54	0.00032959	0.00754089
2721	-0.697693	-0.0205231
2721.46	-0.000411987	0.00472168
2721.94	-7.93457e-05	0.00752563
2722.4	-0.69754	-0.0205139
2722.86	0.000689697	0.00471436
2723.34	0.000164795	0.00753479
2723.8	-0.698456	-0.0205292
2724.26	-0.000360107	0.00472595
2724.74	6.40869e-05	0.00752563
2725.2	-0.69873	-0.0205261
2725.66	0.000289917	0.00471954
2726.14	-6.71387e-05	0.00753784
2726.6	-0.697784	-0.020517
2727.06	0.000772095	0.00472076
2727.54	-0.000439453	0.00752869
2728	-0.698578	-0.020517
2728.46	-0.000152588	0.00472046
2728.94	-1.83105e-05	0.00752563
2729.4	-0.698547	-0.0205139
2729.86	0.000747681	0.00471954
2730.34	-0.000219727	0.00754089
2730.8	-0.69873	-0.020517
2731.26	0.000680542	0.00472046
2731.74	0.000296021	0.00753174
2732.2	-0.698578	-0.0205139
2732.66	0.000723267	0.00472076
2733.14	0.000134277	0.00753784
2733.6	-0.697571	-0.020517
2734.06	0.000668335	0.00472137
2734.54	-0.000665283	0.00753479
2735	-0.697876	-0.02052
2735.46	7.32422e-05	0.00472412
2735.94	5.18799e-05	0.00753479
2736.4	-0.697601	-0.020517
2736.86	0.000546265	0.00473053
2737.34	-0.000512695	0.00753784
2737.8	-0.6987	-0.020517
2738.26	0.000164795	0.00472839
2738.74	0.00057373	0.00752869
2739.2	-0.698395	-0.0205139
2739.66	-8.8501e-05	0.00473206
2740.14	0.000561523	0.00752563
2740.6	-0.6987	-0.020517
2741.06	-0.00045166	0.00473572
2741.54	-1.83105e-05	0.00753479
2742	-0.698456	-0.0205139
2742.46	0.000759888	0.00472351
2742.94	-5.18799e-05	0.00751648
2743.4	-0.6987	-0.0205139
2743.86	0.000646973	0.00472504
2744.34	0.00015564	0.00751953
2744.8	-0.698792	-0.0205109
2745.26	0.000765991	0.00472626
2745.74	-0.000668335	0.00752563
2746.2	-0.69873	-0.0205048
2746.66	0.000662231	0.00472717
2747.14	-0.000622559	0.00752563
2747.6	-0.698212	-0.0205231
2748.06	-0.000463867	0.00473267
2748.54	0.000476074	0.00752258
2749	-0.698517	-0.0205078
2749.46	0.000646973	0.00472534
2749.94	0.000378418	0.00751038
2750.4	-0.697723	-0.02052
2750.86	-0.000527954	0.00473389
2751.34	0.000683594	0.00752563
2751.8	-0.697723	-0.0205139
2752.26	-0.000524902	0.00473511
2752.74	6.10352e-06	0.00752258
2753.2	-0.697876	-0.0205139
2753.66	0.000527954	0.00472717
2754.14	3.05176e-05	0.00751953
2754.6	-0.697937	-0.0205231
2755.06	-0.000408936	0.00473633
2755.54	-0.000100708	0.00752258
2756	-0.69754	-0.0205139
2756.46	-0.000363159	0.00473846
2756.94	0.000558472	0.00751648
2757.4	-0.697693	-0.020517
2757.86	0.000723267	0.00473083
2758.34	0.000161743	0.00751648
2758.8	-0.698761	-0.0205109
2759.26	-3.05176e-06	0.00473816
2759.74	0.000442505	0.00752258
2760.2	-0.69809	-0.02052
2760.66	0.000650024	0.00473145
2761.14	0.000195313	0.00753174
2761.6	-0.697601	-0.0205139
2762.06	0.000524902	0.00473145
2762.54	-0.00039978	0.00752869
2763	-0.69873	-0.0205139
2763.46	0.000485229	0.00473083
2763.94	-0.000390625	0.00752563
2764.4	-0.698273	-0.0205017
2764.86	0.000439453	0.00473358
2765.34	-0.000485229	0.00752869
2765.8	-0.698547	-0.0205017
2766.26	0.000738525	0.00473206
2766.74	0.000631714	0.00751343
2767.2	-0.698212	-0.0205048
2767.66	0.000671387	0.00473602
2768.14	0.000494385	0.00750732
2768.6	-0.698517	-0.0205017
2769.06	-0.000332642	0.00473907
2769.54	0.000576782	0.00751343
2770	-0.69873	-0.0205078
2770.46	-0.000366211	0.00473907
2770.94	0.000350952	0.00751343
2771.4	-0.698273	-0.0205078
2771.86	-0.000375366	0.00474121
2772.34	0.000299072	0.00750732
2772.8	-0.698212	-0.0205048
2773.26	-7.93457e-05	0.0047403
2773.74	-0.00032959	0.00750427
2774.2	-0.69812	-0.0205078
2774.66	0.000860596	0.00473297
2775.14	0.000634766	0.00751038
2775.6	-0.698761	-0.0204926
2776.06	-0.000482178	0.00474426
2776.54	9.15527e-05	0.00750122
2777	-0.697601	-0.0204956
2777.46	0.000640869	0.00473419
2777.94	-0.000369263	0.00750732
2778.4	-0.69809	-0.0204956
2778.86	0.000302124	0.0047348
2779.34	-1.2207e-05	0.00750732
2779.8	-0.697449	-0.0204956
2780.26	-0.00022583	0.00473877
2780.74	0.000531006	0.00750732
2781.2	-0.69754	-0.0204987
2781.66	4.88281e-05	0.0047403
2782.14	-0.000408936	0.00751953
2782.6	-0.697723	-0.0205048
2783.06	-0.000460815	0.00474579
2783.54	0.000222778	0.00751953
2784	-0.6987	-0.0204895
2784.46	-0.000445557	0.00474609
2784.94	-0.00010376	0.00750122
2785.4	-0.698364	-0.0205017
2785.86	-1.52588e-05	0.00474457
2786.34	-8.8501e-05	0.00751038
2786.8	-0.697815	-0.0205048
2787.26	7.62939e-05	0.00474213
2787.74	-0.000488281	0.00751343
2788.2	-0.698792	-0.0205078
2788.66	-0.000292969	0.00474609
2789.14	-0.00057373	0.00751038
2789.6	-0.698761	-0.0205017
2790.06	0.000231934	0.00474579
2790.54	0.000286865	0.00750732
2791	-0.698669	-0.0205048
2791.46	0.000741577	0.00473785
2791.94	-0.000265503	0.00750427
2792.4	-0.698547	-0.0204987
2792.86	3.96729e-05	0.00474731
2793.34	-0.000524902	0.00750732
2793.8	-0.698395	-0.0205109
2794.26	0.000704956	0.00473938
2794.74	0.000418091	0.00751038
2795.2	-0.697601	-0.0205017
2795.66	-0.000454712	0.0047464
2796.14	0.000460815	0.00750427
2796.6	-0.697845	-0.0205078
2797.06	-6.71387e-05	0.00474396
2797.54	-0.000305176	0.00750977
2798	-0.697723	-0.0205048
2798.46	-0.000524902	0.00474854
2798.94	-0.000473022	0.00750427
2799.4	-0.69751	-0.0204926
2799.86	0.000601196	0.00473999
2800.34	-0.000497437	0.00750458
2800.8	-0.697601	-0.0205017
2801.26	0.000808716	0.00474243
2801.74	-0.000418091	0.00749908
2802.2	-0.697754	-0.0204987
2802.66	-0.000418091	0.00474976
2803.14	0.00022583	0.00750427
2803.6	-0.698547	-0.0204865
2804.06	-0.000302124	0.00475067
2804.54	0.000582886	0.00749817
2805	-0.69873	-0.0204865
2805.46	6.40869e-05	0.00474915
2805.94	-0.000170898	0.00749512
2806.4	-0.698761	-0.0204895
2806.86	-0.000561523	0.00475098
2807.34	0.000436401	0.00750732
2807.8	-0.697937	-0.0204895
2808.26	-0.000405884	0.00474976
2808.74	-0.000192261	0.0075
2809.2	-0.698639	-0.0204895
2809.66	0.00045166	0.00475006
2810.14	-0.000283813	0.00750275
2810.6	-0.697449	-0.0204926
2811.06	0.000512695	0.00474792
2811.54	0.000445557	0.00749268
2812	-0.698792	-0.0204865
2812.46	-0.000149536	0.00475067
2812.94	1.2207e-05	0.00750153
2813.4	-0.697601	-0.0204926
2813.86	-0.000256348	0.00475128
2814.34	0.000534058	0.00750122
2814.8	-0.697601	-0.0204956
2815.26	0.000354004	0.00474762
2815.74	-0.000512695	0.00750122
2816.2	-0.697662	-0.0204956
2816.66	-0.000424194	0.00475555
2817.14	6.71387e-05	0.00749664
2817.6	-0.6987	-0.0204895
2818.06	0.000762939	0.00474792
2818.54	0.000418091	0.00749084
2819	-0.698761	-0.0204865
2819.46	-0.000167847	0.00475677
2819.94	0.000231934	0.0074942
2820.4	-0.698456	-0.0204926
2820.86	-0.000427246	0.00475525
2821.34	0.000427246	0.00749512
2821.8	-0.69873	-0.0204773
2822.26	0.0003479	0.00474762
2822.74	-0.000292969	0.0074939
2823.2	-0.698395	-0.0204865
2823.66	0.000238037	0.00475037
2824.14	-1.2207e-05	0.00749237
2824.6	-0.697815	-0.0204865
2825.06	0.000775146	0.00474976
2825.54	-0.000497437	0.00749268
2826	-0.697601	-0.0204865
2826.46	0.000772095	0.00475128
2826.94	-0.000375366	0.0074942
2827.4	-0.698456	-0.0204803
2827.86	0.000146484	0.00475189
2828.34	-0.000436401	0.00749237
2828.8	-0.698669	-0.0204712
2829.26	-0.000405884	0.00475952
2829.74	-0.000485229	0.00749084
2830.2	-0.697968	-0.0204803
2830.66	0.000183105	0.0047522
2831.14	-0.000476074	0.00748932
2831.6	-0.697876	-0.0204712
2832.06	0.000689697	0.0047525
2832.54	0.000680542	0.00748199
2833	-0.697479	-0.0204803
2833.46	0.00071106	0.0047522
2833.94	0.000665283	0.00748047
2834.4	-0.697601	-0.0204742
2834.86	0.000228882	0.00475464
2835.34	0.000192261	0.00748322
2835.8	-0.69751	-0.0204712
2836.26	0.000427246	0.00475555
2836.74	0.000765991	0.00747833
2837.2	-0.697784	-0.0204712
2837.66	0.000646973	0.00475952
2838.14	0.00039978	0.00748596
2838.6	-0.698761	-0.0204681
2839.06	0.000115967	0.00476257
2839.54	-0.000485229	0.0074884
2840	-0.697754	-0.0204773
2840.46	-0.000463867	0.00476501
2840.94	0.000637817	0.00748016
2841.4	-0.697571	-0.0204651
2841.86	-7.32422e-05	0.00476227
2842.34	7.93457e-05	0.00748138
2842.8	-0.698761	-0.020459
2843.26	0.00062561	0.00475525
2843.74	0.000289917	0.00747681
2844.2	-0.697876	-0.020462
2844.66	-0.000494385	0.0047641
2845.14	-0.000259399	0.00747681
2845.6	-0.698029	-0.020462
2846.06	-0.000189209	0.00475891
2846.54	-0.000164795	0.00747803
2847	-0.6987	-0.020462
2847.46	0.000619507	0.00475739
2847.94	0.000372314	0.00747589
2848.4	-0.698029	-0.0204651
2848.86	-0.000454712	0.00476593
2849.34	-0.000445557	0.00748749
2849.8	-0.698456	-0.0204437
2850.26	0.00062561	0.00475891
2850.74	-0.000369263	0.00747894
2851.2	-0.697632	-0.0204529
2851.66	-9.15527e-06	0.00476593
2852.14	-0.00055542	0.00747955
2852.6	-0.698059	-0.0204498
2853.06	0.000424194	0.00475769
2853.54	0.000765991	0.00746948
2854	-0.698303	-0.0204529
2854.46	-0.000411987	0.00476685
2854.94	0.00062561	0.00746979
2855.4	-0.697754	-0.0204468
2855.86	-0.000427246	0.00476746
2856.34	-0.000515747	0.00748077
2856.8	-0.698334	-0.020462
2857.26	0.000479126	0.00476288
2857.74	-0.000521851	0.00747955
2858.2	-0.69754	-0.020459
2858.66	0.000335693	0.00476044
2859.14	-0.000289917	0.00747742
2859.6	-0.698608	-0.0204559
2860.06	-0.000375366	0.00476807
2860.54	0.000219727	0.00747742
2861	-0.697662	-0.0204498
2861.46	-0.000531006	0.00476837
2861.94	8.23975e-05	0.0074707
2862.4	-0.697845	-0.0204468
2862.86	0.000741577	0.00476227
2863.34	-0.000439453	0.00747925
2863.8	-0.697937	-0.020459
2864.26	-0.00043335	0.00476807
2864.74	-0.000262451	0.00747498
2865.2	-0.69873	-0.0204376
2865.66	0.000161743	0.0047641
2866.14	2.74658e-05	0.00747162
2866.6	-0.698029	-0.0204468
2867.06	0.000497437	0.0047641
2867.54	0.000369263	0.00746857
2868	-0.697723	-0.0204559
2868.46	-0.000457764	0.00477234
2868.94	3.96729e-05	0.00746582
2869.4	-0.697662	-0.0204529
2869.86	0.000396729	0.00477386
2870.34	-0.000177002	0.00747498
2870.8	-0.698761	-0.0204407
2871.26	-0.000283813	0.00477295
2871.74	0.000683594	0.00746765
2872.2	-0.697571	-0.0204468
2872.66	0.000256348	0.00477264
2873.14	0.000549316	0.0074649
2873.6	-0.697601	-0.0204407
2874.06	0.000579834	0.00476807
2874.54	0.000363159	0.00746124
2875	-0.698029	-0.020462
2875.46	0.000695801	0.0047583
2875.94	0.00072937	0.0074527
2876.4	-0.697571	-0.020462
2876.86	-0.000540161	0.00475922
2877.34	-0.000561523	0.00746002
2877.8	-0.69751	-0.020462
2878.26	0.00078125	0.00475372
2878.74	5.18799e-05	0.007453
2879.2	-0.697632	-0.020462
2879.66	0.000708008	0.0047525
2880.14	-0.00050354	0.0074585
2880.6	-0.697998	-0.0204498
2881.06	0.000439453	0.00475403
2881.54	-0.000253296	0.00745544
2882	-0.698151	-0.0204559
2882.46	-3.66211e-05	0.00475983
2882.94	-0.000485229	0.00745789
2883.4	-0.698792	-0.0204498
2883.86	-9.15527e-06	0.00475983
2884.34	-0.000579834	0.00745667
2884.8	-0.697968	-0.0204468
2885.26	0.000881958	0.00475983
2885.74	-0.000521851	0.00745483
2886.2	-0.697571	-0.0204498
2886.66	0.000772095	0.00475983
2887.14	0.000570679	0.00744904
2887.6	-0.698608	-0.0204498
2888.06	-0.000189209	0.00476837
2888.54	-0.00050354	0.00745636
2889	-0.698853	-0.0204407
2889.46	0.00067749	0.00476013
2889.94	0.000170898	0.00745392
2890.4	-0.697571	-0.0204529
2890.86	-0.000442505	0.00477081
2891.34	-0.000326538	0.00745087
2891.8	-0.698364	-0.0204468
2892.26	0.000598145	0.00476196
2892.74	-0.000198364	0.00745453
2893.2	-0.698212	-0.0204407
2893.66	-0.000411987	0.00477478
2894.14	0.000424194	0.00745483
2894.6	-0.698151	-0.0204498
2895.06	-0.000457764	0.00477417
2895.54	-0.000149536	0.00745667
2896	-0.698334	-0.0204346
2896.46	0.000610352	0.00476532
2896.94	0.00012207	0.00745667
2897.4	-0.69751	-0.0204468
2897.86	-0.000302124	0.00477478
2898.34	-0.000460815	0.00745483
2898.8	-0.698792	-0.0204376
2899.26	-0.000128174	0.00477722
2899.74	0.000732422	0.00744934
2900.2	-0.698578	-0.0204407
2900.66	-0.000180054	0.00477081
2901.14	-0.000531006	0.00745728
2901.6	-0.698212	-0.0204498
2902.06	0.000531006	0.00476776
2902.54	0.000634766	0.00744781
2903	-0.698792	-0.0204315
2903.46	0.000527954	0.00477081
2903.94	0.000680542	0.00745056
2904.4	-0.6987	-0.0204376
2904.86	-0.000112915	0.00477844
2905.34	-0.000518799	0.00745667
2905.8	-0.697876	-0.0204376
2906.26	0.000527954	0.00477295
2906.74	-0.000305176	0.00745514
2907.2	-0.697723	-0.0204437
2907.66	0.000100708	0.00478027
2908.14	-0.000320435	0.00745483
2908.6	-0.697937	-0.0204376
2909.06	-0.000418091	0.00478119
2909.54	0.00017395	0.00745026
2910	-0.698425	-0.0204376
2910.46	0.000427246	0.00477905
2910.94	0.000604248	0.00744598
2911.4	-0.698059	-0.0204407
2911.86	3.05176e-05	0.00477936
2912.34	-0.000100708	0.00745117
2912.8	-0.698761	-0.0204224
2913.26	-0.000286865	0.00478699
2913.74	-9.46045e-05	0.00745697
2914.2	-0.697723	-0.0204346
2914.66	6.40869e-05	0.00478546
2915.14	0.000802612	0.0074469
2915.6	-0.698761	-0.0204224
2916.06	-2.74658e-05	0.00478729
2916.54	0.000616455	0.00744507
2917	-0.697601	-0.0204254
2917.46	-0.000366211	0.00478912
2917.94	0.000509644	0.00744812
2918.4	-0.697601	-0.0204346
2918.86	0.000238037	0.00478546
2919.34	0.000646973	0.00744507
2919.8	-0.698853	-0.0204254
2920.26	0.000561523	0.00477905
2920.74	-0.000469971	0.00745178
2921.2	-0.698303	-0.0204285
2921.66	0.000238037	0.00478363
2922.14	0.000564575	0.00744171
2922.6	-0.69873	-0.0204163
2923.06	5.18799e-05	0.00478973
2923.54	4.27246e-05	0.00744202
2924	-0.69873	-0.0204132
2924.46	-0.000402832	0.00479156
2924.94	3.05176e-05	0.00744873
2925.4	-0.697632	-0.0204193
2925.86	0.000650024	0.00478638
2926.34	0.000558472	0.00744232
2926.8	-0.698425	-0.0204254
2927.26	-0.000384521	0.00479095
2927.74	0.000247192	0.00744568
2928.2	-0.698181	-0.0204102
2928.66	0.000762939	0.00478302
2929.14	-8.8501e-05	0.00745026
2929.6	-0.698639	-0.0204041
2930.06	0.000335693	0.00478302
2930.54	0.000292969	0.00743835
2931	-0.69873	-0.0204132
2931.46	0.000341797	0.00478546
2931.94	0.000588989	0.00743896
2932.4	-0.698822	-0.0204071
2932.86	-0.000177002	0.00479279
2933.34	0.000482178	0.00743774
2933.8	-0.69754	-0.0204041
2934.26	-0.000411987	0.00479309
2934.74	0.000332642	0.00743744
2935.2	-0.69754	-0.0204041
2935.66	-0.000314331	0.00479248
2936.14	0.000268555	0.00743896
2936.6	-0.697723	-0.0204041
2937.06	0.000567627	0.00479004
2937.54	0.000491333	0.00743317
2938	-0.698639	-0.0203979
2938.46	0.000598145	0.00479156
2938.94	-0.00039978	0.00744141
2939.4	-0.698517	-0.020401
2939.86	-0.000430298	0.00479675
2940.34	-0.000408936	0.00744385
2940.8	-0.69809	-0.0203949
2941.26	0.00072937	0.00478821
2941.74	0.000537109	0.00743469
2942.2	-0.698456	-0.0203918
2942.66	0.000302124	0.00479187
2943.14	-0.000509644	0.00744049
2943.6	-0.698761	-0.0203918
2944.06	0.000750732	0.00478607
2944.54	0.000369263	0.00743408
2945	-0.697571	-0.0204102
2945.46	-0.000488281	0.00479767
2945.94	0.000592041	0.00744232
2946.4	-0.697754	-0.0204163
2946.86	-0.000109863	0.00479767
2947.34	0.000152588	0.00743988
2947.8	-0.6987	-0.020401
2948.26	-0.000119019	0.00479675
2948.74	0.000415039	0.00744049
2949.2	-0.698578	-0.0204041
2949.66	-0.000457764	0.00479431
2950.14	-0.000332642	0.00744202
2950.6	-0.698761	-0.0204071
2951.06	0.000250244	0.00478882
2951.54	0.000469971	0.00743317
2952	-0.698669	-0.0204041
2952.46	0.000564575	0.00478973
2952.94	0.000466919	0.00743927
2953.4	-0.697937	-0.0204102
2953.86	0.000192261	0.00478821
2954.34	-6.40869e-05	0.00743561
2954.8	-0.698639	-0.020401
2955.26	0.000485229	0.00479492
2955.74	-0.000335693	0.00744202
2956.2	-0.69754	-0.0204041
2956.66	0.000106812	0.00479309
2957.14	0.00067749	0.00742981
2957.6	-0.6987	-0.0204102
2958.06	-0.000311279	0.00480316
2958.54	-0.00017395	0.00743439
2959	-0.698669	-0.0203918
2959.46	0.000588989	0.00478821
2959.94	-0.000521851	0.00743591
2960.4	-0.697998	-0.0204071
2960.86	0.00020752	0.00479767
2961.34	0.000668335	0.00742981
2961.8	-0.698547	-0.0203918
2962.26	0.000552368	0.0047934
2962.74	0.000137329	0.00743011
2963.2	-0.697784	-0.0204041
2963.66	-0.000415039	0.00480042
2964.14	0.000671387	0.00742737
2964.6	-0.697815	-0.0204041
2965.06	0.000619507	0.0047934
2965.54	-0.000494385	0.007435
2966	-0.698608	-0.0203888
2966.46	0.000674438	0.00479004
2966.94	0.000146484	0.00743103
2967.4	-0.697754	-0.0203918
2967.86	0.000222778	0.00479919
2968.34	-0.000158691	0.00743317
2968.8	-0.698303	-0.0203979
2969.26	0.000411987	0.00479004
2969.74	0.000567627	0.00742645
2970.2	-0.698456	-0.0203796
2970.66	0.000790405	0.00479279
2971.14	-0.000115967	0.00742676
2971.6	-0.69873	-0.0203918
2972.06	0.000765991	0.00479919
2972.54	-8.54492e-05	0.00742615
2973	-0.698669	-0.0203827
2973.46	0.000552368	0.00479645
2973.94	-0.000256348	0.00742432
2974.4	-0.697998	-0.0203979
2974.86	-0.000411987	0.00480194
2975.34	-0.000439453	0.00742859
2975.8	-0.698242	-0.0203827
2976.26	0.000854492	0.0047937
2976.74	0.000228882	0.00742157
2977.2	-0.69873	-0.0203888
2977.66	-0.00039978	0.00480255
2978.14	-0.00050354	0.00742432
2978.6	-0.69754	-0.0203949
2979.06	0.000805664	0.0047937
2979.54	0.00050354	0.00741699
2980	-0.697632	-0.0203888
2980.46	-0.000445557	0.00480042
2980.94	-0.000531006	0.00742157
2981.4	-0.697662	-0.0203857
2981.86	0.000314331	0.00479706
2982.34	-0.000390625	0.00741943
2982.8	-0.698517	-0.0203766
2983.26	-0.000140381	0.00479645
2983.74	-0.000509644	0.00741791
2984.2	-0.698212	-0.0203705
2984.66	0.000210571	0.00479248
2985.14	0.000189209	0.00741516
2985.6	-0.697662	-0.0203766
2986.06	-0.000366211	0.00480347
2986.54	0.00067749	0.00741425
2987	-0.69754	-0.0203735
2987.46	-1.83105e-05	0.00480194
2987.94	0.000708008	0.00741302
2988.4	-0.69751	-0.0203735
2988.86	0.000314331	0.00480011
2989.34	0.000515747	0.00741577
2989.8	-0.69873	-0.0203735
2990.26	0.000717163	0.00479553
2990.74	-0.00055542	0.00741852
2991.2	-0.698364	-0.0203674
2991.66	0.000408936	0.00480133
2992.14	-3.35693e-05	0.0074118
2992.6	-0.697998	-0.0203766
2993.06	-0.000445557	0.00480347
2993.54	0.000610352	0.00741241
2994	-0.698792	-0.0203674
2994.46	0.000656128	0.00479431
2994.94	0.000698853	0.00740814
2995.4	-0.6987	-0.0203552
2995.86	-1.52588e-05	0.00480438
2996.34	-0.000491333	0.00741547
2996.8	-0.697937	-0.0203735
2997.26	-0.000216675	0.00480133
2997.74	-0.00043335	0.0074115
2998.2	-0.698181	-0.0203613
2998.66	0.000469971	0.00479736
2999.14	0.000140381	0.00741364
2999.6	-0.697876	-0.0203613
3000.06	-0.000250244	0.00480743
3000.54	0.000216675	0.00740448
3001	-0.697723	-0.0203644
3001.46	-8.8501e-05	0.00480713
3001.94	-0.000308228	0.00741791
3002.4	-0.697571	-0.0204102
3002.86	-0.000198364	0.00480621
3003.34	7.93457e-05	0.00741699
3003.8	-0.697754	-0.020401
3004.26	0.000265503	0.0048053
3004.74	-0.000457764	0.00742157
3005.2	-0.697876	-0.0204102
3005.66	-8.8501e-05	0.00480621
3006.14	-0.000476074	0.00742157
3006.6	-0.69751	-0.0204071
3007.06	-0.000500488	0.00480774
3007.54	-0.000540161	0.0074176
3007.96	-1.52588e-05	0.00330078