File: Edgar/20240605/20240605/electrodeposition_pulsed_potential_20240605_B/pulses_5000_to_6000.txt
Time (s)	WE(1).Potential (V)	WE(1).Current (A)
3725.65	-0.697357	-0.0240967
3726.11	-0.000384521	0.0026712
3726.59	-0.000457764	0.00591064
3727.05	-0.698639	-0.0210022
3727.51	0.000753784	0.00437164
3727.99	0.000753784	0.00678986
3728.45	-0.698547	-0.0204773
3728.91	0.000650024	0.00469971
3729.39	0.000683594	0.00698639
3729.85	-0.697723	-0.0203491
3730.31	0.000741577	0.00479614
3730.79	0.000784302	0.00705017
3731.25	-0.697754	-0.0202911
3731.71	0.000714111	0.00483246
3732.19	0.000518799	0.00708282
3732.65	-0.697571	-0.0202728
3733.11	-0.000305176	0.00486237
3733.59	0.000708008	0.00710052
3734.05	-0.697479	-0.0202545
3734.51	-0.000421143	0.00487732
3734.99	0.000280762	0.00711304
3735.45	-0.6987	-0.0202301
3735.91	0.000665283	0.00488312
3736.39	-0.000527954	0.00712738
3736.85	-0.697632	-0.0202332
3737.31	0.000592041	0.00489624
3737.79	0.000177002	0.00713684
3738.25	-0.697784	-0.020224
3738.71	-0.000354004	0.0049054
3739.19	0.000616455	0.00713745
3739.65	-0.69812	-0.0202118
3740.11	-0.000338745	0.00490997
3740.59	0.000305176	0.0071463
3741.05	-0.697998	-0.0202179
3741.51	-0.000408936	0.0049173
3741.99	-0.000445557	0.00715424
3742.45	-0.697571	-0.0202087
3742.91	2.13623e-05	0.00491669
3743.39	-0.000457764	0.00715637
3743.85	-0.698181	-0.0202026
3744.31	-0.000134277	0.004921875
3744.79	0.000213623	0.00715363
3745.25	-0.697876	-0.0202026
3745.71	0.00022583	0.00492065
3746.19	0.000448608	0.00715546
3746.65	-0.69751	-0.0201904
3747.11	0.000354004	0.00492798
3747.59	0.000350952	0.00715973
3748.05	-0.697479	-0.0201904
3748.51	0.000671387	0.00492676
3748.99	0.000292969	0.00716248
3749.45	-0.69754	-0.0201813
3749.91	0.000698853	0.00493073
3750.39	-0.000146484	0.00716705
3750.85	-0.697784	-0.0201691
3751.31	0.000463867	0.00493774
3751.79	-0.000436401	0.00716705
3752.25	-0.69809	-0.0201691
3752.71	0.000787354	0.00493591
3753.19	-0.000305176	0.00716766
3753.65	-0.698334	-0.020163
3754.11	-0.000418091	0.00494385
3754.59	-5.18799e-05	0.00716797
3755.05	-0.697571	-0.020166
3755.51	0.000460815	0.00493683
3755.99	0.000442505	0.00716461
3756.45	-0.698822	-0.0201569
3756.91	0.000769043	0.00493927
3757.39	-0.000198364	0.00717468
3757.85	-0.697632	-0.0201599
3758.31	-0.000463867	0.00494751
3758.79	0.000466919	0.00716553
3759.25	-0.698425	-0.0201477
3759.71	-0.000531006	0.0049472
3760.19	-0.000479126	0.00717255
3760.65	-0.697693	-0.0201721
3761.11	-0.0003479	0.00495514
3761.59	0.000689697	0.0071814
3762.05	-0.697479	-0.0201721
3762.51	-0.000445557	0.00495331
3762.99	0.000564575	0.00718597
3763.45	-0.698547	-0.0201874
3763.91	-0.00043335	0.00495331
3764.39	0.000292969	0.0071875
3764.85	-0.697723	-0.0201935
3765.31	0.000527954	0.00494934
3765.79	0.000256348	0.00719025
3766.25	-0.69873	-0.0201813
3766.71	-0.000408936	0.00495148
3767.19	-0.000195313	0.00719391
3767.65	-0.697571	-0.0201813
3768.11	3.66211e-05	0.00495636
3768.59	-0.000497437	0.00719543
3769.05	-0.698761	-0.0201782
3769.51	0.000534058	0.00495148
3769.99	-0.000268555	0.00719177
3770.45	-0.697479	-0.0201813
3770.91	0.000430298	0.0049527
3771.39	0.000521851	0.00718567
3771.85	-0.698273	-0.0201691
3772.31	0.000674438	0.00495331
3772.79	-0.000534058	0.00719086
3773.25	-0.698395	-0.0201721
3773.71	-0.000213623	0.00496063
3774.19	-0.000469971	0.00719452
3774.65	-0.698761	-0.020166
3775.11	0.000723267	0.00495361
3775.59	-9.15527e-06	0.00718842
3776.05	-0.69751	-0.0201721
3776.51	-0.000387573	0.00496185
3776.99	2.74658e-05	0.00719147
3777.45	-0.698853	-0.0201691
3777.91	0.000500488	0.00495605
3778.39	-0.000393677	0.00719177
3778.85	-0.69754	-0.0201691
3779.31	0.0003479	0.00495789
3779.79	0.000759888	0.00718597
3780.25	-0.697906	-0.0201691
3780.71	0.000210571	0.00495483
3781.19	-0.000424194	0.00719025
3781.65	-0.697876	-0.020163
3782.11	0.000765991	0.00495697
3782.59	0.000473022	0.00718658
3783.05	-0.697632	-0.0201691
3783.51	0.000424194	0.00496216
3783.99	0.000543213	0.00718292
3784.45	-0.697479	-0.0201569
3784.91	0.000637817	0.00496063
3785.39	0.000643921	0.00718231
3785.85	-0.69873	-0.0201508
3786.31	0.000518799	0.00496094
3786.79	8.23975e-05	0.00718536
3787.25	-0.69751	-0.0201599
3787.71	-0.000424194	0.00496338
3788.19	-0.000592041	0.00719055
3788.65	-0.698059	-0.0201599
3789.11	-0.000128174	0.00496704
3789.59	-0.00039978	0.00718933
3790.05	-0.698639	-0.0201538
3790.51	0.000631714	0.00496124
3790.99	-0.000427246	0.00719513
3791.45	-0.698883	-0.020163
3791.91	0.000613403	0.00496063
3792.39	0.000189209	0.00719604
3792.85	-0.698608	-0.020163
3793.31	-0.000448608	0.00497009
3793.79	-1.52588e-05	0.00719727
3794.25	-0.697845	-0.0201874
3794.71	0.000778198	0.00496185
3795.19	3.05176e-06	0.00719879
3795.65	-0.698517	-0.020163
3796.11	-0.000515747	0.00497101
3796.59	-0.00050354	0.00719635
3797.05	-0.697571	-0.0201721
3797.51	-0.000411987	0.00497009
3797.99	-0.000210571	0.00719757
3798.45	-0.6987	-0.0201752
3798.91	-0.000430298	0.00496918
3799.39	-0.000357056	0.00719666
3799.85	-0.69812	-0.0201782
3800.31	-0.000286865	0.00497009
3800.79	0.000106812	0.00719299
3801.25	-0.698456	-0.0201691
3801.71	-0.000234985	0.00496948
3802.19	-0.000576782	0.00719543
3802.65	-0.697662	-0.0201691
3803.11	-0.000311279	0.00497192
3803.59	0.000561523	0.00718903
3804.05	-0.69754	-0.0201782
3804.51	-0.000418091	0.0049707
3804.99	0.000192261	0.0071936
3805.45	-0.698456	-0.0201813
3805.91	-0.000442505	0.00497528
3806.39	0.00071106	0.00718903
3806.85	-0.697723	-0.0201691
3807.31	0.000744629	0.00496399
3807.79	-0.000350952	0.00719513
3808.25	-0.697632	-0.0201721
3808.71	-0.000314331	0.00497437
3809.19	3.05176e-06	0.00719421
3809.65	-0.698761	-0.020163
3810.11	0.000598145	0.00496948
3810.59	0.000564575	0.00718567
3811.05	-0.697571	-0.020166
3811.51	0.000585937	0.00496582
3811.99	-0.000509644	0.00719208
3812.45	-0.698669	-0.020163
3812.91	-0.000430298	0.00497467
3813.39	9.15527e-06	0.00718658
3813.85	-0.698853	-0.0201691
3814.31	0.000772095	0.00496582
3814.79	0.00057373	0.00718323
3815.25	-0.697601	-0.0201691
3815.71	0.00072937	0.00496552
3816.19	0.000738525	0.00718597
3816.65	-0.697998	-0.0201599
3817.11	-0.000531006	0.00497223
3817.59	0.000668335	0.00718079
3818.05	-0.697723	-0.0201691
3818.51	0.000671387	0.00496521
3818.99	0.000204468	0.00718597
3819.45	-0.698669	-0.0201599
3819.91	0.000665283	0.00496521
3820.39	-3.66211e-05	0.00718811
3820.85	-0.698792	-0.0201569
3821.31	-0.000112915	0.00496948
3821.79	0.000695801	0.00717896
3822.25	-0.697998	-0.0201691
3822.71	0.000360107	0.00496887
3823.19	0.000137329	0.00718719
3823.65	-0.697632	-0.0201599
3824.11	0.000372314	0.00496399
3824.59	-0.000222778	0.00718292
3825.05	-0.697968	-0.0201569
3825.51	0.000341797	0.00497101
3825.99	4.88281e-05	0.00718384
3826.45	-0.698792	-0.0201599
3826.91	-0.000485229	0.00497314
3827.39	-0.000149536	0.00718109
3827.85	-0.698151	-0.0201447
3828.31	0.000744629	0.00496613
3828.79	0.000613403	0.00717865
3829.25	-0.698822	-0.0201416
3829.71	0.000546265	0.00496948
3830.19	-0.000167847	0.00718628
3830.65	-0.698547	-0.0201447
3831.11	0.000708008	0.00496887
3831.59	-0.000170898	0.00718292
3832.05	-0.698151	-0.0201508
3832.51	-0.00027771	0.00497284
3832.99	-0.000494385	0.00718323
3833.45	-0.698853	-0.0201447
3833.91	0.000256348	0.00496674
3834.39	0.000680542	0.00717499
3834.85	-0.697723	-0.0201355
3835.31	-0.000457764	0.0049762
3835.79	-0.000518799	0.00718384
3836.25	-0.698761	-0.0201416
3836.71	-0.00038147	0.00497589
3837.19	0.000448608	0.00717194
3837.65	-0.698151	-0.0201447
3838.11	0.000604248	0.00497162
3838.59	0.000650024	0.00717438
3839.05	-0.697632	-0.0201416
3839.51	0.000689697	0.00496552
3839.99	0.00071106	0.00717133
3840.45	-0.69751	-0.0201447
3840.91	0.000738525	0.00496674
3841.39	-2.74658e-05	0.00717804
3841.85	-0.69751	-0.0201447
3842.31	0.000262451	0.00496979
3842.79	-0.000354004	0.00717987
3843.25	-0.69873	-0.0201447
3843.71	-0.00038147	0.00497406
3844.19	0.000427246	0.00717133
3844.65	-0.698151	-0.0201385
3845.11	0.00010376	0.0049765
3845.59	0.000231934	0.00717377
3846.05	-0.6987	-0.0201324
3846.51	-0.000418091	0.00497681
3846.99	9.15527e-06	0.00717529
3847.45	-0.698456	-0.0201355
3847.91	0.000238037	0.00496918
3848.39	-0.000463867	0.00717804
3848.85	-0.697571	-0.0201416
3849.31	0.000741577	0.00497009
3849.79	0.000424194	0.00716675
3850.25	-0.697571	-0.0201416
3850.71	0.000164795	0.00497375
3851.19	0.000634766	0.00717621
3851.65	-0.697784	-0.0201508
3852.11	0.000491333	0.00497559
3852.59	0.000457764	0.00717346
3853.05	-0.698761	-0.0201385
3853.51	-6.10352e-06	0.00497253
3853.99	0.000527954	0.00716766
3854.45	-0.698578	-0.0201355
3854.91	0.000216675	0.0049704
3855.39	5.49316e-05	0.00717133
3855.85	-0.697998	-0.0201355
3856.31	-0.000354004	0.00497437
3856.79	-0.00017395	0.00717285
3857.25	-0.698578	-0.0201416
3857.71	-0.000476074	0.00497559
3858.19	0.000631714	0.00716644
3858.65	-0.698578	-0.0201416
3859.11	-0.000442505	0.00497192
3859.59	0.000628662	0.00716644
3860.05	-0.698792	-0.0201355
3860.51	0.000564575	0.00496796
3860.99	0.00065918	0.00715973
3861.45	-0.698608	-0.0201385
3861.91	0.000756836	0.00497162
3862.39	0.000698853	0.00716248
3862.85	-0.69754	-0.0201416
3863.31	0.00022583	0.0049762
3863.79	0.000427246	0.00717194
3864.25	-0.698761	-0.0201508
3864.71	0.000631714	0.00497284
3865.19	0.00045166	0.00716644
3865.65	-0.6987	-0.0201569
3866.11	0.000799561	0.00497101
3866.59	-0.000549316	0.00717804
3867.05	-0.698212	-0.0201569
3867.51	0.000296021	0.00497437
3867.99	0.000332642	0.00717224
3868.45	-0.698456	-0.0201569
3868.91	0.000305176	0.0049765
3869.39	-0.000152588	0.00717529
3869.85	-0.697571	-0.0201691
3870.31	0.000762939	0.00497223
3870.79	0.000646973	0.00716614
3871.25	-0.698486	-0.0201538
3871.71	-0.000244141	0.00497864
3872.19	-0.000280762	0.00717285
3872.65	-0.697571	-0.020163
3873.11	0.000747681	0.00497498
3873.59	-0.000506592	0.00717377
3874.05	-0.697601	-0.020163
3874.51	0.000610352	0.00497131
3874.99	0.000668335	0.0071637
3875.45	-0.698669	-0.0201538
3875.91	0.000756836	0.00496918
3876.39	-4.57764e-05	0.0071701
3876.85	-0.697479	-0.0201599
3877.31	0.000753784	0.00496948
3877.79	-0.000180054	0.00717072
3878.25	-0.698212	-0.0201508
3878.71	0.000720215	0.00497131
3879.19	-0.00022583	0.0071701
3879.65	-0.698547	-0.0201477
3880.11	-3.05176e-06	0.00497803
3880.59	0.000286865	0.00716736
3881.05	-0.698669	-0.0201477
3881.51	0.000839233	0.00497284
3881.99	-0.000531006	0.00717285
3882.45	-0.697906	-0.020163
3882.91	-0.000280762	0.00498016
3883.39	0.000436401	0.007164
3883.85	-0.697784	-0.020163
3884.31	0.0006073	0.00497009
3884.79	0.000332642	0.00716309
3885.25	-0.697937	-0.020163
3885.71	-0.000479126	0.00498169
3886.19	-9.15527e-05	0.00716949
3886.65	-0.698273	-0.0201599
3887.11	0.000765991	0.00497131
3887.59	-0.000564575	0.00716675
3888.05	-0.698517	-0.0201508
3888.51	-0.000286865	0.0049823
3888.99	-0.000186157	0.00716461
3889.45	-0.697998	-0.0201508
3889.91	0.000131226	0.00497925
3890.39	0.000109863	0.00716431
3890.85	-0.698761	-0.0201477
3891.31	0.000119019	0.00497498
3891.79	-0.000506592	0.00716705
3892.25	-0.698853	-0.0201385
3892.71	0.000735474	0.00497223
3893.19	-3.05176e-06	0.00716309
3893.65	-0.697754	-0.0201569
3894.11	0.000579834	0.00497284
3894.59	0.000704956	0.00715881
3895.05	-0.69754	-0.0201508
3895.51	-0.000488281	0.0049765
3895.99	0.000592041	0.00716339
3896.45	-0.69812	-0.0201447
3896.91	-0.000454712	0.00497955
3897.39	7.01904e-05	0.00715973
3897.85	-0.697693	-0.0201508
3898.31	0.000723267	0.00497101
3898.79	-0.000460815	0.00716339
3899.25	-0.698792	-0.0201477
3899.71	-3.35693e-05	0.0049762
3900.19	-0.000491333	0.0071637
3900.65	-0.697632	-0.0201508
3901.11	0.000744629	0.00497498
3901.59	-0.0003479	0.00716217
3902.05	-0.697815	-0.0201416
3902.51	0.000689697	0.00497314
3902.99	-0.000497437	0.00716248
3903.45	-0.698273	-0.0201477
3903.91	0.000479126	0.00497894
3904.39	-0.000515747	0.00716125
3904.85	-0.698181	-0.0201355
3905.31	-0.000204468	0.00497742
3905.79	0.000616455	0.00715302
3906.25	-0.697968	-0.0201324
3906.71	-0.000445557	0.00498108
3907.19	0.000363159	0.0071521
3907.65	-0.698853	-0.0201324
3908.11	0.000585937	0.00497467
3908.59	-0.000476074	0.00716003
3909.05	-0.69754	-0.0201447
3909.51	0.000109863	0.0049826
3909.99	9.15527e-06	0.00716187
3910.45	-0.69873	-0.0201324
3910.91	8.54492e-05	0.00498077
3911.39	0.00071106	0.00715118
3911.85	-0.698486	-0.0201233
3912.31	0.000601196	0.00497314
3912.79	-0.000448608	0.00715637
3913.25	-0.697571	-0.0201263
3913.71	-0.000152588	0.00498169
3914.19	-0.000375366	0.0071579
3914.65	-0.69754	-0.0201324
3915.11	0.000741577	0.00497437
3915.59	0.000622559	0.00714966
3916.05	-0.698547	-0.0201233
3916.51	-0.000537109	0.00497955
3916.99	-0.000106812	0.00715027
3917.45	-0.698212	-0.0201324
3917.91	0.000619507	0.00497559
3918.39	0.000674438	0.00714813
3918.85	-0.698242	-0.0201172
3919.31	5.79834e-05	0.00497894
3919.79	-0.000402832	0.00715179
3920.25	-0.698547	-0.0201294
3920.71	0.000588989	0.00497559
3921.19	0.000610352	0.00714417
3921.65	-0.697693	-0.0201202
3922.11	0.000631714	0.00497833
3922.59	0.000427246	0.00714447
3923.05	-0.698334	-0.0201172
3923.51	0.000558472	0.00497345
3923.99	-0.000292969	0.00715363
3924.45	-0.6987	-0.0201202
3924.91	0.000732422	0.00497406
3925.39	0.000735474	0.00714447
3925.85	-0.698608	-0.0201172
3926.31	0.000585937	0.00497467
3926.79	0.000720215	0.00714447
3927.25	-0.698212	-0.0201324
3927.71	0.000637817	0.0049762
3928.19	0.000366211	0.00714905
3928.65	-0.698608	-0.0201202
3929.11	-0.000268555	0.00498352
3929.59	0.000643921	0.00714539
3930.05	-0.698761	-0.0201233
3930.51	0.000732422	0.00498016
3930.99	8.8501e-05	0.00714355
3931.45	-0.698608	-0.0201202
3931.91	0.000772095	0.00498016
3932.39	0.000350952	0.00714264
3932.85	-0.698761	-0.0201294
3933.31	0.000506592	0.00497803
3933.79	0.00045166	0.00714844
3934.25	-0.698456	-0.0201385
3934.71	-0.000137329	0.0049826
3935.19	-0.00012207	0.00715302
3935.65	-0.698792	-0.0201294
3936.11	9.15527e-05	0.00498199
3936.59	0.000726318	0.00714569
3937.05	-0.698059	-0.0201294
3937.51	0.000762939	0.00497711
3937.99	-0.000567627	0.00715179
3938.45	-0.698639	-0.0201263
3938.91	-0.000128174	0.00498627
3939.39	-0.000482178	0.00715332
3939.85	-0.697601	-0.0201385
3940.31	0.00072937	0.00497772
3940.79	0.000408936	0.007146
3941.25	-0.698303	-0.0201324
3941.71	0.000750732	0.0049762
3942.19	-0.000338745	0.00714996
3942.65	-0.698669	-0.0201263
3943.11	0.000521851	0.00497498
3943.59	-0.000479126	0.00715057
3944.05	-0.698761	-0.0201141
3944.51	-0.000234985	0.00497833
3944.99	0.000137329	0.00714813
3945.45	-0.697632	-0.0201263
3945.91	0.000802612	0.00497864
3946.39	-3.05176e-05	0.00714783
3946.85	-0.697906	-0.0201233
3947.31	0.000314331	0.00497742
3947.79	-0.000292969	0.00714905
3948.25	-0.698059	-0.0201324
3948.71	0.000738525	0.00497772
3949.19	-0.000131226	0.00714813
3949.65	-0.697601	-0.0201324
3950.11	0.00065918	0.00497864
3950.59	0.000543213	0.00714417
3951.05	-0.698242	-0.0201294
3951.51	0.000457764	0.00498108
3951.99	0.000741577	0.00714661
3952.45	-0.698669	-0.0201202
3952.91	0.000802612	0.00497986
3953.39	-0.000363159	0.00715118
3953.85	-0.698151	-0.0201233
3954.31	-3.66211e-05	0.00498352
3954.79	0.00062561	0.00714447
3955.25	-0.698273	-0.0201324
3955.71	-0.00045166	0.00498718
3956.19	0.000680542	0.00714264
3956.65	-0.69754	-0.0201233
3957.11	0.000436401	0.00498352
3957.59	-0.000396729	0.00714752
3958.05	-0.698761	-0.0201111
3958.51	0.000643921	0.0049826
3958.99	0.000512695	0.00714539
3959.45	-0.698761	-0.0201202
3959.91	-0.000390625	0.00499023
3960.39	-0.00043335	0.00715118
3960.85	-0.698273	-0.0201263
3961.31	0.000546265	0.00497955
3961.79	0.000576782	0.00713806
3962.25	-0.698822	-0.0201202
3962.71	0.00071106	0.00498077
3963.19	0.000595093	0.00714417
3963.65	-0.697693	-0.0201263
3964.11	-0.000469971	0.00498901
3964.59	0.000363159	0.00714325
3965.05	-0.698761	-0.0201172
3965.51	-0.000436401	0.00498871
3965.99	-0.000216675	0.00714905
3966.45	-0.697632	-0.0201233
3966.91	0.000726318	0.00498047
3967.39	-0.000509644	0.00714752
3967.85	-0.698761	-0.0201172
3968.31	0.000588989	0.0049826
3968.79	-0.000393677	0.0071463
3969.25	-0.698425	-0.0201263
3969.71	0.000753784	0.00498322
3970.19	-1.2207e-05	0.00714233
3970.65	-0.698242	-0.0201324
3971.11	0.000387573	0.00498718
3971.59	-3.05176e-05	0.0071402
3972.05	-0.697632	-0.0201202
3972.51	0.000183105	0.00498962
3972.99	0.000518799	0.00714294
3973.45	-0.697571	-0.0201233
3973.91	0.000238037	0.00498108
3974.39	0.0006073	0.00713928
3974.85	-0.698364	-0.0201233
3975.31	-0.000476074	0.00499359
3975.79	9.15527e-05	0.00714355
3976.25	-0.698517	-0.0201141
3976.71	0.00022583	0.00498718
3977.19	0.000637817	0.00713531
3977.65	-0.698883	-0.0201172
3978.11	0.000750732	0.00498474
3978.59	-0.000473022	0.00714813
3979.05	-0.698425	-0.0201141
3979.51	0.000369263	0.00498596
3979.99	-0.000595093	0.00714417
3980.45	-0.6987	-0.0201111
3980.91	-0.000460815	0.00499329
3981.39	0.000360107	0.00714142
3981.85	-0.697815	-0.0201141
3982.31	-0.000442505	0.00499268
3982.79	0.000280762	0.00713715
3983.25	-0.697571	-0.0201233
3983.71	0.000311279	0.0049884
3984.19	5.49316e-05	0.00713654
3984.65	-0.698669	-0.0201111
3985.11	-0.000402832	0.00499359
3985.59	0.000479126	0.00713623
3986.05	-0.697906	-0.0201233
3986.51	3.05176e-06	0.0049881
3986.99	-0.000369263	0.00713623
3987.45	-0.698151	-0.020105
3987.91	0.000378418	0.00498505
3988.39	0.000524902	0.00713409
3988.85	-0.697876	-0.020108
3989.31	0.000671387	0.00498749
3989.79	0.00038147	0.00713104
3990.25	-0.697601	-0.0201141
3990.71	0.000634766	0.00498413
3991.19	-0.000445557	0.00713531
3991.65	-0.69754	-0.020105
3992.11	0.000491333	0.00498688
3992.59	0.000628662	0.00713043
3993.05	-0.697845	-0.0201019
3993.51	-0.00015564	0.00499298
3993.99	-0.000210571	0.00713165
3994.45	-0.698578	-0.0200928
3994.91	-0.000524902	0.00499451
3995.39	0.000604248	0.0071283
3995.85	-0.697662	-0.020108
3996.31	0.000753784	0.00498444
3996.79	-4.27246e-05	0.00713287
3997.25	-0.697968	-0.0200928
3997.71	-0.000299072	0.00499451
3998.19	0.000671387	0.00712769
3998.65	-0.69754	-0.0201019
3999.11	-0.000219727	0.00499176
3999.59	0.000634766	0.00712769
4000.05	-0.698639	-0.0200897
4000.51	-0.000183105	0.00498749
4000.99	4.88281e-05	0.00713165
4001.45	-0.698761	-0.0200897
4001.91	0.000775146	0.00498657
4002.39	-0.000314331	0.00713074
4002.85	-0.698608	-0.0200989
4003.31	0.000588989	0.00498688
4003.79	0.000540161	0.00712372
4004.25	-0.698395	-0.0200867
4004.71	0.000692749	0.0049826
4005.19	0.00050354	0.00712097
4005.65	-0.698883	-0.0200836
4006.11	0.000582886	0.00498688
4006.59	1.52588e-05	0.00712555
4007.05	-0.6987	-0.0200928
4007.51	0.000299072	0.00499115
4007.99	0.000622559	0.00712677
4008.45	-0.69754	-0.0200897
4008.91	-0.000500488	0.00499451
4009.39	-0.000244141	0.00712769
4009.85	-0.697723	-0.0200867
4010.31	-0.000436401	0.00499268
4010.79	0.000680542	0.007117
4011.25	-0.698517	-0.0200745
4011.71	-0.00038147	0.00499207
4012.19	0.000393677	0.00712097
4012.65	-0.698853	-0.0200745
4013.11	-0.000439453	0.00499359
4013.59	0.00057373	0.00712128
4014.05	-0.698029	-0.0200775
4014.51	0.000378418	0.00498993
4014.99	0.000494385	0.00712006
4015.45	-0.698792	-0.0200775
4015.91	-0.000476074	0.00499115
4016.39	-0.000430298	0.00712463
4016.85	-0.697601	-0.0200836
4017.31	0.000643921	0.00498962
4017.79	0.000512695	0.00711609
4018.25	-0.697906	-0.0200745
4018.71	-0.000408936	0.00499573
4019.19	0.000302124	0.00711914
4019.65	-0.697662	-0.0200836
4020.11	0.000756836	0.0049884
4020.59	0.000686646	0.007117
4021.05	-0.698547	-0.0200714
4021.51	8.23975e-05	0.00499023
4021.99	-0.000402832	0.00712433
4022.45	-0.697723	-0.0200775
4022.91	-0.000366211	0.00499573
4023.39	0.000759888	0.00711365
4023.85	-0.697754	-0.0200867
4024.31	-0.000192261	0.0049942
4024.79	0.000634766	0.0071106
4025.25	-0.698639	-0.0200623
4025.71	0.00012207	0.00498932
4026.19	-0.000524902	0.00711884
4026.65	-0.698425	-0.0200684
4027.11	-0.000210571	0.00499573
4027.59	-0.000286865	0.00712036
4028.05	-0.697693	-0.0200714
4028.51	0.000158691	0.00498962
4028.99	0.000534058	0.007109375
4029.45	-0.69754	-0.0200775
4029.91	0.000762939	0.00498627
4030.39	9.76562e-05	0.00711792
4030.85	-0.698059	-0.0200684
4031.31	0.000750732	0.00498535
4031.79	0.000698853	0.00710968
4032.25	-0.698547	-0.0200562
4032.71	-0.000131226	0.00499725
4033.19	0.000442505	0.0071106
4033.65	-0.697662	-0.0200684
4034.11	0.000784302	0.00498993
4034.59	0.000234985	0.00711151
4035.05	-0.698425	-0.0200623
4035.51	-9.15527e-05	0.00499329
4035.99	-0.000457764	0.0071167
4036.45	-0.698395	-0.0200653
4036.91	0.00017395	0.00499634
4037.39	0.000695801	0.00710999
4037.85	-0.698761	-0.0200592
4038.31	0.000561523	0.0049884
4038.79	0.000610352	0.00710693
4039.25	-0.697723	-0.0200623
4039.71	0.000457764	0.00498932
4040.19	0.000411987	0.00710907
4040.65	-0.698303	-0.02005
4041.11	-4.88281e-05	0.00499664
4041.59	-0.000491333	0.00711517
4042.05	-0.69751	-0.0200684
4042.51	-9.76562e-05	0.00499603
4042.99	-0.000485229	0.00711395
4043.45	-0.697632	-0.0200623
4043.91	-6.10352e-05	0.00499115
4044.39	0.000772095	0.00710419
4044.85	-0.697815	-0.0200684
4045.31	-0.000363159	0.00500031
4045.79	-0.000531006	0.00711151
4046.25	-0.698395	-0.0200623
4046.71	0.000772095	0.00498962
4047.19	-0.000363159	0.00710876
4047.65	-0.698151	-0.02005
4048.11	0.000274658	0.0049939
4048.59	0.000616455	0.00710236
4049.05	-0.698547	-0.0200439
4049.51	0.000375366	0.00499176
4049.99	-0.000323486	0.00710785
4050.45	-0.697723	-0.0200562
4050.91	0.000485229	0.0049939
4051.39	-0.000564575	0.00711121
4051.85	-0.698242	-0.020047
4052.31	0.000778198	0.00499268
4052.79	-0.000491333	0.00711029
4053.25	-0.697815	-0.02005
4053.71	-0.000372314	0.00499908
4054.19	-0.000268555	0.00710602
4054.65	-0.697754	-0.0200592
4055.11	-0.000152588	0.0049942
4055.59	-0.000421143	0.00710968
4056.05	-0.69754	-0.0200562
4056.51	0.000177002	0.00499817
4056.99	0.000366211	0.0071051
4057.45	-0.698578	-0.020047
4057.91	0.000726318	0.00499084
4058.39	-0.000576782	0.00710663
4058.85	-0.697937	-0.0200592
4059.31	0.000860596	0.0049939
4059.79	-0.000326538	0.00710693
4060.25	-0.698608	-0.0200409
4060.71	-0.000408936	0.00500031
4061.19	-0.000457764	0.0071048
4061.65	-0.697937	-0.0200409
4062.11	-0.000338745	0.00499756
4062.59	0.000320435	0.00709595
4063.05	-0.697632	-0.02005
4063.51	-0.000402832	0.00499664
4063.99	0.000100708	0.0070993
4064.45	-0.698639	-0.0200439
4064.91	-0.000244141	0.00499939
4065.39	0.000479126	0.00710052
4065.85	-0.6987	-0.0200348
4066.31	0.000793457	0.00499084
4066.79	0.000622559	0.00709534
4067.25	-0.698395	-0.0200317
4067.71	0.000445557	0.00499359
4068.19	0.00065918	0.00709381
4068.65	-0.697693	-0.0200378
4069.11	0.000616455	0.00499359
4069.59	6.10352e-05	0.00709656
4070.05	-0.698029	-0.0200317
4070.51	0.000384521	0.00499634
4070.99	0.000723267	0.00709473
4071.45	-0.697632	-0.0200409
4071.91	-0.000228882	0.00499847
4072.39	-0.000500488	0.00709778
4072.85	-0.697571	-0.0200409
4073.31	-0.000259399	0.00499939
4073.79	-0.00043335	0.0070993
4074.25	-0.698547	-0.0200317
4074.71	-0.000363159	0.00499725
4075.19	0.000375366	0.00708984
4075.65	-0.697601	-0.0200409
4076.11	0.000546265	0.00499359
4076.59	6.40869e-05	0.00709137
4077.05	-0.69873	-0.0200287
4077.51	0.000732422	0.0049942
4077.99	-0.000201416	0.0070932
4078.45	-0.697571	-0.0200348
4078.91	0.000274658	0.00499603
4079.39	-0.000317383	0.00709778
4079.85	-0.698792	-0.0200226
4080.31	0.000167847	0.00499146
4080.79	0.000665283	0.0070871
4081.25	-0.698792	-0.0200226
4081.71	-9.46045e-05	0.00499542
4082.19	0.000540161	0.0070871
4082.65	-0.698853	-0.0200317
4083.11	0.000427246	0.00499176
4083.59	0.000442505	0.00708618
4084.05	-0.69751	-0.0200378
4084.51	0.000527954	0.00499359
4084.99	-0.000119019	0.00709381
4085.45	-0.697662	-0.0200348
4085.91	-0.000430298	0.00499847
4086.39	-1.52588e-05	0.00709534
4086.85	-0.698151	-0.0200195
4087.31	-0.000469971	0.00499969
4087.79	0.000668335	0.00709076
4088.25	-0.698792	-0.0200226
4088.71	-0.000448608	0.00499908
4089.19	-0.000521851	0.00709259
4089.65	-0.698669	-0.0200256
4090.11	-0.000222778	0.00499908
4090.59	0.000637817	0.00708466
4091.05	-0.698456	-0.0200317
4091.51	0.000482178	0.00499451
4091.99	-0.00022583	0.00709198
4092.45	-0.698822	-0.0200226
4092.91	-0.000149536	0.005
4093.39	-0.000540161	0.00709198
4093.85	-0.697693	-0.0200317
4094.31	0.00065918	0.00499908
4094.79	0.000576782	0.00708252
4095.25	-0.697723	-0.0200226
4095.71	0.000747681	0.00499451
4096.19	0.000616455	0.00708069
4096.65	-0.698822	-0.0200165
4097.11	-0.000411987	0.00500061
4097.59	-0.00017395	0.00708954
4098.05	-0.697754	-0.0200165
4098.51	0.000494385	0.00499329
4098.99	-0.000354004	0.0070874
4099.45	-0.697754	-0.0200287
4099.91	0.000534058	0.00499878
4100.39	-0.000515747	0.00708984
4100.85	-0.6987	-0.0200134
4101.31	-0.000161743	0.00500214
4101.79	-0.000265503	0.00708405
4102.25	-0.698029	-0.0200287
4102.71	-0.000350952	0.005
4103.19	0.000210571	0.00708557
4103.65	-0.698792	-0.0200104
4104.11	0.000671387	0.00499237
4104.59	0.000354004	0.00707855
4105.05	-0.698792	-0.0200134
4105.51	-0.000289917	0.00500244
4105.99	-0.000195313	0.0070871
4106.45	-0.697845	-0.0200226
4106.91	0.000430298	0.00499725
4107.39	0.000717163	0.00707825
4107.85	-0.698639	-0.0200165
4108.31	-0.000485229	0.00500214
4108.79	-0.000579834	0.00708466
4109.25	-0.698456	-0.0200165
4109.71	0.00050354	0.0049939
4110.19	6.10352e-05	0.0070813
4110.65	-0.698212	-0.0200165
4111.11	0.000775146	0.00499786
4111.59	-0.000540161	0.00708618
4112.05	-0.69754	-0.0200195
4112.51	-0.000408936	0.00500275
4112.99	0.000650024	0.00707916
4113.45	-0.697845	-0.0200043
4113.91	0.000341797	0.00499969
4114.39	-0.000250244	0.00708344
4114.85	-0.698242	-0.0200134
4115.31	-0.000485229	0.00500183
4115.79	-0.000531006	0.00708008
4116.25	-0.697693	-0.0200195
4116.71	0.000231934	0.00499695
4117.19	-0.000299072	0.00707886
4117.65	-0.697632	-0.0200195
4118.11	0.000628662	0.00499512
4118.59	-0.000473022	0.00708282
4119.05	-0.698486	-0.0200012
4119.51	0.000476074	0.00499481
4119.99	-0.000372314	0.00707977
4120.45	-0.698761	-0.0200012
4120.91	-0.00043335	0.00500458
4121.39	-0.000531006	0.00708038
4121.85	-0.697968	-0.0200104
4122.31	0.000680542	0.00500092
4122.79	0.000100708	0.00707642
4123.25	-0.698761	-0.0199951
4123.71	0.000622559	0.00499969
4124.19	0.000674438	0.00707123
4124.65	-0.698669	-0.019989
4125.11	0.000772095	0.00499817
4125.59	0.000320435	0.00707672
4126.05	-0.698853	-0.0199982
4126.51	0.000131226	0.00500183
4126.99	3.66211e-05	0.00707764
4127.45	-0.697723	-0.0200012
4127.91	-0.00045166	0.00500488
4128.39	0.000537109	0.00706848
4128.85	-0.698608	-0.0199982
4129.31	3.05176e-06	0.0050061
4129.79	-0.000531006	0.00707855
4130.25	-0.698669	-0.0199951
4130.71	0.000146484	0.00500244
4131.19	0.000692749	0.0070697
4131.65	-0.697723	-0.0200012
4132.11	0.000692749	0.00499786
4132.59	-0.000311279	0.00707733
4133.05	-0.698761	-0.0200043
4133.51	0.000262451	0.00499908
4133.99	0.000592041	0.00707458
4134.45	-0.697632	-0.0200073
4134.91	4.88281e-05	0.0050058
4135.39	-0.000561523	0.00708008
4135.85	-0.697601	-0.0200043
4136.31	0.000366211	0.00499878
4136.79	-9.15527e-05	0.00707458
4137.25	-0.697937	-0.0199982
4137.71	-9.76562e-05	0.00500366
4138.19	-6.10352e-05	0.00707672
4138.65	-0.697601	-0.0199982
4139.11	0.000613403	0.00500061
4139.59	-0.000311279	0.00707886
4140.05	-0.698395	-0.0199982
4140.51	-0.000436401	0.00500671
4140.99	-0.0003479	0.00707977
4141.45	-0.697998	-0.0200012
4141.91	0.000250244	0.00499969
4142.39	-0.000143433	0.00707825
4142.85	-0.697968	-0.0200012
4143.31	-0.000445557	0.00500702
4143.79	-0.000152588	0.00707855
4144.25	-0.697937	-0.0199921
4144.71	0.000170898	0.00500061
4145.19	-0.000341797	0.00708099
4145.65	-0.698639	-0.0199951
4146.11	0.000585937	0.00500092
4146.59	0.000598145	0.0070694
4147.05	-0.698883	-0.0199951
4147.51	-0.000311279	0.00500854
4147.99	-0.000357056	0.00707642
4148.46	-0.697723	-0.0199982
4148.92	0.000668335	0.00500275
4149.4	0.000405884	0.0070697
4149.86	-0.698395	-0.0199982
4150.32	0.000793457	0.00500183
4150.8	0.0006073	0.00707825
4151.26	-0.697968	-0.0200134
4151.72	-0.000402832	0.00500671
4152.2	0.000653076	0.00707611
4152.66	-0.698273	-0.0200195
4153.12	0.000662231	0.00500519
4153.6	-0.000198364	0.00708405
4154.06	-0.698273	-0.0200012
4154.52	0.000427246	0.00500244
4155	0.000546265	0.00707336
4155.46	-0.698669	-0.0200073
4155.92	0.00022583	0.0050061
4156.4	-0.000402832	0.00708008
4156.86	-0.697571	-0.0200165
4157.32	-0.000112915	0.00501129
4157.8	-0.000531006	0.00708313
4158.26	-0.6987	-0.0200012
4158.72	0.000662231	0.00500275
4159.2	-0.000488281	0.00708038
4159.66	-0.697571	-0.0200104
4160.12	-6.71387e-05	0.00500824
4160.6	3.05176e-05	0.00707916
4161.06	-0.697784	-0.0200043
4161.52	0.000402832	0.00500061
4162	0.000280762	0.00707306
4162.46	-0.698669	-0.0199982
4162.92	-0.000454712	0.00500885
4163.4	-0.000457764	0.00708038
4163.86	-0.697601	-0.0200104
4164.32	-0.000476074	0.00500702
4164.8	-0.000488281	0.00707886
4165.26	-0.698792	-0.0200012
4165.72	0.000436401	0.00500061
4166.2	0.000582886	0.00707062
4166.66	-0.697968	-0.0200104
4167.12	0.000714111	0.00500183
4167.6	0.00067749	0.00706787
4168.06	-0.697784	-0.0199982
4168.52	-0.000177002	0.00503021
4169	-0.000296021	0.00708405
4169.46	-0.697723	-0.0199982
4169.92	0.000671387	0.00500214
4170.4	0.000717163	0.00707001
4170.86	-0.69873	-0.019989
4171.32	-0.000201416	0.00501129
4171.8	-0.00038147	0.00707306
4172.26	-0.697601	-0.0200073
4172.72	0.000567627	0.00500183
4173.2	0.000137329	0.00707275
4173.66	-0.698761	-0.0199951
4174.12	0.000619507	0.00500153
4174.6	-0.000360107	0.00707489
4175.06	-0.698883	-0.0199951
4175.52	-0.000161743	0.00500946
4176	0.000289917	0.00707062
4176.46	-0.6987	-0.019986
4176.92	0.000189209	0.00500244
4177.4	-0.000128174	0.00706818
4177.86	-0.698578	-0.019986
4178.32	-0.000460815	0.00500946
4178.8	-0.000521851	0.0070694
4179.26	-0.698608	-0.0199951
4179.72	0.000326538	0.005
4180.2	0.000708008	0.00706543
4180.66	-0.698425	-0.019986
4181.12	0.00038147	0.00500458
4181.6	0.000686646	0.00706177
4182.06	-0.698456	-0.0200012
4182.52	0.000775146	0.005
4183	-0.000436401	0.00707092
4183.46	-0.698639	-0.0199829
4183.92	2.13623e-05	0.00500641
4184.4	0.000534058	0.00706329
4184.86	-0.697571	-0.019989
4185.32	0.000494385	0.00500824
4185.8	0.000473022	0.00705963
4186.26	-0.698608	-0.0199829
4186.72	-0.000335693	0.00500549
4187.2	-0.000283813	0.00706635
4187.66	-0.697998	-0.0199829
4188.12	5.18799e-05	0.00500427
4188.6	3.05176e-06	0.00706573
4189.06	-0.697998	-0.019989
4189.52	-0.000180054	0.00500763
4190	0.000323486	0.00705872
4190.46	-0.698273	-0.0199707
4190.92	0.000762939	0.00500336
4191.4	0.000317383	0.00706268
4191.86	-0.698425	-0.0199829
4192.32	-0.000314331	0.0050116
4192.8	0.000784302	0.00705658
4193.26	-0.69809	-0.0199829
4193.72	0.000759888	0.00500153
4194.2	0.000619507	0.00706299
4194.66	-0.698151	-0.0199829
4195.12	-3.05176e-06	0.00501129
4195.6	0.000549316	0.00706451
4196.06	-0.698181	-0.0199921
4196.52	0.000512695	0.00500397
4197	-0.000292969	0.00706726
4197.46	-0.698547	-0.0199951
4197.92	-0.000466919	0.00501221
4198.4	8.23975e-05	0.00706573
4198.86	-0.69873	-0.019986
4199.32	0.000714111	0.00500366
4199.8	0.000402832	0.00705963
4200.26	-0.698547	-0.0199829
4200.72	0.000653076	0.00500916
4201.2	-0.000537109	0.00706787
4201.66	-0.698822	-0.0199799
4202.12	0.000576782	0.00500519
4202.6	0.000192261	0.00706573
4203.06	-0.698517	-0.0199921
4203.52	0.000692749	0.0050058
4204	-0.000518799	0.00706665
4204.46	-0.698242	-0.0199738
4204.92	0.00062561	0.00500793
4205.4	0.000708008	0.0070578
4205.86	-0.698792	-0.0199799
4206.32	3.66211e-05	0.00501221
4206.8	-0.000442505	0.00706573
4207.26	-0.697632	-0.0199829
4207.72	0.000662231	0.00500519
4208.2	0.000369263	0.00705627
4208.66	-0.698517	-0.0199799
4209.12	-0.000457764	0.00501404
4209.6	0.000622559	0.0070578
4210.06	-0.697968	-0.0199768
4210.52	-0.000427246	0.00501434
4211	-0.000485229	0.0070636
4211.46	-0.698273	-0.019986
4211.92	0.000460815	0.00500946
4212.4	0.00067749	0.00705566
4212.86	-0.698853	-0.0199768
4213.32	6.10352e-05	0.00500732
4213.8	-0.000515747	0.00706177
4214.26	-0.697632	-0.0199768
4214.72	0.000531006	0.00500397
4215.2	-0.000357056	0.00706512
4215.66	-0.6987	-0.0199768
4216.12	0.000564575	0.00500641
4216.6	0.000708008	0.00705719
4217.06	-0.698639	-0.0199829
4217.52	0.00045166	0.00500824
4218	0.000567627	0.00706146
4218.46	-0.698456	-0.0199982
4218.92	0.000683594	0.00500732
4219.4	0.000631714	0.00705811
4219.86	-0.698792	-0.019986
4220.32	0.00045166	0.00500793
4220.8	0.00065918	0.00705841
4221.26	-0.697754	-0.019986
4221.72	0.000665283	0.00501038
4222.2	0.000390625	0.00705627
4222.66	-0.698547	-0.0199738
4223.12	0.000485229	0.00500488
4223.6	0.000604248	0.00705627
4224.06	-0.697845	-0.0199921
4224.52	0.000628662	0.00500763
4225	0.000497437	0.00705963
4225.46	-0.698578	-0.0199799
4225.92	0.000643921	0.00501007
4226.4	-0.000350952	0.00706848
4226.86	-0.698547	-0.0199951
4227.32	0.000268555	0.00501495
4227.8	-0.000234985	0.00706635
4228.26	-0.698029	-0.0199951
4228.72	-0.000354004	0.00501404
4229.2	-0.000506592	0.00706726
4229.66	-0.697571	-0.0199921
4230.12	-0.000106812	0.00501221
4230.6	0.000222778	0.00706512
4231.06	-0.697662	-0.019989
4231.52	0.000335693	0.00501068
4232	0.000692749	0.00705719
4232.46	-0.697968	-0.0199829
4232.92	-0.000238037	0.00501801
4233.4	0.00027771	0.00706024
4233.86	-0.697937	-0.0199951
4234.32	-0.000302124	0.00502075
4234.8	-0.000247192	0.00706451
4235.26	-0.698364	-0.019989
4235.72	0.000201416	0.00500946
4236.2	5.18799e-05	0.0070575
4236.66	-0.697815	-0.0199951
4237.12	-0.000161743	0.00502106
4237.6	0.000247192	0.00705811
4238.06	-0.698242	-0.0199921
4238.52	0.000720215	0.00501373
4239	0.000280762	0.00706146
4239.46	-0.698273	-0.0199921
4239.92	-0.000109863	0.00502014
4240.4	6.10352e-06	0.00706116
4240.86	-0.69751	-0.019986
4241.32	0.000741577	0.00501251
4241.8	0.000479126	0.00705688
4242.26	-0.698761	-0.0199768
4242.72	0.000640869	0.00501526
4243.2	0.000558472	0.00705933
4243.66	-0.6987	-0.0199768
4244.12	-0.000457764	0.00502258
4244.6	0.000717163	0.00705597
4245.06	-0.698792	-0.0199768
4245.52	0.000628662	0.00501404
4246	0.00072937	0.00705536
4246.46	-0.69873	-0.0199799
4246.92	-7.01904e-05	0.00501984
4247.4	-0.00043335	0.00706329
4247.86	-0.69751	-0.0199768
4248.32	-0.000372314	0.00501801
4248.8	-0.000271606	0.00705719
4249.26	-0.698578	-0.0199707
4249.72	0.000418091	0.0050119
4250.2	-0.000448608	0.00706177
4250.66	-0.698456	-0.0199707
4251.12	0.000762939	0.00501495
4251.6	0.000558472	0.00705658
4252.06	-0.698059	-0.0199707
4252.52	0.000564575	0.00501343
4253	-0.000344849	0.00706299
4253.46	-0.6987	-0.0199738
4253.92	0.000714111	0.00501312
4254.4	-5.49316e-05	0.00705566
4254.86	-0.698853	-0.0199677
4255.32	0.00071106	0.00501648
4255.8	9.15527e-06	0.0070575
4256.26	-0.697571	-0.0199738
4256.72	0.000494385	0.00501831
4257.2	-0.000100708	0.00705933
4257.66	-0.698639	-0.0199677
4258.12	-0.000265503	0.00501984
4258.6	-0.000582886	0.00706024
4259.06	-0.698669	-0.0199585
4259.52	0.000756836	0.00501465
4260	0.000241089	0.007052
4260.46	-0.697815	-0.0199707
4260.92	0.000714111	0.00501709
4261.4	-0.000128174	0.00705963
4261.86	-0.698334	-0.0199677
4262.32	0.000256348	0.00502075
4262.8	-2.13623e-05	0.00705566
4263.26	-0.69751	-0.0199585
4263.72	-0.000302124	0.00502228
4264.2	0.000177002	0.00705475
4264.66	-0.698761	-0.0199554
4265.12	-0.000396729	0.00502502
4265.6	0.000534058	0.00705475
4266.06	-0.697754	-0.0199615
4266.52	-0.000402832	0.00502319
4267	0.000363159	0.00705139
4267.46	-0.698395	-0.0199646
4267.92	0.000579834	0.00502045
4268.4	-0.000271606	0.00706085
4268.86	-0.698517	-0.0199615
4269.32	0.000408936	0.0050174
4269.8	0	0.00705688
4270.26	-0.698456	-0.0199524
4270.72	-0.000280762	0.00502808
4271.2	0.000604248	0.00704987
4271.66	-0.697906	-0.0199524
4272.12	0.000765991	0.00501801
4272.6	-0.000137329	0.00705933
4273.06	-0.697662	-0.0199707
4273.52	0.000820923	0.00502014
4274	0.000714111	0.00704865
4274.46	-0.697937	-0.0199615
4274.92	-6.71387e-05	0.00502686
4275.4	-0.000338745	0.00705444
4275.86	-0.697601	-0.0199554
4276.32	0.000253296	0.0050238
4276.8	0.00071106	0.00704559
4277.26	-0.698303	-0.0199554
4277.72	-0.000152588	0.00502777
4278.2	0.000418091	0.00704956
4278.66	-0.698395	-0.0199585
4279.12	0.000115967	0.00502686
4279.6	0.000454712	0.00705109
4280.06	-0.698761	-0.0199493
4280.52	-0.000396729	0.00502441
4281	0.000836182	0.00704865
4281.46	-0.697998	-0.0199463
4281.92	-0.000457764	0.00502991
4282.4	0.000717163	0.00704803
4282.86	-0.697906	-0.0199463
4283.32	-0.000384521	0.00502869
4283.8	0.000402832	0.00704926
4284.26	-0.69751	-0.0199493
4284.72	0.000704956	0.00502136
4285.2	0.000424194	0.00704559
4285.66	-0.698303	-0.0199402
4286.12	-0.000415039	0.00502777
4286.6	-0.00027771	0.00705048
4287.06	-0.697723	-0.0199493
4287.52	0.000463867	0.00502167
4288	-0.000595093	0.007052
4288.46	-0.698303	-0.0199432
4288.92	-0.000186157	0.00503082
4289.4	4.57764e-05	0.00704895
4289.86	-0.697998	-0.0199463
4290.32	0.000442505	0.00502167
4290.8	0.0006073	0.00704315
4291.26	-0.697998	-0.0199524
4291.72	-0.000125122	0.00502716
4292.2	-0.000506592	0.00705261
4292.66	-0.698395	-0.0199432
4293.12	0.00072937	0.00502228
4293.6	0.000592041	0.00704163
4294.06	-0.697601	-0.0199463
4294.52	2.44141e-05	0.00503174
4295	0.000152588	0.00704956
4295.46	-0.698792	-0.0199371
4295.92	0.000100708	0.00502411
4296.4	-0.000387573	0.00704773
4296.86	-0.697571	-0.0199341
4297.32	0.000756836	0.00502502
4297.8	0.00065918	0.00704254
4298.26	-0.697571	-0.0199371
4298.72	0.00032959	0.0050235
4299.2	0.000592041	0.0070401
4299.66	-0.698456	-0.019931
4300.12	0.000552368	0.00502319
4300.6	-0.000112915	0.00705017
4301.06	-0.698059	-0.019931
4301.52	0.000653076	0.00502533
4302	-0.000546265	0.00704651
4302.46	-0.69812	-0.0199432
4302.92	0.000750732	0.00502533
4303.4	-0.000299072	0.00705475
4303.86	-0.698822	-0.0199493
4304.32	0.000662231	0.00502869
4304.8	0.000143433	0.00704803
4305.26	-0.697723	-0.0199646
4305.72	0.000299072	0.00502899
4306.2	-0.000213623	0.0070517
4306.66	-0.698669	-0.0199432
4307.12	-0.000338745	0.00503632
4307.6	0.000543213	0.00704803
4308.06	-0.6987	-0.0199463
4308.52	0.000326538	0.00503204
4309	0.000656128	0.00704529
4309.46	-0.698517	-0.0199432
4309.92	-0.000515747	0.00503601
4310.4	0.000418091	0.0070462
4310.86	-0.69873	-0.0199524
4311.32	-0.000457764	0.00503632
4311.8	-0.000494385	0.0070636
4312.26	-0.697815	-0.0199554
4312.72	-0.000308228	0.00503693
4313.2	-9.76562e-05	0.00705383
4313.66	-0.697906	-0.0199646
4314.12	-0.000262451	0.00503479
4314.6	0.00071106	0.00704651
4315.06	-0.697662	-0.0199646
4315.52	0.000714111	0.00502747
4316	-0.000482178	0.0070517
4316.46	-0.698395	-0.0199585
4316.92	-0.000473022	0.00503387
4317.4	-0.000500488	0.00705231
4317.86	-0.697815	-0.0199585
4318.32	0.000540161	0.00503326
4318.8	0.000552368	0.00704376
4319.26	-0.698608	-0.0199463
4319.72	0.000701904	0.00502991
4320.2	0.000158691	0.00704712
4320.66	-0.69754	-0.0199554
4321.12	0.000531006	0.00502716
4321.6	-0.000372314	0.00704926
4322.06	-0.698578	-0.0199463
4322.52	6.40869e-05	0.00503296
4323	0.000531006	0.00704346
4323.46	-0.698425	-0.0199432
4323.92	-0.000393677	0.00503479
4324.4	0.000735474	0.0070401
4324.86	-0.697754	-0.0199524
4325.32	-0.000531006	0.00503448
4325.8	-0.000463867	0.00705261
4326.26	-0.698456	-0.0199463
4326.72	-0.000411987	0.00503632
4327.2	-0.00043335	0.00704742
4327.66	-0.69873	-0.0199432
4328.12	-0.000186157	0.00503601
4328.6	-0.000506592	0.00704712
4329.06	-0.698456	-0.0199554
4329.52	0.000512695	0.00502899
4330	-0.000482178	0.0070462
4330.46	-0.698029	-0.0199463
4330.92	0.000775146	0.00502991
4331.4	-0.000421143	0.00704407
4331.86	-0.698486	-0.0199402
4332.32	0.000799561	0.0050293
4332.8	0.000134277	0.0070462
4333.26	-0.697601	-0.0199463
4333.72	-0.000366211	0.00503448
4334.2	0.00050354	0.00703674
4334.66	-0.698669	-0.0199402
4335.12	7.32422e-05	0.00503296
4335.6	-0.000402832	0.00704346
4336.06	-0.697784	-0.0199493
4336.52	0.000582886	0.0050296
4337	0.000405884	0.00704132
4337.46	-0.698639	-0.0199463
4337.92	9.15527e-05	0.00503082
4338.4	3.66211e-05	0.00703918
4338.86	-0.698364	-0.0199402
4339.32	-6.40869e-05	0.00503113
4339.8	-0.00038147	0.0070401
4340.26	-0.697876	-0.0199371
4340.72	0.000808716	0.00502777
4341.2	0.000689697	0.00703552
4341.66	-0.698212	-0.0199402
4342.12	0.000469971	0.00503052
4342.6	0.000384521	0.00703827
4343.06	-0.697998	-0.0199402
4343.52	0.000741577	0.00503021
4344	-0.000262451	0.00704193
4344.46	-0.698639	-0.019931
4344.92	-0.000454712	0.00503876
4345.4	3.66211e-05	0.00703491
4345.86	-0.698883	-0.0199402
4346.32	0.000689697	0.00502747
4346.8	0.000592041	0.00703339
4347.26	-0.69809	-0.0199402
4347.72	-0.000521851	0.00503998
4348.2	0.000454712	0.007034
4348.66	-0.698151	-0.0199371
4349.12	0.000262451	0.00503723
4349.6	0.000494385	0.00703674
4350.06	-0.698792	-0.0199371
4350.52	-0.000442505	0.00503937
4351	-0.000253296	0.00704071
4351.46	-0.697662	-0.0199341
4351.92	-0.000332642	0.00503937
4352.4	-3.05176e-06	0.00703674
4352.86	-0.69873	-0.019931
4353.32	-0.000372314	0.00503784
4353.8	0.000393677	0.00703613
4354.26	-0.698303	-0.0199402
4354.72	-0.000558472	0.00503876
4355.2	-0.00038147	0.00703949
4355.66	-0.697815	-0.0199432
4356.12	0.00072937	0.00503052
4356.6	-0.000286865	0.00703827
4357.06	-0.697601	-0.0199432
4357.52	-0.000296021	0.00503754
4358	-0.000518799	0.00703613
4358.46	-0.69751	-0.0199341
4358.92	0.000622559	0.00503082
4359.4	0.000680542	0.00703064
4359.86	-0.698792	-0.0199249
4360.32	0.000192261	0.0050354
4360.8	-0.000146484	0.00703735
4361.26	-0.697723	-0.0199371
4361.72	-0.000482178	0.00503448
4362.2	0.000408936	0.00702545
4362.66	-0.698761	-0.0199219
4363.12	0.000177002	0.00503174
4363.6	0.000323486	0.00702728
4364.06	-0.698212	-0.0199341
4364.52	0.000744629	0.00503113
4365	0.000683594	0.00702576
4365.46	-0.698181	-0.0199158
4365.92	-2.44141e-05	0.00503693
4366.4	-0.000292969	0.00703369
4366.86	-0.697845	-0.0199341
4367.32	-7.62939e-05	0.00503723
4367.8	-0.000241089	0.00703247
4368.26	-0.698273	-0.0199219
4368.72	-0.000411987	0.00504089
4369.2	0.000106812	0.00703308
4369.66	-0.698792	-0.0199188
4370.12	0.000537109	0.00503113
4370.6	0.000701904	0.00702271
4371.06	-0.698242	-0.019928
4371.52	0.000570679	0.00503357
4372	0.000704956	0.00702332
4372.46	-0.69809	-0.0199249
4372.92	0.000723267	0.00502991
4373.4	0.000390625	0.00702209
4373.86	-0.698456	-0.0199127
4374.32	5.79834e-05	0.00503326
4374.8	0.000357056	0.00702271
4375.26	-0.697693	-0.0199219
4375.72	0.000238037	0.00503479
4376.2	0.000646973	0.00702301
4376.66	-0.698273	-0.0199158
4377.12	0.000796509	0.00502991
4377.6	0.000283813	0.00701874
4378.06	-0.698761	-0.0199066
4378.52	0.000473022	0.00503204
4379	0.000509644	0.0070166
4379.46	-0.697784	-0.0199097
4379.92	0.000662231	0.00503235
4380.4	0.00065918	0.00701721
4380.86	-0.698486	-0.0199158
4381.32	0.000473022	0.00503479
4381.8	-4.27246e-05	0.00702209
4382.26	-0.698608	-0.0199097
4382.72	0.000274658	0.0050351
4383.2	-0.000140381	0.00701691
4383.66	-0.698425	-0.0199097
4384.12	-0.000308228	0.00503113
4384.6	0.000683594	0.00701294
4385.06	-0.698761	-0.0198975
4385.52	-0.000256348	0.00503387
4386	0.000567627	0.00701172
4386.46	-0.698669	-0.0198975
4386.92	-7.32422e-05	0.00503326
4387.4	-0.000164795	0.00701843
4387.86	-0.698059	-0.0198853
4388.32	-0.000195313	0.00503265
4388.8	-0.000457764	0.00701782
4389.26	-0.697632	-0.0199036
4389.72	-0.000430298	0.00503845
4390.2	0.000628662	0.00701202
4390.66	-0.697968	-0.0198975
4391.12	0.000839233	0.0050293
4391.6	0.000436401	0.00701416
4392.06	-0.69873	-0.0198944
4392.52	3.35693e-05	0.00503021
4393	0.000704956	0.00700867
4393.46	-0.698822	-0.0198944
4393.92	0.000299072	0.0050296
4394.4	0.000549316	0.00700897
4394.86	-0.698792	-0.0198914
4395.32	0.000247192	0.00503479
4395.8	6.40869e-05	0.00701294
4396.26	-0.698303	-0.0198975
4396.72	-0.000247192	0.00503479
4397.2	-0.000250244	0.00700897
4397.66	-0.697662	-0.0198975
4398.12	-0.000411987	0.00503876
4398.6	-0.000363159	0.00701385
4399.06	-0.698761	-0.0198792
4399.52	0.000640869	0.00503082
4400	3.96729e-05	0.00700775
4400.46	-0.698486	-0.0198914
4400.92	-0.000424194	0.00503754
4401.4	0.000531006	0.00700348
4401.86	-0.69751	-0.0198853
4402.32	5.18799e-05	0.00503143
4402.8	0.000662231	0.0070047
4403.26	-0.698334	-0.0198914
4403.72	-0.000466919	0.00503723
4404.2	-0.000482178	0.00700897
4404.66	-0.698181	-0.0198883
4405.12	-4.88281e-05	0.00503693
4405.6	0.000726318	0.00700317
4406.06	-0.697601	-0.0198853
4406.52	-0.000469971	0.00503693
4407	0.000561523	0.00700195
4407.46	-0.697754	-0.0198944
4407.92	0.000610352	0.00503204
4408.4	-3.35693e-05	0.00701508
4408.86	-0.697815	-0.0199036
4409.32	-0.000259399	0.00503723
4409.8	0.000222778	0.00701111
4410.26	-0.6987	-0.0198914
4410.72	-0.00022583	0.00503448
4411.2	0.000488281	0.0070047
4411.66	-0.698853	-0.0198883
4412.12	-0.000241089	0.00503845
4412.6	-0.000302124	0.0070105
4413.06	-0.697876	-0.0198883
4413.52	-0.000372314	0.00503845
4414	0.000262451	0.00700836
4414.46	-0.698669	-0.0198792
4414.92	0.000134277	0.00503418
4415.4	0.000695801	0.00700531
4415.86	-0.698608	-0.0198822
4416.32	0.000222778	0.0050354
4416.8	0.0006073	0.00700653
4417.26	-0.698822	-0.0198792
4417.72	-0.000415039	0.00503937
4418.2	-0.000305176	0.0070108
4418.66	-0.698517	-0.0198914
4419.12	0.00085144	0.00503387
4419.6	-0.00010376	0.00700409
4420.06	-0.697845	-0.0198944
4420.52	0.000613403	0.00503357
4421	0.000421143	0.00700745
4421.46	-0.697662	-0.0198883
4421.92	-0.000259399	0.00504059
4422.4	-0.00045166	0.00700867
4422.86	-0.697784	-0.0198914
4423.32	-0.000448608	0.00503998
4423.8	0.000180054	0.007005
4424.26	-0.698761	-0.01987
4424.72	0.000216675	0.00503479
4425.2	0.000720215	0.00700012
4425.62	0.000830078	0.00383789