File: Edgar/20240508/20240508/electrodeposition_pulsed_potential_20240508_B/data/pulses_3000_to_4000.txt
Time (s)	WE(1).Potential (V)	WE(1).Current (A)
4156.24	-0.696411	-0.0232849
4157.12	0.579987	-2.92969e-06
4158.02	0.580841	-1.37329e-06
4158.88	-0.697662	-0.0163757
4159.76	0.579895	-4.11987e-06
4160.66	0.580078	1.92261e-06
4161.54	0.00147705	0.00868225
4162.4	0.580292	-6.43921e-06
4163.3	0.579926	2.41089e-06
4164.18	0.00141296	0.0051535
4165.04	0.579987	-3.14331e-06
4165.94	0.581177	-7.38525e-06
4166.84	0.579926	0.0167908
4167.68	0.579987	-3.72314e-06
4168.58	0.580017	7.01904e-07
4169.48	0.580261	0.00280762
4170.32	0.580048	-4.02832e-06
4171.22	0.580658	-5.49316e-06
4172.12	0.581177	0.000363129
4172.96	0.581238	-1.22986e-05
4173.86	0.58078	-6.98853e-06
4174.76	0.581055	0.000108337
4175.6	0.581146	-1.25732e-05
4176.5	0.581085	-9.21631e-06
4177.4	0.580719	4.35181e-05
4178.24	0.581055	-1.15051e-05
4179.14	0.58017	-2.50244e-06
4180.04	0.580627	1.74561e-05
4180.88	0.580017	-3.72314e-06
4181.78	0.580078	-2.10571e-06
4182.68	0.580536	6.43921e-06
4183.54	-0.697479	-0.0231995
4184.42	0.580292	-5.46265e-06
4185.32	0.579956	5.95093e-06
4186.18	-0.697357	-0.0163757
4187.06	0.581024	-9.21631e-06
4187.96	0.581177	-3.72314e-06
4188.84	0.000424194	0.00872498
4189.7	0.581085	-1.16577e-05
4190.6	0.581055	-4.60815e-06
4191.48	0.00169678	0.00518982
4192.34	0.580627	-8.75854e-06
4193.24	0.580383	-2.19727e-06
4194.14	0.580139	0.0168304
4194.98	0.581055	-1.07422e-05
4195.88	0.580322	-1.06812e-06
4196.78	0.580109	0.00292389
4197.62	0.580078	-3.9978e-06
4198.52	0.580322	-1.86157e-06
4199.42	0.580994	0.000373779
4200.26	0.580109	-5.24902e-06
4201.16	0.580475	-3.23486e-06
4202.06	0.581085	0.000109955
4202.9	0.580078	-3.54004e-06
4203.8	0.580536	-5.0354e-06
4204.7	0.580292	4.64478e-05
4205.54	0.58075	-8.42285e-06
4206.44	0.580109	-2.28882e-06
4207.34	0.580963	1.58691e-05
4208.18	0.580811	-9.73511e-06
4209.08	0.580078	-2.10571e-06
4209.98	0.581024	4.57764e-06
4210.84	-0.696411	-0.0232117
4211.72	0.580292	-4.18091e-06
4212.62	0.580231	4.91333e-06
4213.48	-0.697815	-0.0163818
4214.36	0.581146	-9.09424e-06
4215.26	0.580414	1.80054e-06
4216.14	0.00101624	0.00870361
4217	0.581055	-1.01624e-05
4217.9	0.580261	3.96729e-07
4218.78	0.000952148	0.00519104
4219.64	0.580292	-5.95093e-06
4220.54	0.580719	-2.56348e-06
4221.44	0.579285	0.0168671
4222.28	0.580688	-9.0332e-06
4223.18	0.581085	-8.05664e-06
4224.08	0.580963	0.00304382
4224.92	0.580322	-6.62231e-06
4225.82	0.580444	-3.23486e-06
4226.72	0.580688	0.000383881
4227.56	0.581055	-1.07117e-05
4228.46	0.580994	-7.35474e-06
4229.36	0.580902	0.000115173
4230.2	0.580902	-9.06372e-06
4231.1	0.580933	-7.14111e-06
4232	0.580048	4.82788e-05
4232.84	0.580627	-6.86646e-06
4233.74	0.580505	-5.40161e-06
4234.64	0.580383	2.12097e-05
4235.48	0.58017	-4.79126e-06
4236.38	0.58078	-7.32422e-06
4237.28	0.580902	5.82886e-06
4238.14	-0.69751	-0.0232208
4239.02	0.580566	-6.2561e-06
4239.92	0.580383	4.30298e-06
4240.78	-0.69693	-0.0164124
4241.66	0.58017	-3.2959e-06
4242.56	0.580078	2.71606e-06
4243.44	0.000527954	0.00869751
4244.3	0.58017	-3.54004e-06
4245.2	0.580627	-2.53296e-06
4246.08	0.000830078	0.00519287
4246.94	0.581116	-1.05591e-05
4247.84	0.580688	-4.42505e-06
4248.74	0.579285	0.0168793
4249.58	0.580902	-1.15356e-05
4250.48	0.58017	-1.34277e-06
4251.38	0.581085	0.00311798
4252.22	0.580963	-8.3313e-06
4253.12	0.580719	-4.11987e-06
4254.02	0.580383	0.000393341
4254.86	0.581085	-1.11694e-05
4255.76	0.581085	-7.41577e-06
4256.66	0.580811	0.000118317
4257.5	0.580139	-5.85937e-06
4258.4	0.580719	-5.31006e-06
4259.3	0.581055	4.18701e-05
4260.14	0.58017	-5.06592e-06
4261.04	0.581177	-1.05286e-05
4261.94	0.580017	2.34375e-05
4262.78	0.58078	-8.88062e-06
4263.68	0.580872	-6.92749e-06
4264.58	0.581116	5.61523e-06
4265.44	-0.697479	-0.0232391
4266.32	0.580048	-3.35693e-06
4267.22	0.580902	1.58691e-06
4268.08	-0.697754	-0.0164368
4268.96	0.580841	-9.58252e-06
4269.86	0.580139	2.28882e-06
4270.74	0.00158997	0.0086792
4271.6	0.579987	-3.02124e-06
4272.5	0.580231	2.13623e-07
4273.38	0.000726318	0.00518768
4274.24	0.580994	-9.91821e-06
4275.14	0.580963	-5.31006e-06
4276.04	0.579987	0.0168854
4276.88	0.580872	-8.66699e-06
4277.78	0.581055	-6.2561e-06
4278.68	0.580658	0.00321167
4279.52	0.580109	-4.60815e-06
4280.42	0.580017	-8.8501e-07
4281.32	0.580994	0.000397705
4282.16	0.581024	-1.0498e-05
4283.06	0.580688	-7.56836e-06
4283.96	0.580048	0.000127197
4284.8	0.581024	-1.16272e-05
4285.7	0.580719	-5.76782e-06
4286.6	0.580444	4.81262e-05
4287.44	0.5802	-4.48608e-06
4288.34	0.580688	-7.20215e-06
4289.24	0.581177	1.57471e-05
4290.08	0.581207	-1.24512e-05
4290.98	0.580414	-4.24194e-06
4291.88	0.5802	1.09558e-05
4292.74	-0.697418	-0.0232483
4293.62	0.580078	-2.92969e-06
4294.52	0.580017	6.34766e-06
4295.38	-0.697723	-0.0164642
4296.26	0.579956	-3.05176e-06
4297.16	0.581177	-5.15747e-06
4298.04	0.00160217	0.0086731
4298.9	0.581177	-1.22375e-05
4299.8	0.580292	-1.52588e-07
4300.68	0.00171509	0.00518036
4301.54	0.579895	-2.99072e-06
4302.44	0.580292	-2.28882e-06
4303.34	0.580322	0.0169037
4304.18	0.581024	-1.06201e-05
4305.08	0.580841	-6.98853e-06
4305.98	0.580688	0.0032959
4306.82	0.580475	-7.75146e-06
4307.72	0.580444	-3.84521e-06
4308.62	0.580048	0.000412598
4309.46	0.581024	-1.0498e-05
4310.36	0.580872	-6.71387e-06
4311.26	0.580902	0.000126068
4312.1	0.580811	-7.72095e-06
4313	0.580078	-2.16675e-06
4313.9	0.580383	4.95911e-05
4314.74	0.581177	-1.08948e-05
4315.64	0.580383	-4.85229e-06
4316.54	0.580414	2.24304e-05
4317.38	0.580444	-9.18579e-06
4318.28	0.581146	-1.1322e-05
4319.18	0.580048	1.38245e-05
4320.04	-0.697266	-0.0232727
4320.92	0.581238	-1.18103e-05
4321.82	0.581055	4.27246e-07
4322.68	-0.697021	-0.0164764
4323.56	0.580536	-9.42993e-06
4324.46	0.581238	-4.57764e-06
4325.34	0.000582886	0.00864563
4326.2	0.58136	-1.16882e-05
4327.1	0.579895	2.89917e-06
4327.98	0.0010437	0.005177
4328.84	0.579956	-4.82178e-06
4329.74	0.579773	2.99072e-06
4330.64	0.579895	0.0169159
4331.48	0.580841	-1.15967e-05
4332.38	0.579834	2.0752e-06
4333.28	0.580658	0.003367
4334.12	0.581177	-1.37939e-05
4335.02	0.580719	-6.01196e-06
4335.92	0.580902	0.000412964
4336.76	0.579803	-3.38745e-06
4337.66	0.579926	2.86865e-06
4338.56	0.581055	0.000126312
4339.4	0.58139	-1.42517e-05
4340.3	0.581268	-9.8877e-06
4341.2	0.581177	4.64478e-05
4342.04	0.58075	-7.75146e-06
4342.94	0.581024	-6.28662e-06
4343.84	0.581268	1.86157e-05
4344.68	0.580811	-1.33667e-05
4345.58	0.581299	-9.12476e-06
4346.48	0.580963	9.12476e-06
4347.34	-0.697632	-0.0232758
4348.22	0.580109	-1.49536e-06
4349.12	0.58075	4.60815e-06
4349.98	-0.697357	-0.0165192
4350.86	0.579865	-6.10352e-07
4351.76	0.580383	3.35693e-07
4352.64	0.000689697	0.00863647
4353.5	0.58017	-1.83105e-06
4354.4	0.580048	4.54712e-06
4355.28	0.00145264	0.00516449
4356.14	0.580658	-6.68335e-06
4357.04	0.581238	-7.99561e-06
4357.94	0.578979	0.0169403
4358.78	0.580933	-9.61304e-06
4359.68	0.58139	-9.21631e-06
4360.58	0.580383	0.00347565
4361.42	0.580566	-7.01904e-06
4362.32	0.581146	-9.73511e-06
4363.22	0.580963	0.000420837
4364.06	0.579895	-3.35693e-06
4364.96	0.580261	-4.30298e-06
4365.86	0.579895	0.000138062
4366.7	0.580017	-4.88281e-06
4367.6	0.580292	-2.01416e-06
4368.5	0.579926	5.56641e-05
4369.34	0.580292	-5.79834e-06
4370.24	0.580414	-3.20435e-06
4371.14	0.579987	2.58484e-05
4371.98	0.580719	-8.39233e-06
4372.88	0.580048	-2.01416e-06
4373.78	0.580017	1.5564e-05
4374.64	-0.697357	-0.0233063
4375.52	0.580017	-2.0752e-06
4376.42	0.580353	2.80762e-06
4377.28	-0.697723	-0.0165466
4378.16	0.580627	-7.93457e-06
4379.06	0.580475	1.86157e-06
4379.94	0.00118713	0.00860901
4380.8	0.580597	-8.75854e-06
4381.7	0.580048	3.66211e-06
4382.58	0.00167847	0.00516785
4383.44	0.580597	-7.84302e-06
4384.34	0.58017	1.2207e-06
4385.24	0.580261	0.0169586
4386.08	0.580261	-3.69263e-06
4386.98	0.580902	-6.5918e-06
4387.88	0.579956	0.00357239
4388.72	0.580078	-3.90625e-06
4389.62	0.580078	2.74658e-07
4390.52	0.580505	0.00043573
4391.36	0.580933	-9.79614e-06
4392.26	0.580139	-1.83105e-06
4393.16	0.580811	0.000134674
4394	0.580231	-4.36401e-06
4394.9	0.580566	-5.09644e-06
4395.8	0.581177	4.87671e-05
4396.64	0.581116	-1.15356e-05
4397.54	0.581268	-9.73511e-06
4398.44	0.581024	2.09656e-05
4399.28	0.580383	-4.94385e-06
4400.18	0.581177	-1.0376e-05
4401.08	0.58078	8.11768e-06
4401.94	-0.69635	-0.0233185
4402.82	0.580566	-7.04956e-06
4403.72	0.580383	6.50024e-06
4404.58	-0.697998	-0.0165649
4405.46	0.580292	-5.18799e-06
4406.36	0.580353	4.18091e-06
4407.24	0.000958252	0.00859375
4408.1	0.580261	-4.85229e-06
4409	0.580719	-1.49536e-06
4409.88	0.000787354	0.00517181
4410.74	0.580109	-3.50952e-06
4411.64	0.580536	-3.2959e-06
4412.54	0.580292	0.0169708
4413.38	0.580231	-5.00488e-06
4414.28	0.580078	-4.88281e-07
4415.18	0.5802	0.00365845
4416.02	0.580597	-7.56836e-06
4416.92	0.580688	-3.26538e-06
4417.82	0.580994	0.000438171
4418.66	0.580902	-9.3689e-06
4419.56	0.580872	-6.2561e-06
4420.46	0.580597	0.000139282
4421.3	0.581146	-1.23901e-05
4422.2	0.581055	-8.88062e-06
4423.1	0.580963	5.23071e-05
4423.94	0.580078	-4.30298e-06
4424.84	0.580505	-5.67627e-06
4425.74	0.581024	2.09656e-05
4426.58	0.580017	-3.69263e-06
4427.48	0.580627	-5.70679e-06
4428.38	0.580902	8.45337e-06
4429.24	-0.69751	-0.0233246
4430.12	0.580414	-3.84521e-06
4431.02	0.581024	2.01416e-06
4431.88	-0.697723	-0.0165802
4432.76	0.580292	-5.5542e-06
4433.66	0.58017	3.9978e-06
4434.54	0.000396729	0.00857849
4435.4	0.580414	-5.24902e-06
4436.3	0.58078	-3.23486e-06
4437.18	0.00169983	0.00516022
4438.04	0.580872	-9.21631e-06
4438.94	0.580963	-5.98145e-06
4439.84	0.580109	0.0169891
4440.68	0.580811	-5.76782e-06
4441.58	0.580902	-5.31006e-06
4442.48	0.581207	0.00371735
4443.32	0.580841	-9.67407e-06
4444.22	0.579926	1.2207e-07
4445.12	0.580933	0.000447693
4445.96	0.580292	-6.04248e-06
4446.86	0.579956	1.83105e-07
4447.76	0.580231	0.000144348
4448.6	0.58075	-1.06812e-05
4449.5	0.581055	-8.60596e-06
4450.4	0.580292	5.78003e-05
4451.24	0.580933	-9.15527e-06
4452.14	0.581055	-9.67407e-06
4453.04	0.579987	2.95715e-05
4453.88	0.580658	-1.07117e-05
4454.78	0.581177	-1.10779e-05
4455.68	0.580017	1.54114e-05
4456.54	-0.696533	-0.0233276
4457.42	0.581116	-1.06506e-05
4458.32	0.580383	5.46265e-06
4459.18	-0.697754	-0.0166016
4460.06	0.580811	-6.71387e-06
4460.96	0.580566	1.52588e-06
4461.84	0.000759888	0.00856018
4462.7	0.5802	-3.35693e-06
4463.6	0.58078	-4.79126e-06
4464.48	0.00180359	0.00515076
4465.34	0.580597	-5.00488e-06
4466.24	0.579895	3.2959e-06
4467.14	0.579254	0.0170135
4467.98	0.580017	-2.53296e-06
4468.88	0.580811	-4.82178e-06
4469.78	0.581451	0.00382721
4470.62	0.580353	-5.85937e-06
4471.52	0.579956	-9.15527e-07
4472.42	0.579956	0.000461548
4473.26	0.580475	-5.24902e-06
4474.16	0.580231	-1.86157e-06
4475.06	0.58078	0.000143555
4475.9	0.580933	-9.70459e-06
4476.8	0.581207	-9.91821e-06
4477.7	0.581024	5.47791e-05
4478.54	0.580261	-4.79126e-06
4479.44	0.580872	-8.27026e-06
4480.34	0.579987	3.01819e-05
4481.18	0.581177	-1.14746e-05
4482.08	0.580017	-2.71606e-06
4482.98	0.580475	1.22375e-05
4483.84	-0.696747	-0.0233398
4484.72	0.5802	-2.71606e-06
4485.62	0.580688	4.15039e-06
4486.48	-0.697906	-0.0166229
4487.36	0.580109	-3.57056e-06
4488.26	0.580109	3.90625e-06
4489.14	0.00113525	0.00853271
4490	0.5802	-4.11987e-06
4490.9	0.580566	-9.15527e-07
4491.78	0.000869751	0.00514648
4492.64	0.581116	-1.19019e-05
4493.54	0.581146	-7.20215e-06
4494.44	0.580261	0.0170166
4495.28	0.580505	-5.98145e-06
4496.18	0.58017	-5.49316e-07
4497.08	0.580322	0.00394379
4497.92	0.581055	-1.15662e-05
4498.82	0.580048	-5.49316e-07
4499.72	0.580566	0.0004664
4500.56	0.580414	-7.93457e-06
4501.46	0.580872	-6.37817e-06
4502.36	0.580475	0.000148346
4503.2	0.5802	-5.40161e-06
4504.1	0.579987	-6.71387e-07
4505	0.580261	6.20728e-05
4505.84	0.580811	-8.02612e-06
4506.74	0.580719	-7.87354e-06
4507.64	0.58075	2.57568e-05
4508.48	0.579987	-5.70679e-06
4509.38	0.580109	-3.8147e-06
4510.28	0.581146	9.33838e-06
4511.14	-0.697418	-0.0233551
4512.02	0.581116	-1.21155e-05
4512.92	0.579773	1.08643e-05
4513.78	-0.696686	-0.0166534
4514.66	0.581238	-9.82666e-06
4515.56	0.581299	-2.50244e-06
4516.44	0.00128479	0.00852356
4517.3	0.580963	-8.81958e-06
4518.2	0.579987	2.38037e-06
4519.08	0.00140686	0.00513031
4519.94	0.580841	-8.78906e-06
4520.84	0.580048	1.49536e-06
4521.74	0.579742	0.0170258
4522.58	0.580963	-9.09424e-06
4523.48	0.580109	-6.40869e-07
4524.38	0.580872	0.00403381
4525.22	0.580383	-4.76074e-06
4526.12	0.580444	-3.9978e-06
4527.02	0.581207	0.000469452
4527.86	0.581116	-1.2207e-05
4528.76	0.580811	-7.47681e-06
4529.66	0.580078	0.000155426
4530.5	0.581177	-1.19019e-05
4531.4	0.579895	-1.46484e-06
4532.3	0.581238	5.68848e-05
4533.14	0.580597	-8.60596e-06
4534.04	0.580475	-3.90625e-06
4534.94	0.580902	2.64587e-05
4535.78	0.581146	-1.23291e-05
4536.68	0.580719	-5.61523e-06
4537.58	0.580048	1.60217e-05
4538.44	-0.69754	-0.0233826
4539.32	0.5802	-4.42505e-06
4540.22	0.579895	1.04675e-05
4541.08	-0.696808	-0.0166962
4541.96	0.580017	-3.54004e-06
4542.86	0.580048	4.24194e-06
4543.74	0.00135193	0.00849915
4544.6	0.580048	-3.75366e-06
4545.5	0.580017	4.05884e-06
4546.38	0.00128174	0.00512421
4547.24	0.580719	-7.01904e-06
4548.14	0.580475	-6.71387e-07
4549.04	0.580139	0.0170349
4549.88	0.580933	-1.02539e-05
4550.78	0.581024	-6.53076e-06
4551.68	0.580017	0.00412994
4552.52	0.580353	-6.86646e-06
4553.42	0.580688	-3.9978e-06
4554.32	0.580505	0.000481812
4555.16	0.580139	-5.43213e-06
4556.06	0.579895	2.44141e-07
4556.96	0.580688	0.000153687
4557.8	0.581238	-1.33972e-05
4558.7	0.580139	-2.31934e-06
4559.6	0.580292	6.40869e-05
4560.44	0.581207	-1.14746e-05
4561.34	0.58078	-8.63647e-06
4562.24	0.580109	3.00598e-05
4563.08	0.579773	-2.74658e-06
4563.98	0.579834	-1.83105e-06
4564.88	0.579895	1.89514e-05
4565.74	-0.697205	-0.0233734
4566.62	0.580872	-6.16455e-06
4567.52	0.580078	1.0437e-05
4568.38	-0.698029	-0.0166901
4569.26	0.580353	-2.2583e-06
4570.16	0.580322	4.48608e-06
4571.04	0.000320435	0.00848694
4571.9	0.581207	-1.09558e-05
4572.8	0.580109	-6.71387e-07
4573.68	0.000668335	0.00512421
4574.54	0.579956	-1.2207e-06
4575.44	0.579773	2.80762e-06
4576.34	0.579193	0.017038
4577.18	0.580688	-7.90405e-06
4578.08	0.579865	3.66211e-07
4578.98	0.579865	0.00420197
4579.82	0.579956	-2.44141e-06
4580.72	0.579895	1.15967e-06
4581.62	0.580139	0.000491394
4582.46	0.580811	-9.06372e-06
4583.36	0.581146	-1.01013e-05
4584.26	0.580261	0.000161285
4585.1	0.581085	-1.10474e-05
4586	0.581085	-9.70459e-06
4586.9	0.579895	6.8573e-05
4587.74	0.580688	-6.43921e-06
4588.64	0.580383	-5.09644e-06
4589.54	0.581116	2.47192e-05
4590.38	0.580933	-9.30786e-06
4591.28	0.580048	-2.83813e-06
4592.18	0.580658	1.19019e-05
4593.04	-0.696899	-0.0233795
4593.92	0.580597	-8.36182e-06
4594.82	0.580994	3.20435e-06
4595.68	-0.697723	-0.0167023
4596.56	0.580963	-1.06812e-05
4597.46	0.580933	-2.86865e-06
4598.34	0.00132446	0.00846863
4599.2	0.580139	-3.2959e-06
4600.1	0.581177	-6.46973e-06
4600.98	0.00108032	0.00510498
4601.84	0.581146	-1.09558e-05
4602.74	0.580475	-2.31934e-06
4603.64	0.579163	0.0170563
4604.48	0.581177	-1.14136e-05
4605.38	0.580841	-4.91333e-06
4606.28	0.581238	0.00424622
4607.12	0.581116	-1.14746e-05
4608.02	0.5802	-1.31226e-06
4608.92	0.579956	0.000501404
4609.76	0.580566	-7.99561e-06
4610.66	0.581085	-8.23975e-06
4611.56	0.579895	0.000166992
4612.4	0.581177	-1.12915e-05
4613.3	0.580261	-4.08936e-06
4614.2	0.580109	6.96411e-05
4615.04	0.579926	-1.67847e-06
4615.94	0.580505	-4.85229e-06
4616.84	0.58075	2.84119e-05
4617.68	0.580841	-1.17798e-05
4618.58	0.58078	-9.79614e-06
4619.48	0.580017	1.84021e-05
4620.34	-0.697052	-0.0233765
4621.22	0.5802	-1.40381e-06
4622.12	0.580872	5.21851e-06
4622.98	-0.697906	-0.0167236
4623.86	0.580902	-1.14136e-05
4624.76	0.581085	-3.41797e-06
4625.64	0.000921631	0.00845947
4626.5	0.580627	-9.94873e-06
4627.4	0.581329	-7.01904e-06
4628.28	0.00100098	0.00510529
4629.14	0.580597	-8.69751e-06
4630.04	0.579987	4.57764e-07
4630.94	0.580383	0.0170563
4631.78	0.580505	-8.54492e-06
4632.68	0.581055	-7.50732e-06
4633.58	0.580139	0.00430389
4634.42	0.580078	-4.60815e-06
4635.32	0.580933	-5.98145e-06
4636.22	0.579926	0.000508423
4637.06	0.579926	-3.66211e-06
4637.96	0.580688	-5.34058e-06
4638.86	0.580963	0.000161346
4639.7	0.581055	-1.12915e-05
4640.6	0.580811	-6.92749e-06
4641.5	0.580231	6.89697e-05
4642.34	0.5802	-4.79126e-06
4643.24	0.580383	-3.35693e-06
4644.14	0.580811	3.01514e-05
4644.98	0.580963	-1.01318e-05
4645.88	0.580383	-4.21143e-06
4646.78	0.58078	1.28479e-05
4647.64	-0.696594	-0.0233795
4648.52	0.580475	-4.82178e-06
4649.42	0.580627	6.37817e-06
4650.28	-0.696838	-0.0167358
4651.16	0.581055	-9.79614e-06
4652.06	0.580017	5.46265e-06
4652.94	0.000653076	0.00844116
4653.8	0.580963	-9.67407e-06
4654.7	0.580933	-2.92969e-06
4655.58	0.00102844	0.00509583
4656.44	0.580841	-9.15527e-06
4657.34	0.580963	-4.39453e-06
4658.24	0.580231	0.0170746
4659.08	0.580658	-9.91821e-06
4659.98	0.580902	-5.92041e-06
4660.88	0.581085	0.00434021
4661.72	0.580261	-7.93457e-06
4662.62	0.581238	-7.62939e-06
4663.52	0.579895	0.000516052
4664.36	0.581299	-1.28784e-05
4665.26	0.581238	-1.06812e-05
4666.16	0.580811	0.000163605
4667	0.579956	-3.08228e-06
4667.9	0.580017	-3.20435e-06
4668.8	0.580353	7.15637e-05
4669.64	0.581146	-1.23901e-05
4670.54	0.579956	-1.15967e-06
4671.44	0.580872	3.0426e-05
4672.28	0.580383	-6.04248e-06
4673.18	0.58075	-9.12476e-06
4674.08	0.580963	1.35193e-05
4674.94	-0.696472	-0.0234009
4675.82	0.580231	-4.02832e-06
4676.72	0.581116	3.41797e-06
4677.58	-0.697449	-0.016748
4678.46	0.580444	-5.43213e-06
4679.36	0.580627	2.28882e-06
4680.24	0.00116577	0.0084137
4681.1	0.579895	-1.98364e-06
4682	0.580658	-7.01904e-07
4682.88	0.00125122	0.00508972
4683.74	0.580231	-4.21143e-06
4684.64	0.58075	-2.41089e-06
4685.54	0.579987	0.0170776
4686.38	0.581116	-1.10474e-05
4687.28	0.581146	-7.38525e-06
4688.18	0.58078	0.00443909
4689.02	0.580048	-3.14331e-06
4689.92	0.580505	-3.69263e-06
4690.82	0.580902	0.000514526
4691.66	0.580017	-2.83813e-06
4692.56	0.581238	-8.39233e-06
4693.46	0.581116	0.000167297
4694.3	0.580017	-3.8147e-06
4695.2	0.581024	-8.42285e-06
4696.1	0.581146	6.61316e-05
4696.94	0.579987	-3.26538e-06
4697.84	0.579926	-1.77002e-06
4698.74	0.579956	3.66516e-05
4699.58	0.580017	-2.31934e-06
4700.48	0.580292	-2.92969e-06
4701.38	0.581055	1.21155e-05
4702.24	-0.69751	-0.0234009
4703.12	0.579865	-1.77002e-06
4704.02	0.58078	4.88281e-06
4704.88	-0.697113	-0.0167847
4705.76	0.579895	-9.46045e-07
4706.66	0.580872	-1.12915e-06
4707.54	0.000439453	0.00843201
4708.4	0.581146	-1.15051e-05
4709.3	0.58017	-1.25122e-06
4710.18	0.00186157	0.00509766
4711.04	0.579956	-1.49536e-06
4711.94	0.581177	-6.71387e-06
4712.84	0.579102	0.017099
4713.68	0.580719	-7.78198e-06
4714.58	0.58017	-4.27246e-07
4715.48	0.580872	0.00433685
4716.32	0.579926	-1.40381e-06
4717.22	0.580902	-4.42505e-06
4718.12	0.581055	0.000516052
4718.96	0.579926	-3.41797e-06
4719.86	0.580566	-4.3335e-06
4720.76	0.581146	0.000168427
4721.6	0.580048	-2.50244e-06
4722.5	0.580048	-8.54492e-07
4723.4	0.579956	7.45239e-05
4724.24	0.579926	-3.41797e-06
4725.14	0.580444	-5.67627e-06
4726.04	0.580933	2.94495e-05
4726.88	0.581207	-1.3031e-05
4727.78	0.580048	-2.38037e-06
4728.68	0.580902	1.25427e-05
4729.54	-0.696411	-0.0233826
4730.42	0.581177	-1.07422e-05
4731.32	0.580292	8.08716e-06
4732.18	-0.697571	-0.0167633
4733.06	0.580261	-4.88281e-06
4733.96	0.581146	-2.74658e-06
4734.84	0.000527954	0.0084198
4735.7	0.581055	-1.00098e-05
4736.6	0.580658	-1.49536e-06
4737.48	0.000881958	0.00509033
4738.34	0.580811	-8.81958e-06
4739.24	0.579834	2.34985e-06
4740.14	0.580414	0.0171143
4740.98	0.579987	-3.08228e-06
4741.88	0.580109	-4.27246e-07
4742.78	0.581055	0.0044812
4743.62	0.581055	-1.171875E-05
4744.52	0.580292	-2.59399e-06
4745.42	0.580414	0.00052948
4746.26	0.580627	-5.67627e-06
4747.16	0.580872	-5.95093e-06
4748.06	0.581268	0.000171387
4748.9	0.580261	-2.10571e-06
4749.8	0.579773	-3.35693e-07
4750.7	0.580688	7.36389e-05
4751.54	0.580933	-9.8877e-06
4752.44	0.580505	-6.95801e-06
4753.34	0.580933	3.01819e-05
4754.18	0.5802	-5.15747e-06
4755.08	0.581177	-1.01929e-05
4755.98	0.580933	1.51672e-05
4756.84	-0.697144	-0.0233978
4757.72	0.580109	-3.08228e-06
4758.62	0.581146	2.22778e-06
4759.48	-0.697968	-0.0167969
4760.36	0.580719	-6.46973e-06
4761.26	0.580811	1.2207e-07
4762.14	0.00111389	0.00837708
4763	0.580139	-5.06592e-06
4763.9	0.580688	-5.79834e-07
4764.78	0.00134583	0.00507996
4765.64	0.580994	-1.1322e-05
4766.54	0.580017	1.15967e-06
4767.44	0.579407	0.0171387
4768.28	0.580627	-7.87354e-06
4769.18	0.580658	-6.7749e-06
4770.08	0.580566	0.0046524
4770.92	0.580048	-2.80762e-06
4771.82	0.580353	-1.7395e-06
4772.72	0.581024	0.000534363
4773.56	0.581024	-1.18103e-05
4774.46	0.580139	-2.7771e-06
4775.36	0.580048	0.000183441
4776.2	0.580963	-1.01929e-05
4777.1	0.579956	-2.10571e-06
4778	0.580963	7.21436e-05
4778.84	0.580383	-7.62939e-06
4779.74	0.581024	-9.00269e-06
4780.64	0.581024	3.22876e-05
4781.48	0.581055	-1.09253e-05
4782.38	0.581177	-1.09253e-05
4783.28	0.580658	1.7395e-05
4784.14	-0.696289	-0.0234192
4785.02	0.580353	-5.27954e-06
4785.92	0.579987	1.09863e-05
4786.78	-0.698029	-0.0168121
4787.66	0.580261	-4.73022e-06
4788.56	0.581146	-1.31226e-06
4789.44	0.00161438	0.00835876
4790.3	0.580811	-7.2937e-06
4791.2	0.580353	1.58691e-06
4792.08	0.0019989	0.00506866
4792.94	0.58136	-1.24207e-05
4793.84	0.580902	-6.98853e-06
4794.74	0.57962	0.0171387
4795.58	0.580841	-1.11084e-05
4796.48	0.581299	-6.86646e-06
4797.38	0.580383	0.0047757
4798.22	0.580292	-6.22559e-06
4799.12	0.581238	-9.42993e-06
4800.02	0.579987	0.000548401
4800.86	0.581299	-1.34888e-05
4801.76	0.581085	-9.27734e-06
4802.66	0.580353	0.000184631
4803.5	0.579956	-2.96021e-06
4804.4	0.580261	-2.86865e-06
4805.3	0.580109	7.97119e-05
4806.14	0.581268	-1.33667e-05
4807.04	0.580353	-5.95093e-06
4807.94	0.580017	3.94897e-05
4808.78	0.580994	-1.12915e-05
4809.68	0.581146	-1.09253e-05
4810.58	0.581116	1.3916e-05
4811.44	-0.69754	-0.0234131
4812.32	0.581238	-1.12305e-05
4813.22	0.580719	6.34766e-06
4814.08	-0.696899	-0.0168365
4814.96	0.580505	-7.44629e-06
4815.86	0.5802	5.52368e-06
4816.74	0.00144348	0.00835876
4817.6	0.581055	-1.06812e-05
4818.5	0.580597	9.46045e-07
4819.38	0.000671387	0.00507172
4820.24	0.581116	-1.09253e-05
4821.14	0.580536	-1.89209e-06
4822.04	0.579895	0.0171417
4822.88	0.580078	-3.41797e-06
4823.78	0.581177	-7.69043e-06
4824.68	0.580719	0.00480377
4825.52	0.580383	-7.69043e-06
4826.42	0.580658	-6.13403e-06
4827.32	0.580231	0.00055481
4828.16	0.579956	-4.60815e-06
4829.06	0.580231	-3.479e-06
4829.96	0.580383	0.000188019
4830.8	0.581116	-1.27869e-05
4831.7	0.581055	-7.04956e-06
4832.6	0.58075	7.94678e-05
4833.44	0.580322	-6.74438e-06
4834.34	0.580109	-1.49536e-06
4835.24	0.58017	4.11072e-05
4836.08	0.581024	-1.08643e-05
4836.98	0.581207	-1.09863e-05
4837.88	0.581299	1.40076e-05
4838.74	-0.696655	-0.0234161
4839.62	0.580627	-7.56836e-06
4840.52	0.580627	6.95801e-06
4841.38	-0.697144	-0.0168365
4842.26	0.581116	-9.70459e-06
4843.16	0.580017	7.38525e-06
4844.04	0.000790405	0.00834656
4844.9	0.58078	-8.08716e-06
4845.8	0.581085	-2.99072e-06
4846.68	0.00183105	0.00505981
4847.54	0.579956	-3.11279e-06
4848.44	0.579987	3.78418e-06
4849.34	0.579102	0.0171539
4850.18	0.581207	-1.2085e-05
4851.08	0.581177	-6.83594e-06
4851.98	0.580811	0.004888
4852.82	0.580627	-8.27026e-06
4853.72	0.580017	-3.05176e-07
4854.62	0.581146	0.000556946
4855.46	0.579987	-2.99072e-06
4856.36	0.579926	3.66211e-07
4857.26	0.579926	0.00019458
4858.1	0.581177	-1.25427e-05
4859	0.580933	-7.96509e-06
4859.9	0.580231	8.09021e-05
4860.74	0.580322	-4.69971e-06
4861.64	0.581207	-9.42993e-06
4862.54	0.579895	4.19312e-05
4863.38	0.580078	-5.06592e-06
4864.28	0.580292	-3.87573e-06
4865.18	0.580505	1.96533e-05
4866.04	-0.697327	-0.0234161
4866.92	0.580414	-4.39453e-06
4867.82	0.581116	4.82178e-06
4868.68	-0.697144	-0.0168701
4869.56	0.579956	-3.96729e-07
4870.46	0.580353	6.74438e-06
4871.34	0.000601196	0.00832214
4872.2	0.581207	-1.09253e-05
4873.1	0.580902	-4.27246e-07
4873.98	0.000717163	0.00505981
4874.84	0.580078	-3.08228e-06
4875.74	0.580383	-2.50244e-06
4876.64	0.579926	0.0171692
4877.48	0.581116	-1.01929e-05
4878.38	0.58017	6.71387e-07
4879.28	0.581268	0.00497101
4880.12	0.580322	-6.40869e-06
4881.02	0.580017	-1.00708e-06
4881.92	0.580688	0.000566406
4882.76	0.580933	-9.52148e-06
4883.66	0.581055	-7.44629e-06
4884.56	0.581116	0.00018869
4885.4	0.580841	-1.07727e-05
4886.3	0.5802	-3.11279e-06
4887.2	0.580109	8.51135e-05
4888.04	0.580566	-8.02612e-06
4888.94	0.580078	-2.01416e-06
4889.84	0.580383	3.82385e-05
4890.68	0.580048	-4.05884e-06
4891.58	0.580627	-5.58472e-06
4892.48	0.580017	2.23694e-05
4893.34	-0.69751	-0.0234314
4894.22	0.579926	-2.44141e-06
4895.12	0.580963	5.92041e-06
4895.98	-0.697754	-0.0168701
4896.86	0.580841	-9.61304e-06
4897.76	0.580322	5.06592e-06
4898.64	0.000454712	0.00830688
4899.5	0.580994	-1.04065e-05
4900.4	0.579987	3.90625e-06
4901.28	0.001171875	0.00506042
4902.14	0.581146	-1.00708e-05
4903.04	0.579956	2.16675e-06
4903.94	0.580353	0.0171722
4904.78	0.580963	-7.96509e-06
4905.68	0.581024	-7.23267e-06
4906.58	0.580444	0.00504639
4907.42	0.580688	-1.0437e-05
4908.32	0.579895	6.10352e-07
4909.22	0.580139	0.000576172
4910.06	0.580963	-1.08337e-05
4910.96	0.580536	-7.14111e-06
4911.86	0.580322	0.000198456
4912.7	0.580505	-6.37817e-06
4913.6	0.579956	1.83105e-07
4914.5	0.579895	8.73718e-05
4915.34	0.580536	-7.26318e-06
4916.24	0.580322	-3.63159e-06
4917.14	0.580627	3.80554e-05
4917.98	0.581085	-1.08032e-05
4918.88	0.580597	-7.01904e-06
4919.78	0.580017	2.33459e-05
4920.64	-0.697632	-0.0234314
4921.52	0.581207	-1.15356e-05
4922.42	0.579926	1.44348e-05
4923.28	-0.698059	-0.0168854
4924.16	0.580963	-9.552e-06
4925.06	0.580353	2.89917e-06
4925.94	0.00065918	0.00830994
4926.8	0.580872	-1.01318e-05
4927.7	0.581207	-4.54712e-06
4928.58	0.00103455	0.0050473
4929.44	0.579865	-1.86157e-06
4930.34	0.579834	2.80762e-06
4931.24	0.579193	0.0171814
4932.08	0.580933	-1.10168e-05
4932.98	0.580872	-4.36401e-06
4933.88	0.580811	0.00510925
4934.72	0.580963	-9.67407e-06
4935.62	0.581177	-8.39233e-06
4936.52	0.579926	0.0005859375
4937.36	0.580658	-8.81958e-06
4938.26	0.580872	-6.34766e-06
4939.16	0.580444	0.000199829
4940	0.580841	-1.02234e-05
4940.9	0.579956	-1.49536e-06
4941.8	0.581177	8.05359e-05
4942.64	0.580292	-7.32422e-06
4943.54	0.580627	-6.95801e-06
4944.44	0.580109	4.26331e-05
4945.28	0.58078	-1.09863e-05
4946.18	0.579803	-1.83105e-06
4947.08	0.579956	2.48413e-05
4947.94	-0.697357	-0.0234406
4948.82	0.581238	-8.66699e-06
4949.72	0.579803	1.49536e-05
4950.58	-0.698029	-0.0169067
4951.46	0.580933	-8.57544e-06
4952.36	0.580658	9.15527e-07
4953.24	0.000323486	0.00827942
4954.1	0.580505	-6.01196e-06
4955	0.581024	-1.52588e-06
4955.88	0.000665283	0.00503571
4956.74	0.580048	-2.68555e-06
4957.64	0.579956	3.50952e-06
4958.54	0.579315	0.0171844
4959.38	0.581177	-1.15967e-05
4960.28	0.580963	-5.95093e-06
4961.18	0.579987	0.00527802
4962.02	0.580444	-6.7749e-06
4962.92	0.580933	-7.50732e-06
4963.82	0.579956	0.000596313
4964.66	0.5802	-4.69971e-06
4965.56	0.580994	-8.57544e-06
4966.46	0.580444	0.000202148
4967.3	0.580048	-5.06592e-06
4968.2	0.579987	-7.93457e-07
4969.1	0.579987	9.1156e-05
4969.94	0.581146	-1.17493e-05
4970.84	0.580322	-4.02832e-06
4971.74	0.580933	3.97034e-05
4972.58	0.580017	-4.21143e-06
4973.48	0.581085	-1.00403e-05
4974.38	0.580292	2.2583e-05
4975.24	-0.697174	-0.0234497
4976.12	0.580048	-2.13623e-06
4977.02	0.580841	8.36182e-06
4977.88	-0.697723	-0.016925
4978.76	0.5802	-5.0354e-06
4979.66	0.579987	7.62939e-06
4980.54	0.0013855	0.00825195
4981.4	0.580933	-9.91821e-06
4982.3	0.580719	-1.2207e-06
4983.18	0.00144958	0.00501434
4984.04	0.581024	-9.79614e-06
4984.94	0.579987	3.63159e-06
4985.84	0.580048	0.0171814
4986.68	0.580811	-1.19019e-05
4987.58	0.580017	1.2207e-06
4988.48	0.580933	0.00536652
4989.32	0.579926	-3.17383e-06
4990.22	0.5802	2.13623e-07
4991.12	0.580811	0.000594177
4991.96	0.580017	-1.70898e-06
4992.86	0.580109	1.83105e-07
4993.76	0.580963	0.000204834
4994.6	0.580933	-9.82666e-06
4995.5	0.579895	-3.05176e-07
4996.4	0.579834	9.30176e-05
4997.24	0.579987	-5.00488e-06
4998.14	0.580536	-5.09644e-06
4999.04	0.580475	4.2572e-05
4999.88	0.580017	-3.72314e-06
5000.78	0.581024	-9.73511e-06
5001.68	0.579987	2.57263e-05
5002.54	-0.696808	-0.0234497
5003.42	0.580139	-2.65503e-06
5004.32	0.580322	1.14136e-05
5005.18	-0.697968	-0.0169373
5006.06	0.580322	-4.05884e-06
5006.96	0.580536	5.58472e-06
5007.84	0.000341797	0.00821838
5008.7	0.580933	-1.01929e-05
5009.6	0.58017	4.63867e-06
5010.48	0.00177917	0.00499725
5011.34	0.580719	-8.08716e-06
5012.24	0.579895	3.20435e-06
5013.14	0.579895	0.0171783
5013.98	0.580475	-5.76782e-06
5014.88	0.581207	-6.83594e-06
5015.78	0.581177	0.00545624
5016.62	0.579987	-3.84521e-06
5017.52	0.581116	-8.20923e-06
5018.42	0.58075	0.000603943
5019.26	0.580627	-8.36182e-06
5020.16	0.58017	-2.62451e-06
5021.06	0.580841	0.000205475
5021.9	0.581024	-1.24817e-05
5022.8	0.580322	-4.88281e-06
5023.7	0.580139	9.29871e-05
5024.54	0.581207	-1.32446e-05
5025.44	0.580536	-8.48389e-06
5026.34	0.579834	4.87976e-05
5027.18	0.58017	-5.40161e-06
5028.08	0.579895	-1.37329e-06
5028.98	0.581238	1.84326e-05
5029.84	-0.696503	-0.0234406
5030.72	0.580994	-8.36182e-06
5031.62	0.580933	8.54492e-06
5032.48	-0.697937	-0.0169525
5033.36	0.580536	-6.65283e-06
5034.26	0.580017	7.93457e-06
5035.14	0.000723267	0.00819397
5036	0.580566	-5.7373e-06
5036.9	0.580597	1.77002e-06
5037.78	0.00154724	0.00498108
5038.64	0.579926	-1.7395e-06
5039.54	0.581177	-5.43213e-06
5040.44	0.579041	0.0171844
5041.28	0.579987	-2.10571e-06
5042.18	0.579926	1.67847e-06
5043.08	0.581085	0.00556091
5043.92	0.581268	-1.18408e-05
5044.82	0.580933	-7.32422e-06
5045.72	0.579803	0.000619202
5046.56	0.581177	-1.24817e-05
5047.46	0.579926	2.44141e-07
5048.36	0.580536	0.000212738
5049.2	0.5802	-5.37109e-06
5050.1	0.581207	-9.39941e-06
5051	0.579926	9.52759e-05
5051.84	0.580963	-1.11389e-05
5052.74	0.580261	-2.92969e-06
5053.64	0.580353	4.32129e-05
5054.48	0.580139	-6.95801e-06
5055.38	0.581268	-1.1261e-05
5056.28	0.580292	2.38342e-05
5057.14	-0.697144	-0.0234436
5058.02	0.580811	-9.39941e-06
5058.92	0.579895	1.5564e-05
5059.78	-0.697937	-0.0169769
5060.66	0.5802	-5.82886e-06
5061.56	0.581329	-7.93457e-07
5062.44	0.00158997	0.00817261
5063.3	0.580078	-2.65503e-06
5064.2	0.581024	-1.49536e-06
5065.08	0.000720215	0.00498199
5065.94	0.580719	-7.75146e-06
5066.84	0.580597	-1.98364e-06
5067.74	0.580353	0.0171906
5068.58	0.579956	-2.22778e-06
5069.48	0.580902	-4.85229e-06
5070.38	0.580994	0.0056665
5071.22	0.580505	-8.08716e-06
5072.12	0.58017	-1.28174e-06
5073.02	0.579926	0.000625916
5073.86	0.581177	-1.16577e-05
5074.76	0.579987	-2.74658e-07
5075.66	0.58075	0.000214233
5076.5	0.581146	-1.29089e-05
5077.4	0.58075	-5.82886e-06
5078.3	0.579987	9.75647e-05
5079.14	0.580322	-6.98853e-06
5080.04	0.581238	-9.73511e-06
5080.94	0.581116	4.04053e-05
5081.78	0.579987	-5.18799e-06
5082.68	0.579956	-1.89209e-06
5083.58	0.580505	2.34985e-05
5084.44	-0.697266	-0.023465
5085.32	0.580872	-7.53784e-06
5086.22	0.580231	1.35498e-05
5087.08	-0.69696	-0.0170105
5087.96	0.580292	-3.8147e-06
5088.86	0.581024	9.15527e-08
5089.74	0.00114746	0.00814819
5090.6	0.579895	-1.83105e-06
5091.5	0.580078	6.40869e-06
5092.38	0.00107727	0.0049707
5093.24	0.581329	-1.171875E-05
5094.14	0.580231	2.16675e-06
5095.04	0.57901	0.0172028
5095.88	0.581207	-1.10474e-05
5096.78	0.579956	2.50244e-06
5097.68	0.580719	0.00576813
5098.52	0.580902	-8.75854e-06
5099.42	0.579926	1.2207e-07
5100.32	0.581055	0.00062561
5101.16	0.581116	-1.11389e-05
5102.06	0.580414	-5.00488e-06
5102.96	0.580933	0.000216827
5103.8	0.580597	-7.1106e-06
5104.7	0.581055	-7.84302e-06
5105.6	0.580505	9.52148e-05
5106.44	0.580475	-5.61523e-06
5107.34	0.581085	-9.64355e-06
5108.24	0.580963	4.27246e-05
5109.08	0.581116	-1.09558e-05
5109.98	0.580933	-1.01929e-05
5110.88	0.580536	2.19727e-05
5111.74	-0.696381	-0.0234894
5112.62	0.579987	-1.98364e-06
5113.52	0.58075	1.15356e-05
5114.38	-0.697845	-0.0170135
5115.26	0.580414	-4.85229e-06
5116.16	0.580872	1.46484e-06
5117.04	0.0014679	0.00814819
5117.9	0.580048	-3.38745e-06
5118.8	0.580048	4.76074e-06
5119.68	0.00133362	0.00496246
5120.54	0.579956	-2.80762e-06
5121.44	0.580505	-1.67847e-06
5122.34	0.579926	0.0172089
5123.18	0.581024	-1.20239e-05
5124.08	0.580566	-1.5564e-06
5124.98	0.580414	0.00584259
5125.82	0.580383	-9.24683e-06
5126.72	0.581024	-7.8125e-06
5127.62	0.580536	0.000635376
5128.46	0.581024	-1.20239e-05
5129.36	0.580444	-4.02832e-06
5130.26	0.580963	0.000221313
5131.1	0.580139	-3.50952e-06
5132	0.580109	-1.70898e-06
5132.9	0.580963	9.32007e-05
5133.74	0.580872	-9.3689e-06
5134.64	0.580261	-3.32642e-06
5135.54	0.580231	4.95605e-05
5136.38	0.580383	-6.40869e-06
5137.28	0.581055	-9.64355e-06
5138.18	0.580963	2.20032e-05
5139.04	-0.697021	-0.0234833
5139.92	0.580566	-6.53076e-06
5140.82	0.581177	7.44629e-06
5141.68	-0.697876	-0.0170227
5142.56	0.579926	-2.83813e-06
5143.46	0.579956	1.00098e-05
5144.34	0.000390625	0.00812988
5145.2	0.581116	-1.15967e-05
5146.1	0.581024	-3.05176e-06
5146.98	0.00135498	0.00495697
5147.84	0.580505	-6.40869e-06
5148.74	0.581146	-4.94385e-06
5149.64	0.579681	0.0172241
5150.48	0.579865	-2.31934e-06
5151.38	0.580994	-6.56128e-06
5152.28	0.580017	0.00588928
5153.12	0.581299	-1.14441e-05
5154.02	0.580109	1.19019e-06
5154.92	0.579712	0.000648804
5155.76	0.580597	-7.32422e-06
5156.66	0.581238	-9.64355e-06
5157.56	0.580353	0.000225342
5158.4	0.580872	-9.42993e-06
5159.3	0.580353	-3.8147e-06
5160.2	0.579834	0.000102753
5161.04	0.581146	-1.24512e-05
5161.94	0.580017	-1.61743e-06
5162.84	0.580383	4.94995e-05
5163.68	0.580719	-1.03149e-05
5164.58	0.580017	-2.38037e-06
5165.48	0.58075	2.50549e-05
5166.34	-0.696564	-0.0234802
5167.22	0.579956	-2.31934e-06
5168.12	0.581207	9.79614e-06
5168.98	-0.697998	-0.0170441
5169.86	0.580811	-8.5144e-06
5170.76	0.579956	1.07727e-05
5171.64	0.00147095	0.00810852
5172.5	0.579987	-2.10571e-06
5173.4	0.579926	6.68335e-06
5174.28	0.00203247	0.00494873
5175.14	0.580872	-9.64355e-06
5176.04	0.580963	-2.56348e-06
5176.94	0.579437	0.0172211
5177.78	0.580017	-4.42505e-06
5178.68	0.58017	-1.19019e-06
5179.58	0.580231	0.00604523
5180.42	0.580048	-3.08228e-06
5181.32	0.580017	9.15527e-07
5182.22	0.580109	0.000657043
5183.06	0.579865	-3.9978e-06
5183.96	0.581207	-6.46973e-06
5184.86	0.580933	0.000224701
5185.7	0.580505	-7.53784e-06
5186.6	0.5802	-3.17383e-06
5187.5	0.580597	0.000101685
5188.34	0.580902	-1.11694e-05
5189.24	0.58017	-1.52588e-06
5190.14	0.581299	4.22363e-05
5190.98	0.581146	-1.23596e-05
5191.88	0.5802	-3.66211e-06
5192.78	0.581299	2.06604e-05
5193.64	-0.697632	-0.0234985
5194.52	0.580048	-2.10571e-06
5195.42	0.58017	1.5686e-05
5196.28	-0.69812	-0.0170654
5197.16	0.580994	-1.04675e-05
5198.06	0.579895	1.11389e-05
5198.94	0.000570679	0.00810547
5199.8	0.581268	-1.10474e-05
5200.7	0.579926	7.78198e-06
5201.58	0.00112305	0.00494141
5202.44	0.58017	-4.05884e-06
5203.34	0.581116	-3.96729e-06
5204.24	0.580383	0.0172302
5205.08	0.581055	-1.0437e-05
5205.98	0.580597	-4.02832e-06
5206.88	0.580048	0.00612152
5207.72	0.579742	-2.38037e-06
5208.62	0.579926	2.04468e-06
5209.52	0.581085	0.000657654
5210.36	0.581055	-1.28784e-05
5211.26	0.581177	-9.67407e-06
5212.16	0.5802	0.000235931
5213	0.579865	-1.7395e-06
5213.9	0.58136	-1.00098e-05
5214.8	0.581299	9.68018e-05
5215.64	0.581085	-1.171875E-05
5216.54	0.580017	-7.93457e-07
5217.44	0.581085	4.48914e-05
5218.28	0.581116	-1.17493e-05
5219.18	0.581024	-9.58252e-06
5220.08	0.581146	2.31018e-05
5220.94	-0.69751	-0.0235229
5221.82	0.580109	-2.99072e-06
5222.72	0.580048	1.62354e-05
5223.58	-0.696686	-0.0170959
5224.46	0.580261	-4.97437e-06
5225.36	0.579926	1.06506e-05
5226.24	0.000561523	0.00808716
5227.1	0.579987	-1.49536e-06
5228	0.580597	1.2207e-06
5228.88	0.00169067	0.00494049
5229.74	0.580139	-3.08228e-06
5230.64	0.581146	-4.3335e-06
5231.54	0.579224	0.0172333
5232.38	0.580505	-6.16455e-06
5233.28	0.581024	-4.5166e-06
5234.18	0.581238	0.00623383
5235.02	0.581238	-1.27869e-05
5235.92	0.580505	-4.79126e-06
5236.82	0.580109	0.000673828
5237.66	0.581177	-1.27563e-05
5238.56	0.581024	-6.10352e-06
5239.46	0.580322	0.000238861
5240.3	0.581177	-1.19019e-05
5241.2	0.580109	-3.96729e-06
5242.1	0.580994	0.000103088
5242.94	0.581207	-1.13831e-05
5243.84	0.581085	-1.02844e-05
5244.74	0.5802	5.42297e-05
5245.58	0.580444	-7.8125e-06
5246.48	0.580292	-3.38745e-06
5247.38	0.580017	2.91443e-05
5248.24	-0.696228	-0.0235229
5249.12	0.581177	-9.765625E-06
5250.02	0.580322	1.38245e-05
5250.88	-0.697479	-0.0170929
5251.76	0.580383	-5.37109e-06
5252.66	0.580322	8.11768e-06
5253.54	0.00136414	0.0080719
5254.4	0.579956	-2.28882e-06
5255.3	0.580658	2.50244e-06
5256.18	0.000793457	0.00493835
5257.04	0.581207	-1.10779e-05
5257.94	0.581116	-4.3335e-06
5258.84	0.580414	0.0172394
5259.68	0.579987	-3.05176e-06
5260.58	0.579926	2.0752e-06
5261.48	0.580292	0.00628723
5262.32	0.579895	-2.34985e-06
5263.22	0.580688	-4.45557e-06
5264.12	0.581055	0.000672607
5264.96	0.580841	-1.20239e-05
5265.86	0.581146	-8.5144e-06
5266.76	0.5802	0.000241608
5267.6	0.580719	-1.10474e-05
5268.5	0.58139	-1.02234e-05
5269.4	0.579834	0.00011145
5270.24	0.580902	-9.21631e-06
5271.14	0.579834	-3.05176e-08
5272.04	0.581085	4.98657e-05
5272.88	0.581299	-1.24512e-05
5273.78	0.580994	-9.15527e-06
5274.68	0.579987	3.05786e-05
5275.54	-0.69751	-0.0235321
5276.42	0.580933	-7.99561e-06
5277.32	0.580414	1.52588e-05
5278.18	-0.697601	-0.0171173
5279.06	0.581207	-1.22681e-05
5279.96	0.58017	8.97217e-06
5280.84	0.000497437	0.00805969
5281.7	0.581177	-1.30615e-05
5282.6	0.581207	-2.38037e-06
5283.48	0.00108337	0.00492706
5284.34	0.580353	-4.88281e-06
5285.24	0.581268	-5.00488e-06
5286.14	0.579041	0.0172607
5286.98	0.580963	-1.20239e-05
5287.88	0.580139	-5.18799e-07
5288.78	0.579895	0.00637207
5289.62	0.581177	-9.42993e-06
5290.52	0.579895	1.28174e-06
5291.42	0.579956	0.000688477
5292.26	0.581055	-1.24817e-05
5293.16	0.581085	-8.72803e-06
5294.06	0.581085	0.000237946
5294.9	0.580505	-9.24683e-06
5295.8	0.579956	-3.32642e-06
5296.7	0.580139	0.000109009
5297.54	0.581268	-1.3092e-05
5298.44	0.5802	-3.72314e-06
5299.34	0.580536	5.24902e-05
5300.18	0.580353	-6.80542e-06
5301.08	0.581146	-1.0376e-05
5301.98	0.580933	2.41089e-05
5302.84	-0.697266	-0.0235535
5303.72	0.579865	-1.43433e-06
5304.62	0.579865	1.9043e-05
5305.48	-0.696686	-0.0171509
5306.36	0.581207	-1.08032e-05
5307.26	0.581055	3.66211e-06
5308.14	0.00148621	0.00802917
5309	0.580933	-9.52148e-06
5309.9	0.580261	2.99072e-06
5310.78	0.00174866	0.00491272
5311.64	0.581024	-1.03149e-05
5312.54	0.580933	-3.05176e-06
5313.44	0.579956	0.0172638
5314.28	0.580872	-1.02844e-05
5315.18	0.580505	-2.41089e-06
5316.08	0.580139	0.00645569
5316.92	0.581055	-1.29395e-05
5317.82	0.581268	-7.44629e-06
5318.72	0.580414	0.000692139
5319.56	0.580383	-8.42285e-06
5320.46	0.580597	-1.98364e-06
5321.36	0.58075	0.000243011
5322.2	0.581207	-1.35193e-05
5323.1	0.581268	-1.01318e-05
5324	0.581299	0.000103821
5324.84	0.580231	-5.24902e-06
5325.74	0.581207	-1.05286e-05
5326.64	0.580994	5.05066e-05
5327.48	0.579926	-2.71606e-06
5328.38	0.580292	-3.38745e-06
5329.28	0.580292	2.97546e-05
5330.14	-0.697571	-0.0235474
5331.02	0.579926	-8.54492e-07
5331.92	0.579865	2.06604e-05
5332.78	-0.697876	-0.0171661
5333.66	0.580902	-9.8877e-06
5334.56	0.580566	7.69043e-06
5335.44	0.00133667	0.00800781
5336.3	0.581116	-8.75854e-06
5337.2	0.580872	1.5564e-06
5338.08	0.00126343	0.00490509
5338.94	0.580933	-7.14111e-06
5339.84	0.580109	1.28174e-06
5340.74	0.579803	0.0172729
5341.58	0.579987	-1.09863e-06
5342.48	0.580994	-2.83813e-06
5343.38	0.580627	0.006539
5344.22	0.581116	-1.05286e-05
5345.12	0.580658	-5.24902e-06
5346.02	0.580902	0.00069519
5346.86	0.580139	-4.66919e-06
5347.76	0.580627	-3.75366e-06
5348.66	0.580597	0.000249817
5349.5	0.580994	-1.07422e-05
5350.4	0.581207	-9.33838e-06
5351.3	0.581146	0.000107239
5352.14	0.580719	-9.46045e-06
5353.04	0.580353	-4.27246e-06
5353.94	0.579895	5.97839e-05
5354.78	0.580444	-5.79834e-06
5355.68	0.580414	-3.41797e-06
5356.58	0.581299	2.47803e-05
5357.44	-0.697327	-0.0235596
5358.32	0.580292	-4.91333e-06
5359.22	0.579834	1.92261e-05
5360.08	-0.696869	-0.0171814
5360.96	0.580017	-1.5564e-06
5361.86	0.581177	1.34277e-06
5362.74	0.0016449	0.00799255
5363.6	0.580048	-5.5542e-06
5364.5	0.580872	-2.04468e-06
5365.38	0.00158997	0.00489319
5366.24	0.580597	-9.15527e-06
5367.14	0.580902	-1.0376e-06
5368.04	0.579102	0.017276
5368.88	0.580261	-5.43213e-06
5369.78	0.581177	-5.21851e-06
5370.68	0.580994	0.006604
5371.52	0.580566	-6.71387e-06
5372.42	0.580292	-9.76562e-07
5373.32	0.580017	0.000710144
5374.16	0.580292	-5.64575e-06
5375.06	0.580292	-1.58691e-06
5375.96	0.580109	0.000256134
5376.8	0.580292	-5.06592e-06
5377.7	0.580048	-1.09863e-06
5378.6	0.580109	0.000114105
5379.44	0.580292	-6.53076e-06
5380.34	0.580475	-4.30298e-06
5381.24	0.580017	5.859375E-05
5382.08	0.580475	-6.80542e-06
5382.98	0.580994	-8.17871e-06
5383.88	0.580048	3.19824e-05
5384.74	-0.697418	-0.0235779
5385.62	0.580444	-5.88989e-06
5386.52	0.580841	1.25427e-05
5387.38	-0.696777	-0.0171967
5388.26	0.580719	-8.45337e-06
5389.16	0.580261	9.765625E-06
5390.04	0.000375366	0.00798645
5390.9	0.581268	-1.13831e-05
5391.8	0.579895	5.98145e-06
5392.68	0.00101013	0.00489075
5393.54	0.580048	-3.14331e-06
5394.44	0.580017	2.83813e-06
5395.34	0.580261	0.0172729
5396.18	0.581207	-1.09253e-05
5397.08	0.581207	-6.43921e-06
5397.98	0.580231	0.00669922
5398.82	0.580109	-3.38745e-06
5399.72	0.580841	-4.54712e-06
5400.62	0.580872	0.00071228
5401.46	0.580292	-4.21143e-06
5402.36	0.580261	-3.54004e-06
5403.26	0.580048	0.00025824
5404.1	0.580811	-8.69751e-06
5405	0.58075	-5.09644e-06
5405.9	0.580872	0.000111694
5406.74	0.580872	-9.61304e-06
5407.64	0.581024	-8.91113e-06
5408.54	0.580261	5.96619e-05
5409.38	0.581116	-8.88062e-06
5410.28	0.580872	-8.20923e-06
5411.18	0.580963	2.83203e-05
5412.04	-0.696716	-0.0235931
5412.92	0.581146	-1.00708e-05
5413.82	0.580292	1.92566e-05
5414.68	-0.697784	-0.017218
5415.56	0.580994	-9.765625E-06
5416.46	0.581085	3.75366e-06
5417.34	0.00145874	0.00797119
5418.2	0.580688	-7.20215e-06
5419.1	0.58017	6.68335e-06
5419.98	0.00179138	0.00487915
5420.84	0.58017	-3.8147e-06
5421.74	0.580994	-2.96021e-06
5422.64	0.579132	0.0172913
5423.48	0.580505	-7.2937e-06
5424.38	0.581055	-5.49316e-06
5425.28	0.580475	0.00675079
5426.12	0.580048	-2.22778e-06
5427.02	0.580658	-5.00488e-06
5427.92	0.580444	0.000722961
5428.76	0.579926	-2.59399e-06
5429.66	0.581207	-9.12476e-06
5430.56	0.580139	0.000261108
5431.4	0.580475	-9.70459e-06
5432.3	0.581238	-9.46045e-06
5433.2	0.580139	0.000120117
5434.04	0.58078	-8.91113e-06
5434.94	0.580811	-7.26318e-06
5435.84	0.579926	6.13403e-05
5436.68	0.581268	-1.34277e-05
5437.58	0.580322	-4.60815e-06
5438.48	0.580078	3.25623e-05
5439.34	-0.696411	-0.0235962
5440.22	0.580658	-7.47681e-06
5441.12	0.580872	1.5686e-05
5441.98	-0.697052	-0.0172424
5442.86	0.58075	-9.49097e-06
5443.76	0.580231	1.09253e-05
5444.64	0.000949097	0.00795288
5445.5	0.580719	-8.3313e-06
5446.4	0.580139	5.58472e-06
5447.28	0.00182495	0.00487183
5448.14	0.581146	-1.09863e-05
5449.04	0.580536	-3.35693e-07
5449.94	0.579132	0.0172974
5450.78	0.581146	-1.04675e-05
5451.68	0.581177	-7.23267e-06
5452.58	0.581055	0.0068399
5453.42	0.580383	-4.02832e-06
5454.32	0.581116	-9.00269e-06
5455.22	0.579956	0.000732422
5456.06	0.58078	-1.09863e-05
5456.2	0.581207	-1.2085e-05