File: Edgar/20240508/20240508/electrodeposition_pulsed_potential_20240508_B/data/pulses_2000_to_3000.txt
Time (s)	WE(1).Potential (V)	WE(1).Current (A)
2831.29	-0.697235	-0.0223206
2832.17	0.581146	-1.33972e-05
2833.07	0.580139	-6.10352e-07
2833.93	-0.697418	-0.0145935
2834.81	0.580872	-7.38525e-06
2835.71	0.580566	-5.06592e-06
2836.59	0.00163879	0.00979614
2837.45	0.581329	-1.34277e-05
2838.35	0.580261	-1.46484e-06
2839.23	0.00196838	0.00540833
2840.09	0.580078	-3.87573e-06
2840.99	0.580078	-1.52588e-07
2841.89	0.58017	0.0155396
2842.73	0.580566	-8.97217e-06
2843.63	0.579987	-1.0376e-06
2844.53	0.580017	0.000584717
2845.37	0.579895	-4.11987e-06
2846.27	0.580811	-6.37817e-06
2847.17	0.580536	5.83801e-05
2848.01	0.579865	-2.44141e-06
2848.91	0.580566	-7.50732e-06
2849.81	0.580933	1.62048e-05
2850.65	0.580933	-1.02234e-05
2851.55	0.580627	-9.18579e-06
2852.45	0.579834	1.39465e-05
2853.29	0.579956	-2.44141e-06
2854.19	0.580566	-6.80542e-06
2855.09	0.581299	-1.12915e-06
2855.93	0.58136	-1.32141e-05
2856.83	0.581299	-1.19324e-05
2857.73	0.581085	-2.56348e-06
2858.59	-0.696442	-0.0222565
2859.47	0.580444	-8.5144e-06
2860.37	0.581146	-4.82178e-06
2861.23	-0.696777	-0.0146179
2862.11	0.580109	-6.34766e-06
2863.01	0.580719	-2.16675e-06
2863.89	0.00141602	0.00984192
2864.75	0.581268	-1.26038e-05
2865.65	0.580353	-1.43433e-06
2866.53	0.000521851	0.00546387
2867.39	0.580994	-1.09253e-05
2868.29	0.581055	-6.83594e-06
2869.19	0.580261	0.0156189
2870.03	0.581268	-1.1322e-05
2870.93	0.580872	-5.49316e-06
2871.83	0.581024	0.000614624
2872.67	0.581299	-1.36108e-05
2873.57	0.579895	-1.2207e-07
2874.47	0.581177	5.75867e-05
2875.31	0.58078	-9.97925e-06
2876.21	0.580994	-8.91113e-06
2877.11	0.579895	2.38342e-05
2877.95	0.581207	-1.34888e-05
2878.85	0.580231	-4.45557e-06
2879.75	0.579987	1.42212e-05
2880.59	0.581329	-1.37634e-05
2881.49	0.580658	-7.14111e-06
2882.39	0.580658	2.28882e-06
2883.23	0.580292	-5.82886e-06
2884.13	0.579834	-1.34277e-06
2885.03	0.581299	-3.50952e-06
2885.89	-0.696503	-0.0222839
2886.77	0.580048	-1.83105e-06
2887.67	0.579956	3.479e-06
2888.53	-0.698212	-0.0146545
2889.41	0.580109	-5.40161e-06
2890.31	0.579895	3.02124e-06
2891.19	0.000732422	0.00982971
2892.05	0.581268	-1.25427e-05
2892.95	0.580383	-5.49316e-07
2893.83	0.000863647	0.00546753
2894.69	0.579895	-3.93677e-06
2895.59	0.580719	-3.69263e-06
2896.49	0.580505	0.0156708
2897.33	0.58078	-1.02844e-05
2898.23	0.581207	-9.12476e-06
2899.13	0.580139	0.000660706
2899.97	0.581116	-1.171875E-05
2900.87	0.579834	2.44141e-07
2901.77	0.580872	6.54907e-05
2902.61	0.581299	-1.43738e-05
2903.51	0.581177	-9.49097e-06
2904.41	0.581268	1.40076e-05
2905.25	0.579987	-4.30298e-06
2906.15	0.579956	-1.37329e-06
2907.05	0.581268	3.57056e-06
2907.89	0.581299	-1.33057e-05
2908.79	0.579834	-1.09863e-06
2909.69	0.579773	9.15527e-06
2910.53	0.580902	-1.04065e-05
2911.43	0.580139	-3.9978e-06
2912.33	0.580261	6.65283e-06
2913.19	-0.696411	-0.0223389
2914.07	0.581116	-9.18579e-06
2914.97	0.580597	-2.28882e-06
2915.83	-0.697418	-0.0147247
2916.71	0.580048	-2.47192e-06
2917.61	0.580902	-5.7373e-06
2918.49	0.00106201	0.0098053
2919.35	0.580688	-6.62231e-06
2920.25	0.579834	1.70898e-06
2921.13	0.00145264	0.0054718
2921.99	0.580048	-5.06592e-06
2922.89	0.580048	4.57764e-07
2923.79	0.580566	0.0157257
2924.63	0.580231	-6.71387e-06
2925.53	0.580078	1.40381e-06
2926.43	0.581238	0.000689697
2927.27	0.581146	-9.94873e-06
2928.17	0.579773	2.0752e-06
2929.07	0.580261	7.04651e-05
2929.91	0.579742	-2.13623e-06
2930.81	0.581085	-7.17163e-06
2931.71	0.581085	1.474e-05
2932.55	0.581299	-1.36719e-05
2933.45	0.581299	-1.15662e-05
2934.35	0.580444	8.97217e-06
2935.19	0.580658	-1.07117e-05
2936.09	0.579895	-1.09863e-06
2936.99	0.579987	9.27734e-06
2937.83	0.580414	-9.58252e-06
2938.73	0.580292	-6.50024e-06
2939.63	0.580658	1.0376e-06
2940.49	-0.696747	-0.0223724
2941.37	0.581146	-9.8877e-06
2942.27	0.579926	4.18091e-06
2943.13	-0.698242	-0.0147675
2944.01	0.579803	-1.77002e-06
2944.91	0.580109	1.0376e-06
2945.79	0.000354004	0.00978394
2946.65	0.579865	-1.7395e-06
2947.55	0.580322	-2.22778e-06
2948.43	0.0019104	0.00547546
2949.29	0.581055	-1.2146e-05
2950.19	0.580902	-5.7373e-06
2951.09	0.579468	0.0157867
2951.93	0.580444	-7.08008e-06
2952.83	0.580597	-5.52368e-06
2953.73	0.581207	0.000727234
2954.57	0.580444	-6.22559e-06
2955.47	0.580353	-4.94385e-06
2956.37	0.580505	7.54089e-05
2957.21	0.580902	-9.24683e-06
2958.11	0.580261	-3.23486e-06
2959.01	0.581207	1.53809e-05
2959.85	0.581299	-1.32751e-05
2960.75	0.581268	-1.171875E-05
2961.65	0.581238	3.05176e-06
2962.49	0.579803	-3.2959e-06
2963.39	0.579926	-1.37329e-06
2964.29	0.579987	8.08716e-06
2965.13	0.581238	-1.27869e-05
2966.03	0.580688	-7.8125e-06
2966.93	0.580597	1.52588e-07
2967.79	-0.696442	-0.0223999
2968.67	0.579803	-1.0376e-06
2969.57	0.579926	4.3335e-06
2970.43	-0.698303	-0.0148163
2971.31	0.58078	-7.59888e-06
2972.21	0.581024	-5.31006e-06
2973.09	0.000247192	0.00975952
2973.95	0.581268	-1.18103e-05
2974.85	0.580658	-3.14331e-06
2975.73	0.00057373	0.00547638
2976.59	0.581268	-1.18713e-05
2977.49	0.580444	-3.75366e-06
2978.39	0.579193	0.0158203
2979.23	0.579956	-3.72314e-06
2980.13	0.581268	-8.69751e-06
2981.03	0.580078	0.000775757
2981.87	0.580292	-5.12695e-06
2982.77	0.580963	-7.44629e-06
2983.67	0.581085	7.52869e-05
2984.51	0.581299	-1.31531e-05
2985.41	0.580261	-3.84521e-06
2986.31	0.580566	2.05078e-05
2987.15	0.580627	-9.00269e-06
2988.05	0.580902	-8.78906e-06
2988.95	0.580597	7.84302e-06
2989.79	0.580109	-4.5166e-06
2990.69	0.581116	-9.27734e-06
2991.59	0.580078	8.75854e-06
2992.43	0.581146	-1.15051e-05
2993.33	0.579987	-2.13623e-06
2994.23	0.580688	-2.44141e-07
2995.09	-0.697571	-0.0224182
2995.97	0.5802	-4.69971e-06
2996.87	0.579956	2.74658e-06
2997.73	-0.69754	-0.014859
2998.61	0.580505	-6.13403e-06
2999.51	0.580933	-6.19507e-06
3000.39	0.000363159	0.00973511
3001.25	0.580444	-7.62939e-06
3002.15	0.580017	-1.89209e-06
3003.03	0.00198059	0.00546844
3003.89	0.581177	-1.19019e-05
3004.79	0.580353	-1.89209e-06
3005.69	0.580383	0.0158478
3006.53	0.580597	-8.72803e-06
3007.43	0.580048	1.52588e-07
3008.33	0.580475	0.000814819
3009.17	0.580017	-5.67627e-06
3010.07	0.58078	-9.49097e-06
3010.97	0.579834	8.68835e-05
3011.81	0.580688	-5.18799e-06
3012.71	0.5802	-1.00708e-06
3013.61	0.581268	1.73035e-05
3014.45	0.580383	-1.04065e-05
3015.35	0.580658	-8.66699e-06
3016.25	0.5802	1.22681e-05
3017.09	0.580292	-7.35474e-06
3017.99	0.580597	-7.72095e-06
3018.89	0.580444	5.5542e-06
3019.73	0.580688	-6.95801e-06
3020.63	0.580353	-5.95093e-06
3021.53	0.580933	-1.89209e-06
3022.39	-0.697449	-0.0224335
3023.27	0.579865	-2.41089e-06
3024.17	0.580994	-2.83813e-06
3025.03	-0.697601	-0.0149078
3025.91	0.581146	-1.29395e-05
3026.81	0.580353	-2.10571e-06
3027.69	0.000289917	0.00969849
3028.55	0.581085	-1.14136e-05
3029.45	0.5802	-2.44141e-07
3030.33	0.00143738	0.00547089
3031.19	0.581055	-1.15967e-05
3032.09	0.580536	-3.02124e-06
3032.99	0.579315	0.0159027
3033.83	0.58017	-5.24902e-06
3034.73	0.58078	-7.17163e-06
3035.63	0.580597	0.000851746
3036.47	0.58078	-9.552e-06
3037.37	0.580688	-6.65283e-06
3038.27	0.580872	8.49304e-05
3039.11	0.580536	-8.11768e-06
3040.01	0.580139	-2.62451e-06
3040.91	0.58017	2.69775e-05
3041.75	0.580475	-9.42993e-06
3042.65	0.581024	-9.49097e-06
3043.55	0.580597	9.85718e-06
3044.39	0.580261	-5.98145e-06
3045.29	0.581207	-1.0376e-05
3046.19	0.581024	2.22778e-06
3047.03	0.581299	-1.34277e-05
3047.93	0.580627	-7.44629e-06
3048.83	0.580536	3.44849e-06
3049.69	-0.69635	-0.0224731
3050.57	0.580048	-3.8147e-06
3051.47	0.58017	1.98364e-06
3052.33	-0.698181	-0.0149658
3053.21	0.581085	-1.15662e-05
3054.11	0.580078	3.08228e-06
3054.99	0.00167542	0.00968018
3055.85	0.580444	-5.52368e-06
3056.75	0.580719	-3.9978e-06
3057.63	0.000994873	0.00547577
3058.49	0.581085	-1.28174e-05
3059.39	0.580963	-6.50024e-06
3060.29	0.579376	0.0159302
3061.13	0.581085	-1.18408e-05
3062.03	0.581116	-8.75854e-06
3062.93	0.580872	0.000890503
3063.77	0.580963	-1.13525e-05
3064.67	0.580139	-3.38745e-06
3065.57	0.58075	9.32007e-05
3066.41	0.580994	-1.09558e-05
3067.31	0.580322	-4.54712e-06
3068.21	0.579742	3.0304e-05
3069.05	0.58017	-5.21851e-06
3069.95	0.579712	-1.46484e-06
3070.85	0.581207	4.02832e-06
3071.69	0.579834	-3.90625e-06
3072.59	0.580017	2.13623e-07
3073.49	0.581146	2.99072e-06
3074.33	0.580719	-9.24683e-06
3075.23	0.581024	-1.09863e-05
3076.13	0.580261	2.2583e-06
3076.99	-0.696716	-0.0224976
3077.87	0.579834	-6.71387e-07
3078.77	0.580109	4.45557e-06
3079.63	-0.696869	-0.0150085
3080.51	0.580872	-1.17798e-05
3081.41	0.580139	7.93457e-07
3082.29	0.00148315	0.00964355
3083.15	0.58017	-6.89697e-06
3084.05	0.579865	2.89917e-06
3084.93	0.000668335	0.00547241
3085.79	0.579865	-2.41089e-06
3086.69	0.580963	-7.53784e-06
3087.59	0.57901	0.0159851
3088.43	0.581238	-1.2085e-05
3089.33	0.580048	2.44141e-07
3090.23	0.580933	0.000929565
3091.07	0.579956	-1.89209e-06
3091.97	0.580658	-4.42505e-06
3092.87	0.581268	9.22852e-05
3093.71	0.579895	-3.72314e-06
3094.61	0.581238	-9.58252e-06
3095.51	0.580719	2.29187e-05
3096.35	0.580597	-7.53784e-06
3097.25	0.581024	-9.12476e-06
3098.15	0.580383	9.09424e-06
3098.99	0.581207	-1.297e-05
3099.89	0.580139	-3.2959e-06
3100.79	0.579987	9.24683e-06
3101.63	0.579895	-4.3335e-06
3102.53	0.580597	-6.16455e-06
3103.43	0.581329	-3.50952e-06
3104.29	-0.697571	-0.0225189
3105.17	0.580322	-4.85229e-06
3106.07	0.580444	3.35693e-07
3106.93	-0.697998	-0.0150452
3107.81	0.581146	-1.08337e-05
3108.71	0.5802	6.10352e-08
3109.59	0.000344849	0.0096283
3110.45	0.580078	-4.02832e-06
3111.35	0.580231	-3.05176e-08
3112.23	0.00102539	0.00547058
3113.09	0.580475	-7.8125e-06
3113.99	0.580963	-6.68335e-06
3114.89	0.579315	0.0160126
3115.73	0.581024	-9.94873e-06
3116.63	0.580688	-6.7749e-06
3117.53	0.580292	0.000974426
3118.37	0.580017	-3.35693e-06
3119.27	0.579834	4.88281e-07
3120.17	0.579865	0.000105164
3121.01	0.580322	-5.7373e-06
3121.91	0.579956	-1.00708e-06
3122.81	0.580994	2.32544e-05
3123.65	0.581207	-1.17798e-05
3124.55	0.580444	-5.34058e-06
3125.45	0.579742	1.73035e-05
3126.29	0.581116	-1.26953e-05
3127.19	0.580566	-3.08228e-06
3128.09	0.580566	2.41089e-06
3128.93	0.581329	-1.36414e-05
3129.83	0.579712	0
3130.73	0.579834	6.34766e-06
3131.59	-0.696991	-0.0225433
3132.47	0.580475	-8.20923e-06
3133.37	0.581238	-4.48608e-06
3134.23	-0.697235	-0.0151001
3135.11	0.579895	-3.2959e-06
3136.01	0.580963	-5.06592e-06
3136.89	0.00101624	0.00960693
3137.75	0.581238	-1.25732e-05
3138.65	0.580231	-1.2207e-06
3139.53	0.000778198	0.00546814
3140.39	0.58075	-9.85718e-06
3141.29	0.579865	1.52588e-07
3142.19	0.580444	0.0160461
3143.03	0.580933	-1.04065e-05
3143.93	0.580139	-2.59399e-06
3144.83	0.580017	0.00101837
3145.67	0.580109	-6.40869e-06
3146.57	0.580322	-3.78418e-06
3147.47	0.581238	0.000102905
3148.31	0.580139	-2.31934e-06
3149.21	0.580261	-4.42505e-06
3150.11	0.580475	2.96021e-05
3150.95	0.58075	-9.97925e-06
3151.85	0.579834	-7.62939e-07
3152.75	0.579987	1.40991e-05
3153.59	0.580505	-7.41577e-06
3154.49	0.581055	-1.01929e-05
3155.39	0.58075	1.92261e-06
3156.23	0.580963	-1.13525e-05
3157.13	0.580139	-2.80762e-06
3158.03	0.580475	2.44141e-06
3158.89	-0.697235	-0.0225647
3159.77	0.581055	-1.0437e-05
3160.67	0.579987	3.69263e-06
3161.53	-0.697754	-0.015155
3162.41	0.580902	-9.73511e-06
3163.31	0.580292	-2.44141e-07
3164.19	0.00057373	0.00957947
3165.05	0.580231	-5.27954e-06
3165.95	0.580872	-5.15747e-06
3166.83	0.00130005	0.00546295
3167.69	0.580719	-8.36182e-06
3168.59	0.580872	-6.5918e-06
3169.49	0.579346	0.0160797
3170.33	0.581238	-1.24512e-05
3171.23	0.580933	-7.65991e-06
3172.13	0.580109	0.00105652
3172.97	0.579956	-2.80762e-06
3173.87	0.579926	1.83105e-07
3174.77	0.580811	0.000114777
3175.61	0.580261	-4.42505e-06
3176.51	0.580963	-1.08032e-05
3177.41	0.58075	2.97546e-05
3178.25	0.581177	-1.25122e-05
3179.15	0.580902	-6.65283e-06
3180.05	0.579865	1.58997e-05
3180.89	0.581329	-1.34277e-05
3181.79	0.580109	-1.95313e-06
3182.69	0.579834	9.79614e-06
3183.53	0.579926	-1.28174e-06
3184.43	0.581329	-1.2207e-05
3185.33	0.581085	-2.04468e-06
3186.19	-0.696442	-0.0226044
3187.07	0.580688	-6.16455e-06
3187.97	0.580872	-1.49536e-06
3188.83	-0.697052	-0.0151886
3189.71	0.580414	-6.19507e-06
3190.61	0.581268	-6.68335e-06
3191.49	0.00144043	0.00953979
3192.35	0.580292	-6.68335e-06
3193.25	0.579895	1.77002e-06
3194.13	0.00188293	0.00545074
3194.99	0.581238	-1.31531e-05
3195.89	0.579865	1.77002e-06
3196.79	0.579895	0.0161072
3197.63	0.579865	-3.87573e-06
3198.53	0.581116	-9.09424e-06
3199.43	0.579803	0.00110718
3200.27	0.579956	-1.83105e-06
3201.17	0.581238	-9.15527e-06
3202.07	0.580078	0.00012381
3202.91	0.579865	-1.28174e-06
3203.81	0.581207	-1.01624e-05
3204.71	0.580475	3.15857e-05
3205.55	0.580231	-7.53784e-06
3206.45	0.579834	-8.23975e-07
3207.35	0.580688	1.26343e-05
3208.19	0.581177	-1.41907e-05
3209.09	0.580872	-9.0332e-06
3209.99	0.580109	8.23975e-06
3210.83	0.579865	-2.38037e-06
3211.73	0.581207	-1.10779e-05
3212.63	0.579865	6.56128e-06
3213.49	-0.696869	-0.0226349
3214.37	0.579773	-1.46484e-06
3215.27	0.580292	1.67847e-06
3216.13	-0.698059	-0.0152252
3217.01	0.580292	-4.45557e-06
3217.91	0.580566	-6.10352e-07
3218.79	0.000509644	0.00952148
3219.65	0.579926	-3.44849e-06
3220.55	0.579773	1.12915e-06
3221.43	0.00184326	0.00544647
3222.29	0.579987	-1.7395e-06
3223.19	0.580811	-7.59888e-06
3224.09	0.579681	0.016153
3224.93	0.581299	-1.29395e-05
3225.83	0.579712	2.71606e-06
3226.73	0.581116	0.00113983
3227.57	0.580811	-1.12305e-05
3228.47	0.579926	-1.12915e-06
3229.37	0.580597	0.000126373
3230.21	0.581055	-1.01624e-05
3231.11	0.580566	-4.97437e-06
3232.01	0.579865	3.70483e-05
3232.85	0.58136	-1.36414e-05
3233.75	0.581268	-1.12305e-05
3234.65	0.579865	1.78223e-05
3235.49	0.58078	-7.32422e-06
3236.39	0.581299	-1.16577e-05
3237.29	0.580353	7.84302e-06
3238.13	0.58017	-5.82886e-06
3239.03	0.579773	-1.15967e-06
3239.93	0.580048	5.40161e-06
3240.79	-0.697601	-0.022644
3241.67	0.581146	-1.18408e-05
3242.57	0.580719	-2.65503e-06
3243.43	-0.697021	-0.0152863
3244.31	0.579865	-2.71606e-06
3245.21	0.579834	4.05884e-06
3246.09	0.00163269	0.00947876
3246.95	0.580658	-8.97217e-06
3247.85	0.579834	2.13623e-06
3248.73	0.00157776	0.0054364
3249.59	0.579956	-4.24194e-06
3250.49	0.581299	-8.8501e-06
3251.39	0.579254	0.0161804
3252.23	0.581299	-1.33972e-05
3253.13	0.58017	-2.86865e-06
3254.03	0.579803	0.00119934
3254.87	0.581268	-1.26953e-05
3255.77	0.581238	-9.33838e-06
3256.67	0.581207	0.000127136
3257.51	0.580444	-7.53784e-06
3258.41	0.579926	2.13623e-07
3259.31	0.579895	3.79639e-05
3260.15	0.579865	-1.98364e-06
3261.05	0.580505	-6.2561e-06
3261.95	0.579895	1.77307e-05
3262.79	0.581116	-1.30005e-05
3263.69	0.581329	-1.15967e-05
3264.59	0.579742	1.15356e-05
3265.43	0.581238	-1.25427e-05
3266.33	0.580505	-4.91333e-06
3267.23	0.579895	4.79126e-06
3268.09	-0.696838	-0.0227051
3268.97	0.58017	-4.91333e-06
3269.87	0.580627	1.70898e-06
3270.73	-0.697083	-0.0153473
3271.61	0.581085	-1.10779e-05
3272.51	0.580322	1.49536e-06
3273.39	0.000622559	0.00947571
3274.25	0.580017	-3.75366e-06
3275.15	0.579987	1.64795e-06
3276.03	0.000924683	0.0054422
3276.89	0.581207	-1.11084e-05
3277.79	0.580475	-3.20435e-06
3278.69	0.57962	0.0162109
3279.53	0.581116	-9.46045e-06
3280.43	0.580963	-8.05664e-06
3281.33	0.58078	0.00123352
3282.17	0.5802	-6.56128e-06
3283.07	0.580933	-8.30078e-06
3283.97	0.581146	0.000132935
3284.81	0.580994	-1.13831e-05
3285.71	0.581146	-1.02234e-05
3286.61	0.580353	3.54614e-05
3287.45	0.581238	-1.23596e-05
3288.35	0.581299	-1.10474e-05
3289.25	0.5802	1.4679e-05
3290.09	0.581238	-1.28784e-05
3290.99	0.580688	-6.98853e-06
3291.89	0.58075	5.21851e-06
3292.73	0.579865	-2.2583e-06
3293.63	0.580414	-6.2561e-06
3294.53	0.581177	-3.05176e-06
3295.39	-0.697296	-0.0227081
3296.27	0.580139	-3.84521e-06
3297.17	0.580475	6.71387e-07
3298.03	-0.696991	-0.0153809
3298.91	0.580292	-4.48608e-06
3299.81	0.580963	-4.24194e-06
3300.69	0.00127258	0.00943909
3301.55	0.579834	-1.70898e-06
3302.45	0.581177	-7.56836e-06
3303.33	0.000622559	0.00543701
3304.19	0.579895	-1.7395e-06
3305.09	0.580231	-2.38037e-06
3305.99	0.579193	0.0162415
3306.83	0.581238	-1.14441e-05
3307.73	0.581024	-8.30078e-06
3308.63	0.579834	0.00128082
3309.47	0.579956	-3.41797e-06
3310.37	0.581177	-9.06372e-06
3311.27	0.579895	0.000147797
3312.11	0.580658	-7.35474e-06
3313.01	0.580688	-7.41577e-06
3313.91	0.580231	3.79028e-05
3314.75	0.579895	-2.04468e-06
3315.65	0.581238	-1.12305e-05
3316.55	0.579834	1.80969e-05
3317.39	0.579895	-3.72314e-06
3318.29	0.580658	-8.20923e-06
3319.19	0.581146	-3.05176e-08
3320.03	0.580414	-7.04956e-06
3320.93	0.581116	-9.30786e-06
3321.83	0.579712	8.17871e-06
3322.69	-0.696655	-0.022641
3323.57	0.581055	-7.84302e-06
3324.47	0.5802	-3.05176e-08
3325.33	-0.698212	-0.0153473
3326.21	0.580109	-7.2937e-06
3327.11	0.58136	-7.08008e-06
3327.99	0.00166016	0.0094574
3328.85	0.580566	-5.24902e-06
3329.75	0.581116	-6.83594e-06
3330.63	0.000585937	0.00544983
3331.49	0.581055	-9.79614e-06
3332.39	0.581055	-7.2937e-06
3333.29	0.579865	0.0162415
3334.13	0.579987	-2.86865e-06
3335.03	0.579773	1.28174e-06
3335.93	0.579803	0.00125732
3336.77	0.579956	-3.75366e-06
3337.67	0.579834	-1.52588e-07
3338.57	0.579865	0.000151459
3339.41	0.579987	-4.18091e-06
3340.31	0.580566	-5.58472e-06
3341.21	0.580963	3.3783e-05
3342.05	0.581268	-1.32446e-05
3342.95	0.579895	-3.96729e-07
3343.85	0.580658	1.17493e-05
3344.69	0.579865	-1.89209e-06
3345.59	0.579987	-2.0752e-06
3346.49	0.58075	5.12695e-06
3347.33	0.5802	-6.71387e-06
3348.23	0.5802	-3.50952e-06
3349.13	0.580841	7.01904e-07
3349.99	-0.697662	-0.0226868
3350.87	0.580109	-3.60107e-06
3351.77	0.580383	7.62939e-07
3352.63	-0.697845	-0.0154022
3353.51	0.581177	-1.06506e-05
3354.41	0.579956	2.19727e-06
3355.29	0.00160522	0.00942078
3356.15	0.579865	-2.44141e-06
3357.05	0.580536	-2.10571e-06
3357.93	0.00100708	0.00543152
3358.79	0.581085	-1.16882e-05
3359.69	0.581268	-7.56836e-06
3360.59	0.580322	0.0162781
3361.43	0.580261	-5.49316e-06
3362.33	0.579956	-1.06812e-06
3363.23	0.580841	0.00130005
3364.07	0.579865	-2.22778e-06
3364.97	0.579956	-1.80054e-06
3365.87	0.580841	0.000151978
3366.71	0.581238	-1.41602e-05
3367.61	0.579987	-9.15527e-08
3368.51	0.580811	3.68347e-05
3369.35	0.580536	-1.10779e-05
3370.25	0.581268	-9.70459e-06
3371.15	0.580231	1.70288e-05
3371.99	0.580872	-9.18579e-06
3372.89	0.580109	-1.31226e-06
3373.79	0.581055	2.19727e-06
3374.63	0.5802	-4.66919e-06
3375.53	0.581055	-9.73511e-06
3376.43	0.580414	1.86157e-06
3377.29	-0.696503	-0.0227081
3378.17	0.580078	-2.2583e-06
3379.07	0.580902	-2.34985e-06
3379.93	-0.697632	-0.015451
3380.81	0.580566	-7.90405e-06
3381.71	0.580902	-4.91333e-06
3382.59	0.001474	0.00939941
3383.45	0.580505	-7.44629e-06
3384.35	0.580048	1.86157e-06
3385.23	0.00104065	0.00541748
3386.09	0.580109	-4.36401e-06
3386.99	0.580841	-5.06592e-06
3387.89	0.579315	0.0162994
3388.73	0.580414	-7.26318e-06
3389.63	0.581055	-8.45337e-06
3390.53	0.580902	0.00133911
3391.37	0.580017	-3.17383e-06
3392.27	0.580902	-7.99561e-06
3393.17	0.579987	0.000162933
3394.01	0.580627	-9.552e-06
3394.91	0.580261	-7.32422e-07
3395.81	0.581085	3.69568e-05
3396.65	0.580078	-4.88281e-06
3397.55	0.580109	-1.86157e-06
3398.45	0.579803	2.005e-05
3399.29	0.579926	-3.32642e-06
3400.19	0.581085	-1.06201e-05
3401.09	0.580139	5.92041e-06
3401.93	0.579895	-2.22778e-06
3402.83	0.580902	-9.85718e-06
3403.73	0.581299	-2.53296e-06
3404.59	-0.696533	-0.0227356
3405.47	0.580139	-6.98853e-06
3406.37	0.580536	1.0376e-06
3407.23	-0.697784	-0.0154846
3408.11	0.580566	-8.5144e-06
3409.01	0.580658	-1.15967e-06
3409.89	0.00112305	0.00935669
3410.75	0.58017	-4.82178e-06
3411.65	0.581024	-5.5542e-06
3412.53	0.00114746	0.00540863
3413.39	0.580383	-3.96729e-06
3414.29	0.580963	-6.74438e-06
3415.19	0.579346	0.0163208
3416.03	0.579926	-3.14331e-06
3416.93	0.580688	-5.70679e-06
3417.83	0.580048	0.00138947
3418.67	0.58078	-7.8125e-06
3419.57	0.5802	-2.53296e-06
3420.47	0.580292	0.00016629
3421.31	0.580353	-4.88281e-06
3422.21	0.580841	-8.08716e-06
3423.11	0.581024	3.83301e-05
3423.95	0.580994	-1.18713e-05
3424.85	0.580048	-1.70898e-06
3425.75	0.580017	1.93787e-05
3426.59	0.580475	-7.17163e-06
3427.49	0.580322	-4.48608e-06
3428.39	0.58017	9.97925e-06
3429.23	0.580231	-5.76782e-06
3430.13	0.580139	-3.84521e-06
3431.03	0.580292	3.17383e-06
3431.89	-0.696899	-0.0227448
3432.77	0.580536	-5.49316e-06
3433.67	0.581116	-3.26538e-06
3434.53	-0.697968	-0.0155334
3435.41	0.580292	-6.34766e-06
3436.31	0.581116	-5.43213e-06
3437.19	0.000949097	0.00934448
3438.05	0.580811	-8.72803e-06
3438.95	0.579956	5.49316e-07
3439.83	0.00162354	0.00539948
3440.69	0.580139	-4.82178e-06
3441.59	0.580017	9.15527e-07
3442.49	0.580231	0.0163422
3443.33	0.580963	-1.05286e-05
3444.23	0.581085	-8.48389e-06
3445.13	0.580017	0.00143585
3445.97	0.580048	-3.63159e-06
3446.87	0.580078	-2.56348e-06
3447.77	0.579895	0.000177673
3448.61	0.579987	-3.57056e-06
3449.51	0.58017	-7.01904e-07
3450.41	0.580933	4.03137e-05
3451.25	0.579987	-2.59399e-06
3452.15	0.580963	-6.89697e-06
3453.05	0.580475	1.62964e-05
3453.89	0.580322	-4.63867e-06
3454.79	0.580841	-9.8877e-06
3455.69	0.581146	8.23975e-07
3456.53	0.580933	-1.26038e-05
3457.43	0.581116	-1.27258e-05
3458.33	0.581329	-2.31934e-06
3459.19	-0.696838	-0.0227692
3460.07	0.580811	-9.52148e-06
3460.97	0.581024	-4.15039e-06
3461.83	-0.69812	-0.0155579
3462.71	0.580292	-4.97437e-06
3463.61	0.5802	1.7395e-06
3464.49	0.00175781	0.00931396
3465.35	0.580597	-8.17871e-06
3466.25	0.579834	1.58691e-06
3467.13	0.000875854	0.00540894
3467.99	0.579865	-1.61743e-06
3468.89	0.580383	-1.64795e-06
3469.79	0.580414	0.0163696
3470.63	0.580505	-6.74438e-06
3471.53	0.580078	-1.86157e-06
3472.43	0.579803	0.00149017
3473.27	0.581055	-1.04065e-05
3474.17	0.579895	-3.05176e-07
3475.07	0.581146	0.000175446
3475.91	0.580841	-8.45337e-06
3476.81	0.579895	9.15527e-08
3477.71	0.58078	4.422e-05
3478.55	0.58078	-9.552e-06
3479.45	0.580139	-3.66211e-06
3480.35	0.580719	1.56555e-05
3481.19	0.580048	-4.69971e-06
3482.09	0.5802	-2.74658e-06
3482.99	0.580933	5.18799e-06
3483.83	0.580688	-8.97217e-06
3484.73	0.581024	-9.52148e-06
3485.63	0.580597	2.7771e-06
3486.49	-0.697723	-0.0227783
3487.37	0.581207	-1.07727e-05
3488.27	0.580475	2.89917e-06
3489.13	-0.698029	-0.0155884
3490.01	0.579865	-1.80054e-06
3490.91	0.580231	-1.12915e-06
3491.79	0.00154114	0.00928955
3492.65	0.580811	-8.97217e-06
3493.55	0.580231	4.57764e-07
3494.43	0.00105286	0.005401
3495.29	0.580261	-3.50952e-06
3496.19	0.580017	1.09863e-06
3497.09	0.580322	0.016391
3497.93	0.580536	-1.02539e-05
3498.83	0.580139	1.83105e-07
3499.73	0.581024	0.00152496
3500.57	0.580383	-6.40869e-06
3501.47	0.580139	-2.31934e-06
3502.37	0.581055	0.00018335
3503.21	0.580017	-3.8147e-06
3504.11	0.58075	-7.50732e-06
3505.01	0.580627	4.91638e-05
3505.85	0.580322	-6.83594e-06
3506.75	0.580597	-5.37109e-06
3507.65	0.5802	1.89514e-05
3508.49	0.580994	-1.19934e-05
3509.39	0.580017	-4.15039e-06
3510.29	0.580322	9.79614e-06
3511.13	0.581024	-1.22681e-05
3512.03	0.580353	-5.85937e-06
3512.93	0.580048	6.34766e-06
3513.79	-0.696503	-0.0228119
3514.67	0.580109	-2.62451e-06
3515.57	0.579895	4.27246e-06
3516.43	-0.697968	-0.0156311
3517.31	0.579803	-1.86157e-06
3518.21	0.580444	-3.35693e-07
3519.09	0.000375366	0.0092804
3519.95	0.58017	-4.48608e-06
3520.85	0.579895	2.74658e-06
3521.73	0.00142517	0.00539886
3522.59	0.579865	-1.67847e-06
3523.49	0.580353	-4.57764e-07
3524.39	0.580109	0.0164185
3525.23	0.581085	-1.11084e-05
3526.13	0.581299	-9.15527e-06
3527.03	0.581116	0.00157684
3527.87	0.580566	-7.04956e-06
3528.77	0.580963	-7.93457e-06
3529.67	0.581421	0.000189423
3530.51	0.580688	-8.42285e-06
3531.41	0.579895	-9.15527e-07
3532.31	0.579773	5.61829e-05
3533.15	0.580444	-8.30078e-06
3534.05	0.58139	-1.13525e-05
3534.95	0.579956	2.32239e-05
3535.79	0.580292	-8.36182e-06
3536.69	0.580963	-5.76782e-06
3537.59	0.579834	1.21765e-05
3538.43	0.58136	-1.38855e-05
3539.33	0.580353	-6.74438e-06
3540.23	0.579926	7.23267e-06
3541.09	-0.696411	-0.0228333
3541.97	0.580017	-1.61743e-06
3542.87	0.580627	6.10352e-07
3543.73	-0.697784	-0.0156647
3544.61	0.579956	-1.80054e-06
3545.51	0.580536	4.88281e-07
3546.39	0.00162048	0.00925903
3547.25	0.579987	-2.62451e-06
3548.15	0.580353	-1.37329e-06
3549.03	0.00164185	0.00538727
3549.89	0.579834	-8.8501e-07
3550.79	0.579926	1.80054e-06
3551.69	0.579865	0.0164398
3552.53	0.581329	-1.22681e-05
3553.43	0.580597	-4.11987e-06
3554.33	0.580109	0.00162689
3555.17	0.581116	-1.07117e-05
3556.07	0.580139	-2.86865e-06
3556.97	0.579834	0.000204407
3557.81	0.581207	-1.23291e-05
3558.71	0.58017	-3.93677e-06
3559.61	0.580383	5.41382e-05
3560.45	0.58075	-9.0332e-06
3561.35	0.579956	-5.49316e-07
3562.25	0.581177	1.18408e-05
3563.09	0.58075	-8.72803e-06
3563.99	0.581268	-1.01929e-05
3564.89	0.580078	1.08948e-05
3565.73	0.58017	-4.36401e-06
3566.63	0.580505	-5.95093e-06
3567.53	0.579803	8.72803e-06
3568.39	-0.697052	-0.0228455
3569.27	0.581024	-1.0498e-05
3570.17	0.580902	-4.88281e-06
3571.03	-0.697388	-0.0156982
3571.91	0.581085	-9.00269e-06
3572.81	0.579895	1.15967e-06
3573.69	0.00045166	0.00922241
3574.55	0.58017	-6.16455e-06
3575.45	0.579742	3.32642e-06
3576.33	0.00187073	0.00537445
3577.19	0.581238	-1.24207e-05
3578.09	0.579834	1.31226e-06
3578.99	0.580109	0.0164703
3579.83	0.581177	-1.31226e-05
3580.73	0.581024	-8.60596e-06
3581.63	0.581024	0.00167267
3582.47	0.581268	-1.18408e-05
3583.37	0.580719	-5.24902e-06
3584.27	0.579895	0.000211548
3585.11	0.580383	-7.20215e-06
3586.01	0.581085	-8.66699e-06
3586.91	0.580017	5.95093e-05
3587.75	0.581238	-1.34888e-05
3588.65	0.580444	-3.44849e-06
3589.55	0.581207	1.49536e-05
3590.39	0.580414	-7.78198e-06
3591.29	0.581207	-1.00403e-05
3592.19	0.581268	1.83105e-06
3593.03	0.580505	-6.40869e-06
3593.93	0.580322	-4.97437e-06
3594.83	0.580597	4.11987e-06
3595.69	-0.697601	-0.0228394
3596.57	0.580017	-1.61743e-06
3597.47	0.581207	-4.69971e-06
3598.33	-0.69693	-0.015744
3599.21	0.579926	-2.0752e-06
3600.11	0.579895	3.8147e-06
3600.99	0.000341797	0.009198
3601.85	0.580383	-4.39453e-06
3602.75	0.579956	1.49536e-06
3603.63	0.00180054	0.00536804
3604.49	0.580902	-1.01929e-05
3605.39	0.581268	-8.8501e-06
3606.29	0.57962	0.0164917
3607.13	0.579865	-2.04468e-06
3608.03	0.579956	-1.2207e-06
3608.93	0.58136	0.0017218
3609.77	0.580048	-2.99072e-06
3610.67	0.58139	-9.09424e-06
3611.57	0.58136	0.000210907
3612.41	0.579773	-2.89917e-06
3613.31	0.580231	-4.79126e-06
3614.21	0.580383	5.94788e-05
3615.05	0.581177	-1.32446e-05
3615.95	0.580292	-2.56348e-06
3616.85	0.580353	2.04468e-05
3617.69	0.581329	-1.40381e-05
3618.59	0.580322	-2.56348e-06
3619.49	0.580353	1.06506e-05
3620.33	0.58139	-1.31226e-05
3621.23	0.581085	-1.13831e-05
3622.13	0.579895	8.57544e-06
3622.99	-0.696747	-0.0228699
3623.87	0.579895	-2.0752e-06
3624.77	0.581024	-3.57056e-06
3625.63	-0.697144	-0.0157684
3626.51	0.581116	-1.15662e-05
3627.41	0.580292	1.49536e-06
3628.29	0.000494385	0.00918274
3629.15	0.580566	-7.96509e-06
3630.05	0.580963	-5.12695e-06
3630.93	0.000866699	0.00536835
3631.79	0.580994	-1.03149e-05
3632.69	0.580048	5.49316e-07
3633.59	0.580322	0.016507
3634.43	0.580078	-4.3335e-06
3635.33	0.580872	-5.98145e-06
3636.23	0.581024	0.00177124
3637.07	0.579987	-3.75366e-06
3637.97	0.580963	-7.17163e-06
3638.87	0.580658	0.000221222
3639.71	0.580383	-6.95801e-06
3640.61	0.580933	-7.78198e-06
3641.51	0.579926	6.31714e-05
3642.35	0.579956	-3.20435e-06
3643.25	0.581177	-9.67407e-06
3644.15	0.579895	2.63062e-05
3644.99	0.579895	-3.11279e-06
3645.89	0.580688	-6.68335e-06
3646.79	0.579895	1.30615e-05
3647.63	0.581085	-1.32446e-05
3648.53	0.580078	-2.38037e-06
3649.43	0.58078	2.74658e-07
3650.29	-0.696442	-0.0229065
3651.17	0.580811	-8.88062e-06
3652.07	0.580109	5.0354e-06
3652.93	-0.697021	-0.0158203
3653.81	0.581146	-1.02844e-05
3654.71	0.581116	-5.06592e-06
3655.59	0.00114441	0.00915833
3656.45	0.580078	-3.38745e-06
3657.35	0.580566	-3.14331e-06
3658.23	0.0012146	0.00536438
3659.09	0.580688	-6.71387e-06
3659.99	0.580994	-6.22559e-06
3660.89	0.579498	0.0165436
3661.73	0.58078	-9.8877e-06
3662.63	0.580963	-6.37817e-06
3663.53	0.580597	0.00182129
3664.37	0.580414	-6.073e-06
3665.27	0.580078	-2.44141e-07
3666.17	0.580627	0.000228149
3667.01	0.581085	-1.18408e-05
3667.91	0.580627	-5.27954e-06
3668.81	0.580078	6.46057e-05
3669.65	0.580841	-9.91821e-06
3670.55	0.580231	-3.93677e-06
3671.45	0.580505	2.12097e-05
3672.29	0.581116	-1.16577e-05
3673.19	0.579987	-2.16675e-06
3674.09	0.581146	4.3335e-06
3674.93	0.579956	-4.30298e-06
3675.83	0.580688	-7.38525e-06
3676.73	0.581207	-5.79834e-07
3677.59	-0.697235	-0.0229095
3678.47	0.579956	-1.95313e-06
3679.37	0.580261	2.99072e-06
3680.23	-0.69751	-0.0158417
3681.11	0.581055	-1.07117e-05
3682.01	0.581146	-5.24902e-06
3682.89	0.00151062	0.00914307
3683.75	0.580109	-3.05176e-06
3684.65	0.580902	-5.27954e-06
3685.53	0.00072937	0.00536438
3686.39	0.580994	-1.00708e-05
3687.29	0.581024	-5.82886e-06
3688.19	0.578949	0.0165619
3689.03	0.581116	-1.13831e-05
3689.93	0.579803	1.98364e-06
3690.83	0.58136	0.00186096
3691.67	0.580658	-7.75146e-06
3692.57	0.581207	-1.05896e-05
3693.47	0.579773	0.000242035
3694.31	0.580292	-8.42285e-06
3695.21	0.580292	-1.7395e-06
3696.11	0.581146	5.91125e-05
3696.95	0.580383	-9.33838e-06
3697.85	0.58136	-1.06812e-05
3698.75	0.580536	2.30103e-05
3699.59	0.580597	-7.2937e-06
3700.49	0.580719	-6.83594e-06
3701.39	0.580872	7.17163e-06
3702.23	0.581146	-1.15662e-05
3703.13	0.581268	-1.11084e-05
3704.03	0.58075	2.28882e-06
3704.89	-0.697693	-0.022934
3705.77	0.580017	-3.23486e-06
3706.67	0.580963	-1.89209e-06
3707.53	-0.698029	-0.0158691
3708.41	0.581268	-1.19019e-05
3709.31	0.580475	-1.25122e-06
3710.19	0.00145264	0.00910339
3711.05	0.580536	-6.37817e-06
3711.95	0.580841	-4.05884e-06
3712.83	0.00107727	0.00535309
3713.69	0.580292	-4.30298e-06
3714.59	0.579895	2.56348e-06
3715.49	0.579468	0.016571
3716.33	0.579895	-2.62451e-06
3717.23	0.579865	5.18799e-07
3718.13	0.580688	0.00192169
3718.97	0.581085	-1.01013e-05
3719.87	0.580994	-6.95801e-06
3720.77	0.581329	0.000238678
3721.61	0.58017	-4.91333e-06
3722.51	0.580414	-2.68555e-06
3723.41	0.581238	5.96008e-05
3724.25	0.579895	-2.56348e-06
3725.15	0.581146	-1.06506e-05
3726.05	0.580811	2.19116e-05
3726.89	0.581116	-1.26343e-05
3727.79	0.580902	-7.75146e-06
3728.69	0.581238	4.82178e-06
3729.53	0.580627	-9.15527e-06
3730.43	0.581146	-9.09424e-06
3731.33	0.580353	3.66211e-06
3732.19	-0.697632	-0.0229431
3733.07	0.580414	-5.09644e-06
3733.97	0.580811	-4.54712e-06
3734.83	-0.697937	-0.0159027
3735.71	0.580688	-6.34766e-06
3736.61	0.581085	-3.2959e-06
3737.49	0.0015564	0.00908203
3738.35	0.579926	-1.95313e-06
3739.25	0.581299	-6.80542e-06
3740.13	0.00161743	0.00533203
3740.99	0.580902	-1.18408e-05
3741.89	0.580841	-3.32642e-06
3742.79	0.57959	0.0165802
3743.63	0.580261	-7.84302e-06
3744.53	0.579987	-1.25122e-06
3745.43	0.579926	0.00198303
3746.27	0.579926	-1.7395e-06
3747.17	0.58017	-2.50244e-06
3748.07	0.579956	0.000256866
3748.91	0.579834	-1.70898e-06
3749.81	0.579926	-1.2207e-06
3750.71	0.580597	6.79321e-05
3751.55	0.580902	-1.07117e-05
3752.45	0.5802	-2.89917e-06
3753.35	0.579987	2.89612e-05
3754.19	0.580536	-8.54492e-06
3755.09	0.580109	-2.04468e-06
3755.99	0.581146	5.79834e-06
3756.83	0.58078	-1.00403e-05
3757.73	0.580963	-1.05286e-05
3758.63	0.579895	7.99561e-06
3759.49	-0.697662	-0.0229492
3760.37	0.581207	-1.15051e-05
3761.27	0.580048	4.21143e-06
3762.13	-0.697754	-0.015918
3763.01	0.581238	-1.18408e-05
3763.91	0.580872	-3.72314e-06
3764.79	0.000784302	0.00905457
3765.65	0.580353	-6.37817e-06
3766.55	0.580902	-4.30298e-06
3767.43	0.000769043	0.00533661
3768.29	0.580536	-5.67627e-06
3769.19	0.581146	-8.5144e-06
3770.09	0.580231	0.0165985
3770.93	0.579865	-2.62451e-06
3771.83	0.581055	-7.14111e-06
3772.73	0.580627	0.00203491
3773.57	0.580627	-8.08716e-06
3774.47	0.580963	-7.26318e-06
3775.37	0.579865	0.000265991
3776.21	0.580139	-4.97437e-06
3777.11	0.580017	-9.76562e-07
3778.01	0.580444	7.12891e-05
3778.85	0.580902	-9.33838e-06
3779.75	0.580841	-6.98853e-06
3780.65	0.581207	2.04163e-05
3781.49	0.579956	-3.17383e-06
3782.39	0.580261	-4.30298e-06
3783.29	0.580902	5.34058e-06
3784.13	0.581268	-1.30005e-05
3785.03	0.580109	-4.42505e-06
3785.93	0.581299	-1.52588e-07
3786.79	-0.696564	-0.0229767
3787.67	0.580719	-9.79614e-06
3788.57	0.580597	1.89209e-06
3789.43	-0.697937	-0.0159576
3790.31	0.580383	-8.39233e-06
3791.21	0.579834	4.18091e-06
3792.09	0.00153198	0.00904236
3792.95	0.580353	-7.41577e-06
3793.85	0.580383	-7.62939e-07
3794.73	0.00136108	0.00532867
3795.59	0.580261	-6.04248e-06
3796.49	0.580963	-5.09644e-06
3797.39	0.579437	0.0166351
3798.23	0.581146	-1.14136e-05
3799.13	0.580017	3.66211e-07
3800.03	0.579956	0.00210022
3800.87	0.581238	-1.34277e-05
3801.77	0.581177	-9.82666e-06
3802.67	0.581146	0.000263458
3803.51	0.580139	-3.72314e-06
3804.41	0.580688	-6.89697e-06
3805.31	0.581238	6.98547e-05
3806.15	0.580841	-1.14746e-05
3807.05	0.581116	-1.09558e-05
3807.95	0.581085	2.3468e-05
3808.79	0.580933	-1.19019e-05
3809.69	0.580383	-5.7373e-06
3810.59	0.58078	9.42993e-06
3811.43	0.580078	-4.36401e-06
3812.33	0.580231	-4.05884e-06
3813.23	0.58075	2.31934e-06
3814.09	-0.696655	-0.022998
3814.97	0.580994	-1.06201e-05
3815.87	0.581268	-3.84521e-06
3816.73	-0.697021	-0.0159973
3817.61	0.579987	-2.13623e-06
3818.51	0.580841	-3.08228e-06
3819.39	0.00154724	0.00901794
3820.25	0.580811	-8.78906e-06
3821.15	0.580475	-1.58691e-06
3822.03	0.000778198	0.00532837
3822.89	0.580597	-7.75146e-06
3823.79	0.580719	-2.74658e-06
3824.69	0.57901	0.0166626
3825.53	0.580933	-1.04675e-05
3826.43	0.581299	-9.42993e-06
3827.33	0.579865	0.00216003
3828.17	0.581207	-1.09558e-05
3829.07	0.58136	-1.05591e-05
3829.97	0.580017	0.000276917
3830.81	0.579926	-3.90625e-06
3831.71	0.58136	-1.06201e-05
3832.61	0.5802	7.87048e-05
3833.45	0.581207	-1.35193e-05
3834.35	0.580109	-5.40161e-06
3835.25	0.580139	2.96936e-05
3836.09	0.580627	-5.7373e-06
3836.99	0.580444	-2.62451e-06
3837.89	0.580444	1.15967e-05
3838.73	0.580719	-1.20239e-05
3839.63	0.581329	-1.15967e-05
3840.53	0.581146	7.32422e-07
3841.39	-0.697479	-0.0230042
3842.27	0.581146	-1.09863e-05
3843.17	0.579865	5.85937e-06
3844.03	-0.69812	-0.0160217
3844.91	0.580933	-9.39941e-06
3845.81	0.580688	-3.05176e-06
3846.69	0.000198364	0.00900574
3847.55	0.580048	-2.83813e-06
3848.45	0.579834	2.83813e-06
3849.33	0.00173645	0.00531372
3850.19	0.581329	-1.22681e-05
3851.09	0.581268	-6.83594e-06
3851.99	0.580444	0.0166779
3852.83	0.581207	-1.20544e-05
3853.73	0.580536	-4.60815e-06
3854.63	0.580109	0.00223114
3855.47	0.580261	-5.70679e-06
3856.37	0.580994	-8.94165e-06
3857.27	0.580505	0.0002854
3858.11	0.58017	-4.54712e-06
3859.01	0.580841	-6.86646e-06
3859.91	0.580261	8.22754e-05
3860.75	0.581238	-1.19019e-05
3861.65	0.581207	-1.00403e-05
3862.55	0.580902	2.62756e-05
3863.39	0.581207	-1.23596e-05
3864.29	0.581085	-8.36182e-06
3865.19	0.579895	1.69678e-05
3866.03	0.579895	-3.35693e-06
3866.93	0.580322	-4.88281e-06
3867.83	0.581329	2.13623e-07
3868.69	-0.696198	-0.0230408
3869.57	0.580383	-4.39453e-06
3870.47	0.579926	5.85937e-06
3871.33	-0.697784	-0.0160583
3872.21	0.580597	-7.8125e-06
3873.11	0.581177	-6.31714e-06
3873.99	0.00158081	0.00898132
3874.85	0.581024	-1.00708e-05
3875.75	0.581268	-8.5144e-06
3876.63	0.000762939	0.00532074
3877.49	0.579895	-2.10571e-06
3878.39	0.580231	-2.38037e-06
3879.29	0.580261	0.0166931
3880.13	0.580322	-5.95093e-06
3881.03	0.581116	-7.23267e-06
3881.93	0.580566	0.00228882
3882.77	0.580078	-4.76074e-06
3883.67	0.579865	4.27246e-07
3884.57	0.579926	0.000297882
3885.41	0.580292	-4.18091e-06
3886.31	0.580536	-6.50024e-06
3887.21	0.580872	7.84302e-05
3888.05	0.579987	-3.9978e-06
3888.95	0.581329	-1.08643e-05
3889.85	0.579742	3.479e-05
3890.69	0.579956	-1.83105e-06
3891.59	0.580017	-1.43433e-06
3892.49	0.580444	1.3855e-05
3893.33	0.580444	-1.00098e-05
3894.23	0.581116	-1.08643e-05
3895.13	0.58017	7.93457e-06
3895.99	-0.69751	-0.0230438
3896.87	0.579956	-1.83105e-06
3897.77	0.580872	-2.2583e-06
3898.63	-0.69693	-0.0160889
3899.51	0.58078	-9.42993e-06
3900.41	0.581055	-4.18091e-06
3901.29	0.00173035	0.00896606
3902.15	0.581055	-1.06506e-05
3903.05	0.580109	-8.8501e-07
3903.93	0.000543213	0.00531494
3904.79	0.579956	-3.72314e-06
3905.69	0.580841	-5.5542e-06
3906.59	0.579956	0.0167236
3907.43	0.580872	-9.00269e-06
3908.33	0.581116	-8.45337e-06
3909.23	0.580353	0.00234558
3910.07	0.581238	-1.21765e-05
3910.97	0.580627	-5.46265e-06
3911.87	0.579895	0.000305634
3912.71	0.579895	-3.63159e-06
3913.61	0.580048	-2.7771e-06
3914.51	0.580902	8.20923e-05
3915.35	0.581177	-1.07727e-05
3916.25	0.581207	-9.21631e-06
3917.15	0.581146	2.69775e-05
3917.99	0.580048	-2.71606e-06
3918.89	0.581238	-1.02844e-05
3919.79	0.580078	1.55945e-05
3920.63	0.581268	-1.24817e-05
3921.53	0.580963	-8.39233e-06
3922.43	0.580597	5.15747e-06
3923.29	-0.696777	-0.023053
3924.17	0.580841	-8.88062e-06
3925.07	0.581268	-4.66919e-06
3925.93	-0.697845	-0.0161194
3926.81	0.580261	-4.5166e-06
3927.71	0.579834	3.50952e-06
3928.59	0.00164185	0.0089386
3929.45	0.580414	-6.50024e-06
3930.35	0.580597	-5.34058e-06
3931.23	0.001297	0.0052951
3932.09	0.580139	-4.45557e-06
3932.99	0.580231	-3.08228e-06
3933.89	0.579254	0.0167328
3934.73	0.580902	-9.67407e-06
3935.63	0.580231	-2.83813e-06
3936.53	0.581146	0.00239868
3937.37	0.579865	-5.21851e-06
3938.27	0.579895	3.05176e-07
3939.17	0.5802	0.000311462
3940.01	0.579895	-5.92041e-06
3940.91	0.580353	-2.86865e-06
3941.81	0.580933	8.48999e-05
3942.65	0.580048	-5.95093e-06
3943.55	0.581116	-9.00269e-06
3944.45	0.580444	3.39966e-05
3945.29	0.580231	-3.44849e-06
3946.19	0.580811	-8.11768e-06
3947.09	0.579926	1.8219e-05
3947.93	0.580902	-1.05286e-05
3948.83	0.580536	-6.92749e-06
3949.73	0.580078	9.52148e-06
3950.59	-0.697235	-0.0230743
3951.47	0.581207	-1.2207e-05
3952.37	0.579926	4.94385e-06
3953.23	-0.697235	-0.0161407
3954.11	0.580261	-6.98853e-06
3955.01	0.580719	-7.62939e-07
3955.89	0.00105591	0.00890198
3956.75	0.581146	-1.1322e-05
3957.65	0.581146	-5.92041e-06
3958.53	0.00112915	0.00527832
3959.39	0.58017	-4.18091e-06
3960.29	0.580688	-4.60815e-06
3961.19	0.580414	0.0167389
3962.03	0.579895	-2.71606e-06
3962.93	0.581024	-6.68335e-06
3963.83	0.579895	0.00247284
3964.67	0.580353	-6.56128e-06
3965.57	0.580841	-7.14111e-06
3966.47	0.581299	0.000311035
3967.31	0.580688	-9.91821e-06
3968.21	0.581085	-9.09424e-06
3969.11	0.580383	9.20715e-05
3969.95	0.580536	-9.24683e-06
3970.85	0.581146	-9.64355e-06
3971.75	0.581024	3.07922e-05
3972.59	0.580048	-5.12695e-06
3973.49	0.5802	-2.68555e-06
3974.39	0.581207	8.91113e-06
3975.23	0.580597	-8.02612e-06
3976.13	0.581024	-8.97217e-06
3977.03	0.579956	1.05591e-05
3977.89	-0.697754	-0.0231049
3978.77	0.581207	-1.08948e-05
3979.67	0.581207	-3.14331e-06
3980.53	-0.697571	-0.0161865
3981.41	0.580902	-9.09424e-06
3982.31	0.581238	-5.40161e-06
3983.19	0.000408936	0.00888367
3984.05	0.580994	-9.3689e-06
3984.95	0.580109	3.66211e-07
3985.83	0.00160828	0.00526215
3986.69	0.580933	-8.69751e-06
3987.59	0.581177	-7.96509e-06
3988.49	0.57959	0.016748
3989.33	0.580078	-4.24194e-06
3990.23	0.581177	-6.5918e-06
3991.13	0.580902	0.00252289
3991.97	0.581177	-1.19934e-05
3992.87	0.580109	-3.9978e-06
3993.77	0.581055	0.000317352
3994.61	0.580719	-8.45337e-06
3995.51	0.58136	-1.03149e-05
3996.41	0.579773	9.9823e-05
3997.25	0.580536	-6.86646e-06
3998.15	0.580841	-5.67627e-06
3999.05	0.579803	3.94897e-05
3999.89	0.579834	-2.83813e-06
4000.79	0.581329	-1.06506e-05
4001.69	0.580841	1.13525e-05
4002.53	0.5802	-7.78198e-06
4003.43	0.581329	-1.09558e-05
4004.33	0.579956	9.94873e-06
4005.19	-0.69632	-0.023114
4006.07	0.580872	-9.85718e-06
4006.97	0.580139	4.94385e-06
4007.83	-0.698059	-0.0161957
4008.71	0.580475	-4.45557e-06
4009.61	0.580688	-2.2583e-06
4010.49	0.00106201	0.00885315
4011.35	0.580994	-8.66699e-06
4012.25	0.580872	-4.76074e-06
4013.13	0.001953125	0.00525452
4013.99	0.580109	-3.35693e-06
4014.89	0.580688	-4.60815e-06
4015.79	0.57901	0.0167694
4016.63	0.581177	-1.08032e-05
4017.53	0.580933	-7.99561e-06
4018.43	0.580811	0.00257507
4019.27	0.579926	-1.89209e-06
4020.17	0.580322	-2.74658e-06
4021.07	0.581085	0.000326141
4021.91	0.579834	-1.92261e-06
4022.81	0.580048	-1.15967e-06
4023.71	0.580139	9.81445e-05
4024.55	0.579926	-1.83105e-06
4025.45	0.580994	-9.18579e-06
4026.35	0.580566	3.59802e-05
4027.19	0.579865	-2.59399e-06
4028.09	0.580994	-9.15527e-06
4028.99	0.581207	9.94873e-06
4029.83	0.5802	-5.46265e-06
4030.73	0.579926	-1.34277e-06
4031.63	0.580597	6.53076e-06
4032.49	-0.697418	-0.0231171
4033.37	0.580475	-5.46265e-06
4034.27	0.580231	3.08228e-06
4035.13	-0.698029	-0.0162201
4036.01	0.580078	-2.89917e-06
4036.91	0.580383	8.23975e-07
4037.79	0.00121765	0.00884094
4038.65	0.580688	-6.50024e-06
4039.55	0.580414	-2.44141e-07
4040.43	0.00137634	0.00524841
4041.29	0.580963	-1.01318e-05
4042.19	0.581146	-6.80542e-06
4043.09	0.580292	0.0167786
4043.93	0.581207	-1.18713e-05
4044.83	0.581116	-7.41577e-06
4045.73	0.580933	0.00264191
4046.57	0.581085	-1.0376e-05
4047.47	0.580383	-2.89917e-06
4048.37	0.579895	0.000342957
4049.21	0.580139	-3.14331e-06
4050.11	0.579895	-1.25122e-06
4051.01	0.5802	0.000100372
4051.85	0.581146	-1.02539e-05
4052.75	0.580994	-8.48389e-06
4053.65	0.581146	3.302e-05
4054.49	0.579956	-2.41089e-06
4055.39	0.579926	-4.27246e-07
4056.29	0.58017	1.85547e-05
4057.13	0.579895	-2.65503e-06
4058.03	0.581085	-9.8877e-06
4058.93	0.580933	4.5166e-06
4059.79	-0.69635	-0.0231445
4060.67	0.580902	-9.64355e-06
4061.57	0.580994	-1.31226e-06
4062.43	-0.696686	-0.0162628
4063.31	0.579895	-1.12915e-06
4064.21	0.579865	3.14331e-06
4065.09	0.000958252	0.00882263
4065.95	0.579987	-9.46045e-07
4066.85	0.580933	-5.18799e-06
4067.73	0.00185242	0.0052417
4068.59	0.580719	-8.23975e-06
4069.49	0.579987	1.34277e-06
4070.39	0.579193	0.0168091
4071.23	0.58075	-9.12476e-06
4072.13	0.581055	-7.65991e-06
4073.03	0.580994	0.00270813
4073.87	0.579926	-2.10571e-06
4074.77	0.580627	-5.12695e-06
4075.67	0.581146	0.000342072
4076.51	0.580963	-1.08337e-05
4077.41	0.580994	-9.67407e-06
4078.31	0.58078	0.000101074
4079.15	0.580109	-5.52368e-06
4080.05	0.580292	-5.00488e-06
4080.95	0.579987	4.31824e-05
4081.79	0.58017	-4.36401e-06
4082.69	0.581207	-1.14136e-05
4083.59	0.580963	1.2146e-05
4084.43	0.580872	-9.552e-06
4085.33	0.581207	-1.09863e-05
4086.23	0.579834	1.32446e-05
4087.09	-0.697632	-0.0231506
4087.97	0.580566	-6.92749e-06
4088.87	0.581146	-3.8147e-06
4089.73	-0.698059	-0.0162842
4090.61	0.581238	-1.33057e-05
4091.51	0.581268	-6.2561e-06
4092.39	0.000344849	0.00880127
4093.25	0.580566	-8.91113e-06
4094.15	0.579987	4.15039e-06
4095.03	0.00174866	0.00523407
4095.89	0.580017	-2.86865e-06
4096.79	0.581116	-6.74438e-06
4097.69	0.57959	0.0168182
4098.53	0.579926	-7.93457e-07
4099.43	0.581146	-8.8501e-06
4100.33	0.580444	0.00278809
4101.17	0.580078	-5.88989e-06
4102.07	0.580505	-5.92041e-06
4102.97	0.581146	0.000350952
4103.81	0.581329	-1.33972e-05
4104.71	0.580017	6.10352e-08
4105.61	0.580505	0.000105164
4106.45	0.580994	-1.2146e-05
4107.35	0.580811	-6.80542e-06
4108.25	0.580719	3.84521e-05
4109.09	0.580627	-6.5918e-06
4109.99	0.580902	-8.63647e-06
4110.89	0.58017	1.84631e-05
4111.73	0.579987	-2.22778e-06
4112.63	0.579926	-1.37329e-06
4113.53	0.580139	1.13525e-05
4114.39	-0.697205	-0.023175
4115.27	0.579865	-2.38037e-06
4116.17	0.580414	2.65503e-06
4117.03	-0.696869	-0.0163269
4117.91	0.581116	-1.15356e-05
4118.81	0.581207	-4.15039e-06
4119.69	0.00169983	0.00879211
4120.55	0.580994	-1.12e-05
4121.45	0.580994	-2.96021e-06
4122.33	0.00145264	0.00523041
4123.19	0.580231	-5.06592e-06
4124.09	0.580048	-5.49316e-07
4124.99	0.579498	0.0168427
4125.83	0.579865	-1.92261e-06
4126.73	0.580261	-2.22778e-06
4127.63	0.581238	0.0028598
4128.47	0.581146	-1.1261e-05
4129.37	0.580658	-4.66919e-06
4130.27	0.580017	0.000367645
4131.11	0.579926	-3.41797e-06
4131.25	0.580261	-4.30298e-06