File: Edgar/20240508/20240508/electrodeposition_pulsed_potential_20240508_B/data/pulses_1000_to_2000.txt
Time (s)	WE(1).Potential (V)	WE(1).Current (A)
1506.43	-0.696747	-0.0182861
1507.31	0.58136	-1.51062e-05
1508.21	0.579865	-1.00708e-06
1509.07	-0.698303	-0.00990295
1509.95	0.580109	-3.08228e-06
1510.85	0.581055	-6.22559e-06
1511.73	0.000747681	0.0106842
1512.59	0.581085	-1.1322e-05
1513.49	0.579803	-1.5564e-06
1514.37	0.00189819	0.00414856
1515.23	0.579834	-3.78418e-06
1516.13	0.580414	-4.66919e-06
1517.03	0.581848	0.0030835
1517.87	0.58075	-9.85718e-06
1518.77	0.580994	-9.64355e-06
1519.67	0.581238	3.51257e-05
1520.51	0.580078	-4.45557e-06
1521.41	0.581207	-1.23596e-05
1522.31	0.579834	2.05383e-05
1523.15	0.579987	-3.93677e-06
1524.05	0.580505	-6.22559e-06
1524.95	0.581299	1.61743e-06
1525.79	0.581024	-1.22375e-05
1526.69	0.580963	-1.00708e-05
1527.59	0.579803	6.65283e-06
1528.43	0.581207	-1.1261e-05
1529.33	0.580688	-1.05896e-05
1530.23	0.580688	1.12915e-06
1531.07	0.580109	-6.16455e-06
1531.97	0.581116	-1.29089e-05
1532.87	0.580109	0
1533.73	-0.697693	-0.0182739
1534.61	0.581207	-1.42822e-05
1535.51	0.580139	5.49316e-07
1536.37	-0.697906	-0.0099884
1537.25	0.580292	-7.87354e-06
1538.15	0.579803	-4.57764e-07
1539.03	0.00113831	0.0107758
1539.89	0.579926	-2.44141e-06
1540.79	0.580872	-6.80542e-06
1541.67	0.000894165	0.00429352
1542.53	0.580414	-8.88062e-06
1543.43	0.581207	-9.21631e-06
1544.33	0.580536	0.00566162
1545.17	0.579865	-4.05884e-06
1546.07	0.580383	-5.06592e-06
1546.97	0.581024	3.60718e-05
1547.81	0.580505	-9.79614e-06
1548.71	0.58075	-9.70459e-06
1549.61	0.579987	2.01111e-05
1550.45	0.580109	-5.88989e-06
1551.35	0.579956	-1.77002e-06
1552.25	0.580048	1.22681e-05
1553.09	0.580597	-9.97925e-06
1553.99	0.580078	-3.38745e-06
1554.89	0.579895	8.36182e-06
1555.73	0.580658	-9.21631e-06
1556.63	0.580109	-3.23486e-06
1557.53	0.580872	-4.05884e-06
1558.37	0.580017	-4.30298e-06
1559.27	0.580536	-8.42285e-06
1560.17	0.581207	-7.08008e-06
1561.03	-0.696625	-0.0184387
1561.91	0.580414	-7.69043e-06
1562.81	0.581116	-7.26318e-06
1563.67	-0.698212	-0.0101227
1564.55	0.580719	-9.97925e-06
1565.45	0.58017	-1.19019e-06
1566.33	0.000482178	0.0108215
1567.19	0.579895	-2.19727e-06
1568.09	0.580658	-2.62451e-06
1568.97	0.0018219	0.00438721
1569.83	0.579895	-5.98145e-06
1570.73	0.58136	-1.06201e-05
1571.63	0.580139	0.00756836
1572.47	0.580933	-1.10168e-05
1573.37	0.581268	-1.23291e-05
1574.27	0.580353	4.17786e-05
1575.11	0.580933	-1.06201e-05
1576.01	0.580719	-8.3313e-06
1576.91	0.579926	2.13928e-05
1577.75	0.580109	-6.7749e-06
1578.65	0.581268	-1.1322e-05
1579.55	0.580566	8.02612e-06
1580.39	0.580597	-7.99561e-06
1581.29	0.580688	-9.06372e-06
1582.19	0.580292	4.39453e-06
1583.03	0.5802	-6.98853e-06
1583.93	0.581238	-1.31836e-05
1584.83	0.580109	2.44141e-06
1585.67	0.579834	-4.45557e-06
1586.57	0.580994	-1.18103e-05
1587.47	0.581177	-5.27954e-06
1588.33	-0.697906	-0.0186005
1589.21	0.581207	-1.05286e-05
1590.11	0.579865	3.20435e-06
1590.97	-0.697998	-0.0102509
1591.85	0.581085	-1.40076e-05
1592.75	0.58136	-7.50732e-06
1593.63	0.001171875	0.0108246
1594.49	0.581085	-1.13831e-05
1595.39	0.580109	-2.19727e-06
1596.27	0.000701904	0.00447876
1597.13	0.579926	-4.42505e-06
1598.03	0.581085	-9.06372e-06
1598.93	0.580139	0.00862122
1599.77	0.579865	-3.32642e-06
1600.67	0.580811	-7.47681e-06
1601.57	0.581299	3.74146e-05
1602.41	0.580933	-1.19019e-05
1603.31	0.581085	-9.91821e-06
1604.21	0.581146	1.33667e-05
1605.05	0.580811	-1.18103e-05
1605.95	0.579895	-1.92261e-06
1606.85	0.581207	3.20435e-06
1607.69	0.58136	-1.3031e-05
1608.59	0.58136	-1.01929e-05
1609.49	0.580505	2.7771e-06
1610.33	0.579773	-3.14331e-06
1611.23	0.580841	-1.15051e-05
1612.13	0.579834	6.92749e-06
1612.97	0.5802	-7.2937e-06
1613.87	0.580841	-9.42993e-06
1614.77	0.579834	-6.10352e-08
1615.63	-0.697937	-0.0187561
1616.51	0.581238	-1.17798e-05
1617.41	0.580139	-5.49316e-07
1618.27	-0.698578	-0.0103943
1619.15	0.580078	-4.48608e-06
1620.05	0.581268	-9.12476e-06
1620.93	0.000378418	0.0108368
1621.79	0.580048	-3.57056e-06
1622.69	0.580414	-3.54004e-06
1623.57	0.00128479	0.00454834
1624.43	0.580658	-8.42285e-06
1625.33	0.581207	-1.0437e-05
1626.23	0.579742	0.0092926
1627.07	0.580719	-1.09558e-05
1627.97	0.580475	-6.46973e-06
1628.87	0.580627	4.17175e-05
1629.71	0.580933	-1.14746e-05
1630.61	0.579895	-1.28174e-06
1631.51	0.580322	1.74866e-05
1632.35	0.580627	-6.95801e-06
1633.25	0.579956	-2.16675e-06
1634.15	0.580505	8.3313e-06
1634.99	0.580231	-6.01196e-06
1635.89	0.580383	-1.98364e-06
1636.79	0.581177	-3.75366e-06
1637.63	0.581329	-1.26953e-05
1638.53	0.580841	-9.49097e-06
1639.43	0.580109	1.40381e-06
1640.27	0.580048	-4.21143e-06
1641.17	0.580017	-2.04468e-06
1642.07	0.580231	-6.10352e-07
1642.93	-0.697968	-0.0188904
1643.81	0.58078	-9.64355e-06
1644.71	0.579926	1.2207e-06
1645.57	-0.697052	-0.0105347
1646.45	0.580261	-5.58472e-06
1647.35	0.580383	-3.32642e-06
1648.23	0.00185852	0.0108368
1649.09	0.579926	-3.32642e-06
1649.99	0.579926	3.05176e-08
1650.87	0.000585937	0.00461151
1651.73	0.580688	-8.60596e-06
1652.63	0.580231	-3.08228e-06
1653.53	0.581055	0.00979919
1654.37	0.579742	-1.49536e-06
1655.27	0.580109	-8.8501e-07
1656.17	0.580963	4.04358e-05
1657.01	0.579865	-2.22778e-06
1657.91	0.58136	-1.22986e-05
1658.81	0.580658	1.78833e-05
1659.65	0.581177	-1.24512e-05
1660.55	0.580017	-2.7771e-06
1661.45	0.580048	9.79614e-06
1662.29	0.579895	-4.27246e-06
1663.19	0.580231	-3.93677e-06
1664.09	0.580811	2.41089e-06
1664.93	0.581024	-1.24207e-05
1665.83	0.58078	-7.87354e-06
1666.73	0.580231	2.56348e-06
1667.57	0.580872	-1.05286e-05
1668.47	0.579865	-2.34985e-06
1669.37	0.579834	2.99072e-06
1670.23	-0.696991	-0.0190308
1671.11	0.581146	-1.171875E-05
1672.01	0.581085	-7.1106e-06
1672.87	-0.698425	-0.0106567
1673.75	0.580078	-4.24194e-06
1674.65	0.579895	1.34277e-06
1675.53	0.000506592	0.0108337
1676.39	0.579834	-1.61743e-06
1677.29	0.579956	-3.08228e-06
1678.17	0.0015564	0.00467621
1679.03	0.58017	-8.27026e-06
1679.93	0.580505	-8.63647e-06
1680.83	0.581055	0.0102448
1681.67	0.581238	-1.47095e-05
1682.57	0.581268	-1.23291e-05
1683.47	0.579956	4.76379e-05
1684.31	0.581207	-1.35193e-05
1685.21	0.579926	-2.74658e-06
1686.11	0.579895	2.33459e-05
1686.95	0.581238	-1.26648e-05
1687.85	0.580994	-1.1322e-05
1688.75	0.580383	9.27734e-06
1689.59	0.581268	-1.40381e-05
1690.49	0.579865	-1.34277e-06
1691.39	0.58075	9.15527e-08
1692.23	0.580292	-6.56128e-06
1693.13	0.581207	-1.18408e-05
1694.03	0.579895	5.95093e-06
1694.87	0.579865	-3.57056e-06
1695.77	0.581085	-1.18713e-05
1696.67	0.579834	3.63159e-06
1697.53	-0.697845	-0.0191895
1698.41	0.581085	-1.20544e-05
1699.31	0.579834	1.89209e-06
1700.17	-0.698029	-0.0108002
1701.05	0.579895	-2.68555e-06
1701.95	0.580963	-7.50732e-06
1702.83	0.00137939	0.0108582
1703.69	0.581146	-9.82666e-06
1704.59	0.579803	-2.13623e-07
1705.47	0.0019165	0.00474457
1706.33	0.580231	-6.28662e-06
1707.23	0.580475	-6.40869e-06
1708.13	0.579559	0.0106323
1708.97	0.580933	-1.2207e-05
1709.87	0.579987	-3.23486e-06
1710.77	0.579987	5.0415e-05
1711.61	0.579926	-4.3335e-06
1712.51	0.581177	-1.1261e-05
1713.41	0.579895	2.24915e-05
1714.25	0.579895	-4.88281e-06
1715.15	0.581207	-1.2146e-05
1716.05	0.579865	1.37634e-05
1716.89	0.580078	-6.95801e-06
1717.79	0.58017	-4.76074e-06
1718.69	0.581024	7.62939e-07
1719.53	0.58017	-6.28662e-06
1720.43	0.580353	-7.78198e-06
1721.33	0.580872	-9.76562e-07
1722.17	0.580627	-9.58252e-06
1723.07	0.581207	-1.27563e-05
1723.97	0.580536	-5.79834e-07
1724.83	-0.696716	-0.0193207
1725.71	0.579742	-3.479e-06
1726.61	0.580566	-1.80054e-06
1727.47	-0.698212	-0.0109283
1728.35	0.58078	-1.2207e-05
1729.25	0.581329	-9.49097e-06
1730.13	0.000952148	0.0108551
1730.99	0.579834	-2.44141e-06
1731.89	0.579865	5.49316e-07
1732.77	0.000881958	0.00481171
1733.63	0.581207	-1.297e-05
1734.53	0.581268	-9.61304e-06
1735.43	0.580017	0.0109619
1736.27	0.579834	-3.20435e-06
1737.17	0.581207	-1.08337e-05
1738.07	0.580597	4.61731e-05
1738.91	0.580627	-9.12476e-06
1739.81	0.580658	-6.83594e-06
1740.71	0.580566	1.95923e-05
1741.55	0.581299	-1.48315e-05
1742.45	0.579865	-4.57764e-07
1743.35	0.581177	4.45557e-06
1744.19	0.580902	-1.28784e-05
1745.09	0.580292	-4.73022e-06
1745.99	0.581268	-1.5564e-06
1746.83	0.581238	-1.51367e-05
1747.73	0.579987	-3.479e-06
1748.63	0.580902	-8.23975e-07
1749.47	0.579926	-4.15039e-06
1750.37	0.579681	-3.11279e-06
1751.27	0.579773	3.96729e-06
1752.13	-0.697479	-0.0194489
1753.01	0.580872	-1.32751e-05
1753.91	0.581299	-9.15527e-06
1754.77	-0.697449	-0.0110474
1755.65	0.581207	-1.20544e-05
1756.55	0.580841	-4.82178e-06
1757.43	0.000430298	0.0108521
1758.29	0.579956	-3.90625e-06
1759.19	0.580109	-1.25122e-06
1760.07	0.00085144	0.00486664
1760.93	0.58075	-1.05286e-05
1761.83	0.579987	-1.34277e-06
1762.73	0.580841	0.011261
1763.57	0.580414	-6.53076e-06
1764.47	0.58017	-3.2959e-06
1765.37	0.580688	4.69055e-05
1766.21	0.579865	-3.2959e-06
1767.11	0.581238	-9.3689e-06
1768.01	0.580139	2.30103e-05
1768.85	0.579803	-4.54712e-06
1769.75	0.581299	-1.14441e-05
1770.65	0.579834	1.39771e-05
1771.49	0.580322	-7.14111e-06
1772.39	0.58078	-9.09424e-06
1773.29	0.580048	7.90405e-06
1774.13	0.579865	-5.37109e-06
1775.03	0.581268	-1.16272e-05
1775.93	0.579987	4.5166e-06
1776.77	0.580078	-8.27026e-06
1777.67	0.579865	-1.12915e-06
1778.57	0.579865	4.79126e-06
1779.43	-0.696777	-0.019577
1780.31	0.581024	-9.52148e-06
1781.21	0.581329	-6.71387e-06
1782.07	-0.698273	-0.0111725
1782.95	0.580597	-8.63647e-06
1783.85	0.580353	-2.19727e-06
1784.73	0.000418091	0.0108459
1785.59	0.579834	-2.19727e-06
1786.49	0.580963	-8.39233e-06
1787.37	0.00203552	0.00491455
1788.23	0.581146	-1.23596e-05
1789.13	0.5802	-3.23486e-06
1790.03	0.580688	0.0115356
1790.87	0.581116	-1.00708e-05
1791.77	0.580017	-2.19727e-06
1792.67	0.581024	4.64172e-05
1793.51	0.581268	-1.34583e-05
1794.41	0.581299	-9.67407e-06
1795.31	0.581146	1.32751e-05
1796.15	0.579773	-3.9978e-06
1797.05	0.581207	-1.19019e-05
1797.95	0.579834	1.33057e-05
1798.79	0.579803	-2.28882e-06
1799.69	0.579865	-1.92261e-06
1800.59	0.580475	3.78418e-06
1801.43	0.581177	-1.48315e-05
1802.33	0.581299	-1.00708e-05
1803.23	0.579926	5.09644e-06
1804.07	0.579803	-3.72314e-06
1804.97	0.581207	-1.33362e-05
1805.87	0.579712	4.15039e-06
1806.73	-0.697845	-0.0196991
1807.61	0.580719	-9.82666e-06
1808.51	0.581299	-9.18579e-06
1809.37	-0.698456	-0.0113037
1810.25	0.581146	-1.06506e-05
1811.15	0.580566	-4.21143e-06
1812.03	0.000479126	0.0108276
1812.89	0.581085	-1.22681e-05
1813.79	0.579956	6.10352e-07
1814.67	0.000704956	0.00496704
1815.53	0.581146	-1.19019e-05
1816.43	0.58078	-5.58472e-06
1817.33	0.579529	0.0117889
1818.17	0.581024	-1.03455e-05
1819.07	0.580048	-1.95313e-06
1819.97	0.581299	4.46167e-05
1820.81	0.580719	-9.42993e-06
1821.71	0.580994	-9.552e-06
1822.61	0.579987	2.52991e-05
1823.45	0.579926	-3.23486e-06
1824.35	0.580994	-1.14441e-05
1825.25	0.580353	1.14441e-05
1826.09	0.580078	-7.62939e-06
1826.99	0.579987	-2.86865e-06
1827.89	0.580872	-2.13623e-07
1828.73	0.581238	-1.49841e-05
1829.63	0.581421	-1.35193e-05
1830.53	0.579742	5.82886e-06
1831.37	0.581116	-1.13525e-05
1832.27	0.579803	-2.38037e-06
1833.17	0.581238	-4.27246e-06
1834.03	-0.696716	-0.0198273
1834.91	0.579987	-3.17383e-06
1835.81	0.581055	-5.79834e-06
1836.67	-0.697083	-0.0114502
1837.55	0.581146	-1.24512e-05
1838.45	0.579956	-4.88281e-07
1839.33	0.000961304	0.0108063
1840.19	0.580414	-7.87354e-06
1841.09	0.58136	-1.09863e-05
1841.97	0.00198059	0.00498749
1842.83	0.581207	-1.20544e-05
1843.73	0.580109	-1.52588e-06
1844.63	0.579376	0.0120148
1845.47	0.579895	-3.84521e-06
1846.37	0.581055	-9.61304e-06
1847.27	0.58017	5.59998e-05
1848.11	0.580139	-3.44849e-06
1849.01	0.580475	-5.61523e-06
1849.91	0.580597	1.93481e-05
1850.75	0.579956	-3.14331e-06
1851.65	0.579865	-1.92261e-06
1852.55	0.580231	1.12915e-05
1853.39	0.579926	-2.22778e-06
1854.29	0.580139	-6.10352e-06
1855.19	0.581299	-9.76562e-07
1856.03	0.579773	-2.2583e-06
1856.93	0.579803	-4.82178e-06
1857.83	0.579956	5.82886e-06
1858.67	0.580017	-2.04468e-06
1859.57	0.579742	-4.18091e-06
1860.47	0.580048	3.66211e-07
1861.33	-0.697723	-0.0199402
1862.21	0.579803	-2.59399e-06
1863.11	0.579987	2.74658e-06
1863.97	-0.697205	-0.0115692
1864.85	0.579926	-3.38745e-06
1865.75	0.580475	-3.479e-06
1866.63	0.00038147	0.0107697
1867.49	0.581207	-1.24207e-05
1868.39	0.580902	-6.22559e-06
1869.27	0.00193787	0.00501709
1870.13	0.579926	-2.74658e-06
1871.03	0.581024	-7.87354e-06
1871.93	0.580383	0.0122314
1872.77	0.580688	-6.56128e-06
1873.67	0.581329	-1.20544e-05
1874.57	0.580902	5.00183e-05
1875.41	0.581024	-1.09863e-05
1876.31	0.580414	-5.95093e-06
1877.21	0.581085	1.66931e-05
1878.05	0.581238	-1.297e-05
1878.95	0.579803	-3.20435e-06
1879.85	0.581238	3.93677e-06
1880.69	0.580902	-1.25732e-05
1881.59	0.579895	-1.70898e-06
1882.49	0.580719	3.44849e-06
1883.33	0.58078	-1.26038e-05
1884.23	0.581268	-1.12e-05
1885.13	0.581268	-3.2959e-06
1885.97	0.580658	-9.3689e-06
1886.87	0.579956	-2.56348e-06
1887.77	0.580444	-2.83813e-06
1888.63	-0.69696	-0.0200775
1889.51	0.581146	-1.17798e-05
1890.41	0.580688	-4.60815e-06
1891.27	-0.698425	-0.0117065
1892.15	0.580505	-9.42993e-06
1893.05	0.581238	-9.12476e-06
1893.93	0.00154419	0.0107391
1894.79	0.579956	-3.60107e-06
1895.69	0.581085	-8.36182e-06
1896.57	0.00196838	0.00504517
1897.43	0.580475	-9.15527e-06
1898.33	0.580658	-5.15747e-06
1899.23	0.579895	0.0124329
1900.07	0.581085	-1.2146e-05
1900.97	0.581055	-1.02844e-05
1901.87	0.579987	5.96008e-05
1902.71	0.581207	-1.30615e-05
1903.61	0.581268	-1.06506e-05
1904.51	0.581268	1.59302e-05
1905.35	0.58017	-4.94385e-06
1906.25	0.581085	-1.00708e-05
1907.15	0.581116	4.88281e-06
1907.99	0.580566	-8.30078e-06
1908.89	0.581085	-1.04675e-05
1909.79	0.580139	7.04956e-06
1910.63	0.581238	-1.54114e-05
1911.53	0.580505	-5.5542e-06
1912.43	0.580048	5.70679e-06
1913.27	0.580933	-1.26343e-05
1914.17	0.580566	-8.36182e-06
1915.07	0.580139	2.56348e-06
1915.93	-0.697876	-0.0201782
1916.81	0.580231	-3.26538e-06
1917.71	0.579773	3.90625e-06
1918.57	-0.697723	-0.0118164
1919.45	0.580383	-4.30298e-06
1920.35	0.581024	-4.30298e-06
1921.23	0.00171509	0.0107178
1922.09	0.580048	-3.96729e-06
1922.99	0.580505	-4.66919e-06
1923.87	0.000640869	0.00508545
1924.73	0.579926	-3.2959e-06
1925.63	0.580261	-2.31934e-06
1926.53	0.58075	0.0126007
1927.37	0.580048	-5.24902e-06
1928.27	0.580322	-5.0354e-06
1929.17	0.580811	5.36804e-05
1930.01	0.580109	-5.06592e-06
1930.91	0.579895	-1.37329e-06
1931.81	0.580048	2.4231e-05
1932.65	0.580933	-1.01318e-05
1933.55	0.579956	-1.86157e-06
1934.45	0.580017	1.36414e-05
1935.29	0.580963	-1.16272e-05
1936.19	0.581024	-1.00098e-05
1937.09	0.581268	-9.46045e-07
1937.93	0.579926	-4.60815e-06
1938.83	0.580139	-4.36401e-06
1939.73	0.58017	4.42505e-06
1940.57	0.581177	-1.36108e-05
1941.47	0.581207	-1.2085e-05
1942.37	0.580902	-2.53296e-06
1943.23	-0.697479	-0.0202728
1944.11	0.580444	-8.08716e-06
1945.01	0.579926	1.7395e-06
1945.87	-0.697083	-0.0119415
1946.75	0.581116	-1.17798e-05
1947.65	0.579987	1.52588e-06
1948.53	0.00140076	0.0107025
1949.39	0.580963	-8.81958e-06
1950.29	0.580048	7.62939e-07
1951.17	0.00115051	0.00511292
1952.03	0.581268	-1.33362e-05
1952.93	0.579895	-1.80054e-06
1953.83	0.58075	0.0127655
1954.67	0.579773	-3.50952e-06
1955.57	0.581268	-7.72095e-06
1956.47	0.580322	5.77393e-05
1957.31	0.580566	-8.42285e-06
1958.21	0.579987	3.05176e-08
1959.11	0.581329	1.46484e-05
1959.95	0.579865	-2.50244e-06
1960.85	0.580292	-5.88989e-06
1961.75	0.581238	5.40161e-06
1962.59	0.580017	-4.3335e-06
1963.49	0.580597	-5.37109e-06
1964.39	0.581268	-1.34277e-06
1965.23	0.580841	-1.06812e-05
1966.13	0.581238	-1.22681e-05
1967.03	0.580688	1.25122e-06
1967.87	0.580933	-1.19019e-05
1968.77	0.581268	-1.29395e-05
1969.67	0.579956	2.71606e-06
1970.53	-0.697815	-0.0203705
1971.41	0.581268	-1.19629e-05
1972.31	0.579865	1.67847e-06
1973.17	-0.697815	-0.0120514
1974.05	0.580902	-8.72803e-06
1974.95	0.580658	-2.80762e-06
1975.83	0.000592041	0.0106689
1976.69	0.580627	-9.82666e-06
1977.59	0.580566	-4.63867e-06
1978.47	0.00195618	0.0051416
1979.33	0.581116	-1.23596e-05
1980.23	0.580963	-7.50732e-06
1981.13	0.579742	0.0129272
1981.97	0.580627	-7.44629e-06
1982.87	0.580902	-8.8501e-06
1983.77	0.580811	5.78308e-05
1984.61	0.581207	-1.29089e-05
1985.51	0.579926	-1.77002e-06
1986.41	0.580658	2.12097e-05
1987.25	0.58136	-1.45874e-05
1988.15	0.579834	-3.2959e-06
1989.05	0.579742	1.75171e-05
1989.89	0.580048	-3.35693e-06
1990.79	0.580841	-1.02539e-05
1991.69	0.579773	9.64355e-06
1992.53	0.579987	-4.15039e-06
1993.43	0.580048	-2.65503e-06
1994.33	0.580933	-4.5166e-06
1995.17	0.579956	-4.15039e-06
1996.07	0.580566	-7.01904e-06
1996.97	0.581116	-4.79126e-06
1997.83	-0.696442	-0.0204742
1998.71	0.580902	-1.0498e-05
1999.61	0.579895	2.68555e-06
2000.47	-0.69696	-0.0121521
2001.35	0.580048	-4.11987e-06
2002.25	0.581238	-8.57544e-06
2003.13	0.00173035	0.0106476
2003.99	0.580811	-8.75854e-06
2004.89	0.581055	-7.32422e-06
2005.77	0.000598145	0.00517609
2006.63	0.580658	-1.09558e-05
2007.53	0.580292	-5.09644e-06
2008.43	0.579498	0.0130951
2009.27	0.580902	-9.3689e-06
2010.17	0.580902	-9.73511e-06
2011.07	0.581207	5.83801e-05
2011.91	0.581207	-1.37329e-05
2012.81	0.580048	-2.16675e-06
2013.71	0.579956	2.60925e-05
2014.55	0.581299	-1.42822e-05
2015.45	0.580078	-2.92969e-06
2016.35	0.581268	4.54712e-06
2017.19	0.580658	-1.05286e-05
2018.09	0.579865	-2.86865e-06
2018.99	0.581146	1.7395e-06
2019.83	0.580719	-1.15051e-05
2020.73	0.580414	-8.27026e-06
2021.63	0.580963	-1.15967e-06
2022.47	0.580811	-1.25732e-05
2023.37	0.58136	-1.35498e-05
2024.27	0.580627	4.88281e-07
2025.13	-0.696472	-0.0205841
2026.01	0.580902	-1.31531e-05
2026.91	0.581207	-3.93677e-06
2027.77	-0.698303	-0.0122711
2028.65	0.581238	-1.14441e-05
2029.55	0.58139	-9.91821e-06
2030.43	0.00124512	0.0106384
2031.29	0.580505	-9.12476e-06
2032.19	0.581299	-9.06372e-06
2033.07	0.000570679	0.00521057
2033.93	0.581268	-1.37939e-05
2034.83	0.581299	-1.08032e-05
2035.73	0.579773	0.0132416
2036.57	0.580048	-4.21143e-06
2037.47	0.580231	-3.84521e-06
2038.37	0.580261	6.83594e-05
2039.21	0.579956	-3.50952e-06
2040.11	0.580933	-8.66699e-06
2041.01	0.581238	1.77612e-05
2041.85	0.580109	-5.18799e-06
2042.75	0.580811	-8.08716e-06
2043.65	0.581146	7.47681e-06
2044.49	0.580902	-1.03149e-05
2045.39	0.580933	-8.91113e-06
2046.29	0.5802	9.39941e-06
2047.13	0.580627	-7.32422e-06
2048.03	0.580261	-4.82178e-06
2048.93	0.579834	8.08716e-06
2049.77	0.580078	-5.12695e-06
2050.67	0.581146	-1.39465e-05
2051.57	0.580383	9.46045e-07
2052.43	-0.696655	-0.0206757
2053.31	0.580566	-9.15527e-06
2054.21	0.580963	-5.21851e-06
2055.07	-0.698303	-0.0123718
2055.95	0.581238	-1.3916e-05
2056.85	0.580841	-3.93677e-06
2057.73	0.00168457	0.0106079
2058.59	0.580536	-5.85937e-06
2059.49	0.581329	-1.06506e-05
2060.37	0.000613403	0.00523468
2061.23	0.5802	-2.83813e-06
2062.13	0.580414	-5.09644e-06
2063.03	0.57962	0.013382
2063.87	0.581329	-1.39465e-05
2064.77	0.581329	-1.13831e-05
2065.67	0.579773	7.59583e-05
2066.51	0.580048	-3.8147e-06
2067.41	0.580933	-8.48389e-06
2068.31	0.581055	1.80054e-05
2069.15	0.58075	-1.01013e-05
2070.05	0.580841	-8.88062e-06
2070.95	0.581146	7.69043e-06
2071.79	0.579834	-2.96021e-06
2072.69	0.580078	-3.54004e-06
2073.59	0.580902	2.50244e-06
2074.43	0.580627	-1.07117e-05
2075.33	0.580322	-5.24902e-06
2076.23	0.580841	3.05176e-08
2077.07	0.580353	-5.27954e-06
2077.97	0.580872	-1.01929e-05
2078.87	0.581268	-5.06592e-06
2079.73	-0.697327	-0.0207397
2080.61	0.5802	-5.31006e-06
2081.51	0.581146	-6.5918e-06
2082.37	-0.697083	-0.0124878
2083.25	0.580292	-6.40869e-06
2084.15	0.579987	1.00708e-06
2085.03	0.000408936	0.0105835
2085.89	0.580231	-6.80542e-06
2086.79	0.580566	-5.12695e-06
2087.67	0.00143433	0.005242
2088.53	0.579773	-2.19727e-06
2089.43	0.580109	-1.34277e-06
2090.33	0.579224	0.013504
2091.17	0.579865	-2.31934e-06
2092.07	0.581238	-1.0376e-05
2092.97	0.580505	7.40051e-05
2093.81	0.581116	-9.15527e-06
2094.71	0.580811	-9.91821e-06
2095.61	0.579803	2.71301e-05
2096.45	0.581116	-1.35803e-05
2097.35	0.580048	-2.2583e-06
2098.25	0.581055	1.05591e-05
2099.09	0.581177	-1.40076e-05
2099.99	0.580231	-4.3335e-06
2100.89	0.579803	9.42993e-06
2101.73	0.581268	-1.36719e-05
2102.63	0.581299	-1.17493e-05
2103.53	0.580933	-3.96729e-07
2104.37	0.580872	-1.00708e-05
2105.27	0.580536	-5.27954e-06
2106.17	0.581238	-6.50024e-06
2107.03	-0.697327	-0.0208038
2107.91	0.580505	-5.88989e-06
2108.81	0.579956	2.41089e-06
2109.67	-0.69696	-0.0125763
2110.55	0.579926	-1.19019e-06
2111.45	0.580994	-7.14111e-06
2112.33	0.00154724	0.0105621
2113.19	0.581024	-1.10168e-05
2114.09	0.579956	-3.05176e-07
2114.97	0.00192871	0.00526154
2115.83	0.580261	-5.21851e-06
2116.73	0.580994	-7.93457e-06
2117.63	0.580597	0.0136169
2118.47	0.5802	-4.21143e-06
2119.37	0.580841	-5.85937e-06
2120.27	0.581329	7.32117e-05
2121.11	0.58078	-1.01318e-05
2122.01	0.580933	-9.0332e-06
2122.91	0.580292	2.30713e-05
2123.75	0.579803	-2.41089e-06
2124.65	0.580475	-6.65283e-06
2125.55	0.5802	1.297e-05
2126.39	0.580353	-4.27246e-06
2127.29	0.580963	-1.07117e-05
2128.19	0.580109	7.78198e-06
2129.03	0.581299	-1.50146e-05
2129.93	0.581421	-1.12e-05
2130.83	0.58136	-4.5166e-06
2131.67	0.580078	-5.43213e-06
2132.57	0.579773	-3.02124e-06
2133.47	0.579742	3.57056e-06
2134.33	-0.696777	-0.0209106
2135.21	0.579956	-2.65503e-06
2136.11	0.579895	-1.09863e-06
2136.97	-0.697388	-0.0126862
2137.85	0.580536	-7.14111e-06
2138.75	0.580994	-6.89697e-06
2139.63	0.000338745	0.0105408
2140.49	0.581116	-9.765625E-06
2141.39	0.581299	-1.01013e-05
2142.27	0.000823975	0.00529083
2143.13	0.581238	-1.33972e-05
2144.03	0.580627	-5.67627e-06
2144.93	0.579437	0.0137604
2145.77	0.580231	-5.09644e-06
2146.67	0.580109	-3.44849e-06
2147.57	0.58017	8.96912e-05
2148.41	0.580414	-7.44629e-06
2149.31	0.580261	-4.85229e-06
2150.21	0.580505	2.17285e-05
2151.05	0.580139	-6.22559e-06
2151.95	0.581299	-1.18103e-05
2152.85	0.580414	1.16882e-05
2153.69	0.581177	-1.16882e-05
2154.59	0.580566	-6.92749e-06
2155.49	0.579895	1.05591e-05
2156.33	0.580353	-7.56836e-06
2157.23	0.580078	-3.479e-06
2158.13	0.580231	3.93677e-06
2158.97	0.580414	-6.71387e-06
2159.87	0.579773	-1.58691e-06
2160.77	0.579834	3.63159e-06
2161.63	-0.696533	-0.0209778
2162.51	0.580658	-8.69751e-06
2163.41	0.580475	-1.00708e-06
2164.27	-0.698303	-0.0127686
2165.15	0.580414	-6.43921e-06
2166.05	0.581116	-5.95093e-06
2166.93	0.00152893	0.0105072
2167.79	0.5802	-2.16675e-06
2168.69	0.581268	-9.0332e-06
2169.57	0.00148621	0.0053067
2170.43	0.579803	-3.41797e-06
2171.33	0.580109	-1.92261e-06
2172.23	0.579224	0.0138702
2173.07	0.580261	-8.78906e-06
2173.97	0.580109	-1.28174e-06
2174.87	0.581299	8.74634e-05
2175.71	0.580048	-2.68555e-06
2176.61	0.579803	3.35693e-07
2177.51	0.579987	3.02429e-05
2178.35	0.580322	-6.74438e-06
2179.25	0.581146	-1.00403e-05
2180.15	0.580505	1.474e-05
2180.99	0.579895	-3.35693e-06
2181.89	0.581085	-1.06201e-05
2182.79	0.579956	1.02539e-05
2183.63	0.580566	-7.96509e-06
2184.53	0.580597	-8.20923e-06
2185.43	0.580414	3.93677e-06
2186.27	0.580261	-6.46973e-06
2187.17	0.580627	-6.71387e-06
2188.07	0.580658	-1.19019e-06
2188.93	-0.696808	-0.0210632
2189.81	0.580261	-6.04248e-06
2190.71	0.581146	-4.30298e-06
2191.57	-0.69812	-0.0128693
2192.45	0.580566	-8.60596e-06
2193.35	0.580353	-1.58691e-06
2194.23	0.000378418	0.010498
2195.09	0.581299	-1.42212e-05
2195.99	0.580688	-5.0354e-06
2196.87	0.00154724	0.00533142
2197.73	0.579803	-4.11987e-06
2198.63	0.580292	-1.12915e-06
2199.53	0.580475	0.0139648
2200.37	0.580353	-5.49316e-06
2201.27	0.58075	-7.78198e-06
2202.17	0.579926	0.000103912
2203.01	0.581238	-1.46179e-05
2203.91	0.581268	-1.21765e-05
2204.81	0.580933	2.0752e-05
2205.65	0.581207	-1.23901e-05
2206.55	0.580383	-4.57764e-06
2207.45	0.581024	8.23975e-06
2208.29	0.580292	-9.42993e-06
2209.19	0.580292	-2.89917e-06
2210.09	0.579865	1.18408e-05
2210.93	0.580261	-5.09644e-06
2211.83	0.581055	-7.38525e-06
2212.73	0.580902	-7.93457e-07
2213.57	0.579895	-5.46265e-06
2214.47	0.579773	-9.76562e-07
2215.37	0.580078	5.27954e-06
2216.23	-0.69696	-0.0211304
2217.11	0.580353	-1.7395e-06
2218.01	0.579773	3.20435e-06
2218.87	-0.698303	-0.0129425
2219.75	0.580475	-7.14111e-06
2220.65	0.581421	-7.14111e-06
2221.53	0.00124817	0.0104675
2222.39	0.579895	-3.26538e-06
2223.29	0.580627	-4.60815e-06
2224.17	0.00168457	0.00535614
2225.03	0.580231	-8.02612e-06
2225.93	0.581268	-8.94165e-06
2226.83	0.580414	0.0140717
2227.67	0.580322	-6.37817e-06
2228.57	0.581268	-1.0376e-05
2229.47	0.579865	0.000112793
2230.31	0.581024	-1.2085e-05
2231.21	0.581268	-1.02844e-05
2232.11	0.579956	2.92053e-05
2232.95	0.580444	-8.3313e-06
2233.85	0.580627	-7.1106e-06
2234.75	0.580536	1.08643e-05
2235.59	0.580444	-7.17163e-06
2236.49	0.581299	-1.08643e-05
2237.39	0.580902	3.35693e-06
2238.23	0.580658	-8.3313e-06
2239.13	0.580383	-4.91333e-06
2240.03	0.579895	7.53784e-06
2240.87	0.580139	-6.19507e-06
2241.77	0.5802	-4.45557e-06
2242.67	0.580109	2.62451e-06
2243.53	-0.696777	-0.0211945
2244.41	0.580353	-5.58472e-06
2245.31	0.581268	-7.26318e-06
2246.17	-0.697388	-0.0130371
2247.05	0.580292	-5.46265e-06
2247.95	0.581024	-5.37109e-06
2248.83	0.00119019	0.0104614
2249.69	0.579895	-2.28882e-06
2250.59	0.580017	-6.40869e-07
2251.47	0.00207214	0.00536987
2252.33	0.579865	-2.0752e-06
2253.23	0.5802	-9.46045e-07
2254.13	0.580322	0.0141815
2254.97	0.580536	-6.40869e-06
2255.87	0.581268	-9.91821e-06
2256.77	0.581085	0.000113098
2257.61	0.580505	-8.88062e-06
2258.51	0.580933	-8.36182e-06
2259.41	0.580505	2.51465e-05
2260.25	0.580566	-9.00269e-06
2261.15	0.580872	-6.92749e-06
2262.05	0.579895	1.65405e-05
2262.89	0.579926	-2.47192e-06
2263.79	0.579773	-1.28174e-06
2264.69	0.580353	7.32422e-06
2265.53	0.579773	-2.19727e-06
2266.43	0.580048	-5.31006e-06
2267.33	0.579803	7.90405e-06
2268.17	0.581238	-1.23596e-05
2269.07	0.580872	-6.37817e-06
2269.97	0.579773	4.66919e-06
2270.83	-0.697723	-0.0212524
2271.71	0.581116	-9.15527e-06
2272.61	0.580017	-2.13623e-07
2273.47	-0.697662	-0.0131165
2274.35	0.581146	-1.0437e-05
2275.25	0.580139	1.77002e-06
2276.13	0.000506592	0.0104279
2276.99	0.581268	-1.26953e-05
2277.89	0.580414	-2.56348e-06
2278.77	0.00188293	0.00539032
2279.63	0.579865	-3.66211e-06
2280.53	0.579987	-5.18799e-07
2281.43	0.579224	0.0143005
2282.27	0.580658	-6.83594e-06
2283.17	0.581207	-1.0437e-05
2284.07	0.580109	0.000131195
2284.91	0.579956	-3.02124e-06
2285.81	0.581238	-1.02844e-05
2286.71	0.580383	2.75574e-05
2287.55	0.580688	-7.69043e-06
2288.45	0.579987	-1.64795e-06
2289.35	0.579956	1.5564e-05
2290.19	0.580872	-1.11389e-05
2291.09	0.580231	-5.82886e-06
2291.99	0.579834	1.02539e-05
2292.83	0.581085	-1.22986e-05
2293.73	0.579956	-3.11279e-06
2294.63	0.581268	-1.77002e-06
2295.47	0.58017	-6.43921e-06
2296.37	0.581024	-1.04675e-05
2297.27	0.581085	-3.38745e-06
2298.13	-0.697388	-0.0213043
2299.01	0.58017	-4.69971e-06
2299.91	0.579803	2.50244e-06
2300.77	-0.697021	-0.0132202
2301.65	0.581299	-1.28174e-05
2302.55	0.580658	-3.02124e-06
2303.43	0.000558472	0.0104309
2304.29	0.579865	-2.80762e-06
2305.19	0.580933	-7.53784e-06
2306.07	0.000897217	0.00541962
2306.93	0.580872	-1.0376e-05
2307.83	0.579926	-2.0752e-06
2308.73	0.579193	0.0143921
2309.57	0.580872	-1.06201e-05
2310.47	0.580261	-3.2959e-06
2311.37	0.579865	0.000146515
2312.21	0.58078	-1.0376e-05
2313.11	0.580841	-7.62939e-06
2314.01	0.581207	2.09961e-05
2314.85	0.581024	-1.00403e-05
2315.75	0.581299	-1.02234e-05
2316.65	0.580139	1.37939e-05
2317.49	0.58075	-5.43213e-06
2318.39	0.579742	-1.15967e-06
2319.29	0.579956	9.0332e-06
2320.13	0.580658	-8.45337e-06
2321.03	0.58139	-1.20239e-05
2321.93	0.579987	8.63647e-06
2322.77	0.581146	-1.28479e-05
2323.67	0.58017	-5.92041e-06
2324.57	0.581299	-5.85937e-06
2325.43	-0.696716	-0.0213745
2326.31	0.580658	-9.24683e-06
2327.21	0.580933	-6.01196e-06
2328.07	-0.697388	-0.0132843
2328.95	0.581207	-1.09863e-05
2329.85	0.579865	3.57056e-06
2330.73	0.000354004	0.0104034
2331.59	0.579773	-2.50244e-06
2332.49	0.581116	-7.62939e-06
2333.37	0.0014801	0.00543304
2334.23	0.581207	-1.31531e-05
2335.13	0.579895	1.19019e-06
2336.03	0.580627	0.0144806
2336.87	0.580597	-7.26318e-06
2337.77	0.580994	-6.40869e-06
2338.67	0.579987	0.000157776
2339.51	0.579803	-3.60107e-06
2340.41	0.580933	-9.30786e-06
2341.31	0.5802	2.87781e-05
2342.15	0.581024	-1.2085e-05
2343.05	0.580261	-3.87573e-06
2343.95	0.580322	1.5625e-05
2344.79	0.58078	-9.61304e-06
2345.69	0.58078	-8.81958e-06
2346.59	0.580994	3.87573e-06
2347.43	0.580078	-4.45557e-06
2348.33	0.580139	-4.69971e-06
2349.23	0.579926	7.32422e-06
2350.07	0.580994	-1.17493e-05
2350.97	0.580811	-6.74438e-06
2351.87	0.580597	2.31934e-06
2352.73	-0.697815	-0.0214355
2353.61	0.579956	-3.44849e-06
2354.51	0.5802	1.95313e-06
2355.37	-0.697296	-0.0133667
2356.25	0.580627	-7.50732e-06
2357.15	0.580048	1.00708e-06
2358.03	0.00178833	0.010376
2358.89	0.579956	-3.87573e-06
2359.79	0.580048	-8.8501e-07
2360.67	0.00206909	0.00544281
2361.53	0.581268	-1.34888e-05
2362.43	0.579926	1.83105e-07
2363.33	0.580536	0.0145691
2364.17	0.58078	-1.11084e-05
2365.07	0.580109	-1.95313e-06
2365.97	0.581268	0.000162262
2366.81	0.579803	-3.50952e-06
2367.71	0.580994	-8.20923e-06
2368.61	0.580536	2.82288e-05
2369.45	0.58078	-1.14746e-05
2370.35	0.581268	-1.04065e-05
2371.25	0.581268	8.11768e-06
2372.09	0.580627	-1.21765e-05
2372.99	0.580536	-6.50024e-06
2373.89	0.580261	7.62939e-06
2374.73	0.579865	-3.2959e-06
2375.63	0.580658	-7.41577e-06
2376.53	0.580231	4.18091e-06
2377.37	0.58136	-1.55334e-05
2378.27	0.580048	-1.34277e-06
2379.17	0.581268	-5.82886e-06
2380.03	-0.697113	-0.0215118
2380.91	0.581238	-1.22681e-05
2381.81	0.58078	-1.5564e-06
2382.67	-0.698242	-0.0134491
2383.55	0.581055	-8.72803e-06
2384.45	0.580994	-3.8147e-06
2385.33	0.00169067	0.0103516
2386.19	0.581329	-1.23596e-05
2387.09	0.581329	-9.85718e-06
2387.97	0.000598145	0.00546844
2388.83	0.580627	-1.0376e-05
2389.73	0.580383	-5.70679e-06
2390.63	0.579132	0.0146606
2391.47	0.580383	-8.57544e-06
2392.37	0.581177	-1.06201e-05
2393.27	0.580963	0.000180542
2394.11	0.581299	-1.3916e-05
2395.01	0.580933	-4.69971e-06
2395.91	0.579773	3.25317e-05
2396.75	0.581268	-1.42822e-05
2397.65	0.579773	-1.28174e-06
2398.55	0.579773	1.828e-05
2399.39	0.581268	-1.44043e-05
2400.29	0.580963	-1.12305e-05
2401.19	0.580383	9.64355e-06
2402.03	0.581268	-1.31836e-05
2402.93	0.580261	-5.06592e-06
2403.83	0.580658	5.49316e-07
2404.67	0.580231	-5.82886e-06
2405.57	0.58075	-7.53784e-06
2406.47	0.580444	-1.15967e-06
2407.33	-0.697815	-0.0215637
2408.21	0.579956	-2.38037e-06
2409.11	0.580078	1.2207e-06
2409.97	-0.697449	-0.0135437
2410.85	0.58136	-1.19629e-05
2411.75	0.581268	-8.72803e-06
2412.63	0.00123291	0.0103363
2413.49	0.581024	-1.11084e-05
2414.39	0.580444	-2.13623e-06
2415.27	0.00136108	0.00547913
2416.13	0.580963	-1.07727e-05
2417.03	0.580719	-6.2561e-06
2417.93	0.579742	0.0147491
2418.77	0.580719	-8.57544e-06
2419.67	0.581085	-8.02612e-06
2420.57	0.581085	0.000196503
2421.41	0.580811	-1.01318e-05
2422.31	0.580933	-8.27026e-06
2423.21	0.579834	3.34778e-05
2424.05	0.581177	-1.17798e-05
2424.95	0.581238	-1.01624e-05
2425.85	0.581177	6.53076e-06
2426.69	0.58078	-9.21631e-06
2427.59	0.581085	-1.06201e-05
2428.49	0.580139	1.11084e-05
2429.33	0.580963	-1.27258e-05
2430.23	0.580139	-3.9978e-06
2431.13	0.579865	6.65283e-06
2431.97	0.581177	-1.34888e-05
2432.87	0.579895	-2.10571e-06
2433.77	0.579834	4.73022e-06
2434.63	-0.697693	-0.0216278
2435.51	0.5802	-3.44849e-06
2436.41	0.579895	4.45557e-06
2437.27	-0.69809	-0.01362
2438.15	0.580048	-3.96729e-06
2439.05	0.580872	-5.27954e-06
2439.93	0.000576782	0.010321
2440.79	0.580322	-5.24902e-06
2441.69	0.579895	8.54492e-07
2442.57	0.00141602	0.00548248
2443.43	0.579834	-2.89917e-06
2444.33	0.58075	-5.79834e-06
2445.23	0.580231	0.0148315
2446.07	0.579926	-3.479e-06
2446.97	0.579834	-4.88281e-07
2447.87	0.579987	0.000224854
2448.71	0.581268	-1.36414e-05
2449.61	0.580414	-3.8147e-06
2450.51	0.580933	2.71912e-05
2451.35	0.580231	-5.70679e-06
2452.25	0.581299	-1.05286e-05
2453.15	0.580078	1.83411e-05
2453.99	0.579895	-3.32642e-06
2454.89	0.580933	-7.50732e-06
2455.79	0.580933	3.23486e-06
2456.63	0.580627	-6.31714e-06
2457.53	0.581238	-1.21765e-05
2458.43	0.580536	3.57056e-06
2459.27	0.580627	-8.88062e-06
2460.17	0.580353	-6.13403e-06
2461.07	0.580444	3.66211e-07
2461.93	-0.697144	-0.0216858
2462.81	0.581238	-1.32751e-05
2463.71	0.581238	-6.01196e-06
2464.57	-0.698151	-0.0136902
2465.45	0.580292	-6.80542e-06
2466.35	0.579895	1.5564e-06
2467.23	0.000549316	0.0102692
2468.09	0.58017	-5.12695e-06
2468.99	0.581024	-7.08008e-06
2469.87	0.00168762	0.00547882
2470.73	0.579834	-2.71606e-06
2471.63	0.581207	-9.97925e-06
2472.53	0.579254	0.0148926
2473.37	0.581207	-1.24817e-05
2474.27	0.579865	-2.44141e-07
2475.17	0.581055	0.00023526
2476.01	0.581299	-1.28174e-05
2476.91	0.581055	-9.09424e-06
2477.81	0.581299	2.64587e-05
2478.65	0.580109	-3.78418e-06
2479.55	0.580505	-6.92749e-06
2480.45	0.58017	1.5686e-05
2481.29	0.580597	-9.97925e-06
2482.19	0.581085	-9.46045e-06
2483.09	0.580383	9.06372e-06
2483.93	0.579865	-4.97437e-06
2484.83	0.580261	-5.34058e-06
2485.73	0.580566	2.31934e-06
2486.57	0.581085	-9.52148e-06
2487.47	0.580261	-4.18091e-06
2488.37	0.580048	5.06592e-06
2489.23	-0.697235	-0.0217346
2490.11	0.581085	-1.28479e-05
2491.01	0.579926	3.479e-06
2491.87	-0.697113	-0.0137726
2492.75	0.579865	-2.13623e-06
2493.65	0.580139	-2.13623e-07
2494.53	0.000643921	0.0102386
2495.39	0.580963	-1.06506e-05
2496.29	0.581177	-8.45337e-06
2497.17	0.00132751	0.00548737
2498.03	0.579834	-2.22778e-06
2498.93	0.579956	3.05176e-07
2499.83	0.579224	0.0149628
2500.67	0.579834	-3.20435e-06
2501.57	0.580566	-6.89697e-06
2502.47	0.580261	0.000263214
2503.31	0.581085	-1.05286e-05
2504.21	0.580261	-3.75366e-06
2505.11	0.580872	3.05481e-05
2505.95	0.579956	-4.57764e-06
2506.85	0.581177	-1.00708e-05
2507.75	0.580963	1.05896e-05
2508.59	0.580109	-7.56836e-06
2509.49	0.579834	-7.93457e-07
2510.39	0.581116	3.90625e-06
2511.23	0.579773	-4.15039e-06
2512.13	0.580597	-9.58252e-06
2513.03	0.580017	8.45337e-06
2513.87	0.580139	-8.36182e-06
2514.77	0.580383	-4.5166e-06
2515.67	0.58078	-2.0752e-06
2516.53	-0.697601	-0.0217743
2517.41	0.580261	-2.92969e-06
2518.31	0.579865	4.45557e-06
2519.17	-0.698059	-0.0138489
2520.05	0.58017	-3.38745e-06
2520.95	0.579956	2.04468e-06
2521.83	0.00155945	0.0102051
2522.69	0.580597	-6.04248e-06
2523.59	0.581055	-6.65283e-06
2524.47	0.000869751	0.00548676
2525.33	0.580658	-1.01624e-05
2526.23	0.5802	-2.65503e-06
2527.13	0.579468	0.0150238
2527.97	0.580688	-7.23267e-06
2528.87	0.581207	-1.08337e-05
2529.77	0.58017	0.000286255
2530.61	0.58075	-6.46973e-06
2531.51	0.580292	-6.19507e-06
2532.41	0.580292	3.55225e-05
2533.25	0.580688	-1.16882e-05
2534.15	0.581177	-1.15967e-05
2535.05	0.58075	1.171875E-05
2535.89	0.580872	-1.30005e-05
2536.79	0.58136	-1.26038e-05
2537.69	0.580719	4.48608e-06
2538.53	0.580322	-4.48608e-06
2539.43	0.580292	-3.05176e-06
2540.33	0.580597	3.72314e-06
2541.17	0.580811	-7.2937e-06
2542.07	0.580078	-1.80054e-06
2542.97	0.580414	1.92261e-06
2543.83	-0.69635	-0.0218384
2544.71	0.581268	-1.28174e-05
2545.61	0.580353	-1.5564e-06
2546.47	-0.698181	-0.0139343
2547.35	0.579865	-3.08228e-06
2548.25	0.579834	2.34985e-06
2549.13	0.0016449	0.0101746
2549.99	0.581024	-8.17871e-06
2550.89	0.579865	6.10352e-07
2551.77	0.00193787	0.00547546
2552.63	0.58136	-1.24207e-05
2553.53	0.580139	-8.8501e-07
2554.43	0.579254	0.0150909
2555.27	0.58136	-1.37024e-05
2556.17	0.579742	9.15527e-08
2557.07	0.579926	0.000309967
2557.91	0.581238	-1.34277e-05
2558.81	0.580719	-5.0354e-06
2559.71	0.581177	2.92664e-05
2560.55	0.579865	-4.5166e-06
2561.45	0.581055	-1.02539e-05
2562.35	0.580414	1.62659e-05
2563.19	0.579712	-8.8501e-07
2564.09	0.579773	-7.01904e-07
2564.99	0.581238	2.38037e-06
2565.83	0.58136	-1.24512e-05
2566.73	0.579834	4.88281e-07
2567.63	0.579865	8.8501e-06
2568.47	0.58136	-1.40991e-05
2569.37	0.579742	-1.46484e-06
2570.27	0.580658	-1.09863e-06
2571.13	-0.697388	-0.021875
2572.01	0.581268	-1.00708e-05
2572.91	0.580811	-3.84521e-06
2573.77	-0.696899	-0.0140137
2574.65	0.58136	-1.44958e-05
2575.55	0.581299	-8.42285e-06
2576.43	0.00140991	0.0101288
2577.29	0.579865	-3.23486e-06
2578.19	0.579834	2.96021e-06
2579.07	0.00185852	0.00547333
2579.93	0.580688	-1.2085e-05
2580.83	0.581177	-8.45337e-06
2581.73	0.580505	0.0151459
2582.57	0.579834	-2.74658e-07
2583.47	0.580048	2.44141e-07
2584.37	0.580017	0.000332642
2585.21	0.581177	-1.43433e-05
2586.11	0.579865	-4.27246e-07
2587.01	0.580963	3.33557e-05
2587.85	0.581299	-1.36719e-05
2588.75	0.581268	-1.03455e-05
2589.65	0.580597	1.3092e-05
2590.49	0.580811	-1.10779e-05
2591.39	0.581116	-9.09424e-06
2592.29	0.580048	9.97925e-06
2593.13	0.581085	-1.15051e-05
2594.03	0.580292	-4.54712e-06
2594.93	0.581268	-2.99072e-06
2595.77	0.581177	-1.14136e-05
2596.67	0.580811	-9.09424e-06
2597.57	0.579834	5.27954e-06
2598.43	-0.697784	-0.0219208
2599.31	0.580261	-4.76074e-06
2600.21	0.580963	-3.63159e-06
2601.07	-0.697327	-0.0140747
2601.95	0.580048	-4.3335e-06
2602.85	0.581268	-8.39233e-06
2603.73	0.00108948	0.0101074
2604.59	0.580811	-9.33838e-06
2605.49	0.580963	-6.5918e-06
2606.37	0.00120544	0.00547913
2607.23	0.580566	-7.08008e-06
2608.13	0.581116	-9.30786e-06
2609.03	0.579132	0.0152008
2609.87	0.581329	-1.19629e-05
2610.77	0.580048	-7.01904e-07
2611.67	0.580658	0.000356812
2612.51	0.58078	-9.552e-06
2613.41	0.581207	-1.03149e-05
2614.31	0.580994	3.49426e-05
2615.15	0.580139	-3.17383e-06
2616.05	0.580963	-8.57544e-06
2616.95	0.581177	8.17871e-06
2617.79	0.58075	-8.69751e-06
2618.69	0.58078	-8.3313e-06
2619.59	0.580139	1.01318e-05
2620.43	0.580353	-6.86646e-06
2621.33	0.580536	-5.12695e-06
2622.23	0.579834	7.75146e-06
2623.07	0.580231	-4.57764e-06
2623.97	0.581146	-1.14746e-05
2624.87	0.579895	4.39453e-06
2625.73	-0.697601	-0.0219635
2626.61	0.580566	-6.89697e-06
2627.51	0.580627	-2.59399e-06
2628.37	-0.698059	-0.0141541
2629.25	0.58075	-1.03149e-05
2630.15	0.580414	-7.93457e-07
2631.03	0.00177917	0.0100677
2631.89	0.581238	-1.31226e-05
2632.79	0.580414	-1.40381e-06
2633.67	0.001474	0.00547363
2634.53	0.580017	-4.05884e-06
2635.43	0.580536	-3.69263e-06
2636.33	0.580475	0.0152527
2637.17	0.580505	-7.62939e-06
2638.07	0.579956	6.40869e-07
2638.97	0.579956	0.000387512
2639.81	0.580872	-1.11084e-05
2640.71	0.581329	-1.17493e-05
2641.61	0.580475	4.14429e-05
2642.45	0.579895	-3.26538e-06
2643.35	0.580841	-6.65283e-06
2644.25	0.580261	1.63879e-05
2645.09	0.580353	-6.56128e-06
2645.99	0.581207	-1.08337e-05
2646.89	0.579865	1.2207e-05
2647.73	0.579956	-4.15039e-06
2648.63	0.579956	-2.53296e-06
2649.53	0.580902	3.05176e-07
2650.37	0.580017	-4.08936e-06
2651.27	0.580811	-8.5144e-06
2652.17	0.580322	2.34985e-06
2653.03	-0.69696	-0.0220184
2653.91	0.581268	-1.16577e-05
2654.81	0.580322	-6.71387e-07
2655.67	-0.69751	-0.0142059
2656.55	0.580048	-4.48608e-06
2657.45	0.580872	-5.18799e-06
2658.33	0.00114136	0.0100494
2659.19	0.580017	-4.97437e-06
2660.09	0.581055	-7.47681e-06
2660.97	0.00130615	0.00547302
2661.83	0.580414	-8.14819e-06
2662.73	0.579834	1.77002e-06
2663.63	0.580566	0.0153107
2664.47	0.579926	-4.02832e-06
2665.37	0.580658	-5.7373e-06
2666.27	0.581177	0.000406097
2667.11	0.580902	-1.18103e-05
2668.01	0.581207	-9.82666e-06
2668.91	0.581055	3.93066e-05
2669.75	0.580139	-4.94385e-06
2670.65	0.579865	6.10352e-08
2671.55	0.580383	1.62048e-05
2672.39	0.579803	-1.70898e-06
2673.29	0.581268	-1.01929e-05
2674.19	0.580048	1.0376e-05
2675.03	0.581299	-1.36414e-05
2675.93	0.580933	-9.52148e-06
2676.83	0.580872	4.88281e-07
2677.67	0.579834	-3.57056e-06
2678.57	0.579956	-2.7771e-06
2679.47	0.579865	5.82886e-06
2680.33	-0.697449	-0.0220581
2681.21	0.579926	-1.98364e-06
2682.11	0.580994	-4.11987e-06
2682.97	-0.697052	-0.0142853
2683.85	0.580292	-4.45557e-06
2684.75	0.580627	-3.17383e-06
2685.63	0.000442505	0.0100189
2686.49	0.579987	-3.05176e-06
2687.39	0.580383	2.44141e-07
2688.27	0.00179138	0.00547272
2689.13	0.580566	-6.5918e-06
2690.03	0.581116	-7.90405e-06
2690.93	0.579651	0.0153595
2691.77	0.580933	-1.10474e-05
2692.67	0.581177	-9.27734e-06
2693.57	0.580475	0.000441467
2694.41	0.581177	-1.22375e-05
2695.31	0.58017	-2.74658e-06
2696.21	0.580353	4.52576e-05
2697.05	0.580566	-6.68335e-06
2697.95	0.580902	-9.12476e-06
2698.85	0.581024	1.27563e-05
2699.69	0.579987	-4.3335e-06
2700.59	0.579834	-3.35693e-07
2701.49	0.581268	2.62451e-06
2702.33	0.581268	-1.3855e-05
2703.23	0.581024	-1.05591e-05
2704.13	0.5802	4.05884e-06
2704.97	0.580994	-1.20239e-05
2705.87	0.581116	-1.07117e-05
2706.77	0.579865	6.7749e-06
2707.63	-0.697693	-0.0221008
2708.51	0.579895	-1.40381e-06
2709.41	0.581085	-5.7373e-06
2710.27	-0.697266	-0.0143463
2711.15	0.579834	-2.7771e-06
2712.05	0.581268	-8.20923e-06
2712.93	0.00170898	0.00998535
2713.79	0.580536	-4.88281e-06
2714.69	0.581238	-7.32422e-06
2715.57	0.00180969	0.00548431
2716.43	0.580475	-4.82178e-06
2717.33	0.581238	-9.94873e-06
2718.23	0.580566	0.0154205
2719.07	0.580811	-1.00708e-05
2719.97	0.580902	-6.37817e-06
2720.87	0.580414	0.00046991
2721.71	0.581207	-1.26038e-05
2722.61	0.58017	-1.70898e-06
2723.51	0.580811	4.54102e-05
2724.35	0.5802	-4.66919e-06
2725.25	0.581238	-1.08643e-05
2726.15	0.580536	1.58997e-05
2726.99	0.581085	-1.07727e-05
2727.89	0.58075	-7.35474e-06
2728.79	0.580383	7.59888e-06
2729.63	0.581085	-1.26953e-05
2730.53	0.58017	-3.9978e-06
2731.43	0.581207	-8.54492e-07
2732.27	0.581116	-1.2146e-05
2733.17	0.579895	-9.76562e-07
2734.07	0.580292	1.92261e-06
2734.93	-0.696503	-0.0221466
2735.81	0.580048	-2.16675e-06
2736.71	0.579865	4.94385e-06
2737.57	-0.697998	-0.0143982
2738.45	0.581177	-1.15662e-05
2739.35	0.579834	2.22778e-06
2740.23	0.000302124	0.0099762
2741.09	0.580566	-7.56836e-06
2741.99	0.580566	-3.66211e-06
2742.87	0.000604248	0.00549469
2743.73	0.580811	-9.18579e-06
2744.63	0.5802	-1.92261e-06
2745.53	0.579529	0.0154785
2746.37	0.581024	-1.04065e-05
2747.27	0.581116	-8.81958e-06
2748.17	0.579803	0.000509338
2749.01	0.580597	-8.39233e-06
2749.91	0.579834	3.05176e-07
2750.81	0.58075	4.8584e-05
2751.65	0.579773	-4.30298e-06
2752.55	0.58075	-6.98853e-06
2753.45	0.579895	2.05078e-05
2754.29	0.580292	-4.63867e-06
2755.19	0.58075	-8.30078e-06
2756.09	0.580566	7.38525e-06
2756.93	0.580322	-4.97437e-06
2757.84	0.580688	-8.3313e-06
2758.74	0.580963	8.23975e-07
2759.58	0.581299	-1.34888e-05
2760.48	0.579834	-8.23975e-07
2761.38	0.581238	-5.49316e-06
2762.24	-0.697693	-0.022168
2763.12	0.5802	-3.479e-06
2764.02	0.580963	-3.14331e-06
2764.88	-0.697174	-0.014447
2765.76	0.580048	-4.21143e-06
2766.66	0.580048	2.0752e-06
2767.54	0.000314331	0.00995483
2768.4	0.579803	-1.86157e-06
2769.3	0.581116	-8.54492e-06
2770.18	0.000680542	0.00549835
2771.04	0.579834	-1.86157e-06
2771.94	0.579803	5.18799e-07
2772.84	0.579895	0.0155243
2773.68	0.581207	-1.23901e-05
2774.58	0.580811	-6.83594e-06
2775.48	0.580292	0.000531616
2776.32	0.580231	-6.2561e-06
2777.22	0.580688	-6.43921e-06
2778.12	0.581207	4.65393e-05
2778.96	0.579926	-2.53296e-06
2779.86	0.579834	-1.06812e-06
2780.76	0.58139	1.18103e-05
2781.6	0.58075	-1.0437e-05
2782.5	0.580627	-6.68335e-06
2783.4	0.58136	1.15967e-06
2784.24	0.580963	-1.07727e-05
2785.14	0.581238	-1.00403e-05
2786.04	0.580658	-3.05176e-08
2786.88	0.580811	-9.70459e-06
2787.78	0.581268	-1.15967e-05
2788.68	0.581116	-5.31006e-06
2789.54	-0.696411	-0.0222107
2790.42	0.580597	-8.27026e-06
2791.32	0.581207	-7.17163e-06
2792.18	-0.696991	-0.0145142
2793.06	0.5802	-2.7771e-06
2793.96	0.580933	-1.49536e-06
2794.84	0.000494385	0.00993042
2795.7	0.581329	-1.31226e-05
2796.6	0.579834	1.2207e-06
2797.48	0.00109558	0.00550293
2798.34	0.580994	-1.05591e-05
2799.24	0.579712	5.79834e-07
2800.14	0.580688	0.0155792
2800.98	0.581207	-1.04065e-05
2801.88	0.580444	-7.50732e-06
2802.78	0.58136	0.000560913
2803.62	0.581116	-1.34583e-05
2804.52	0.58017	-5.21851e-06
2805.42	0.581024	5.26123e-05
2806.26	0.580475	-1.01624e-05
2806.4	0.581177	-1.07117e-05