File: Edgar/20240508/20240508/electrodeposition_pulsed_potential_20240508_B/data/pulses_0_to_1000.txt
Time (s)	WE(1).Potential (V)	WE(1).Current (A)
181.93	-0.69873	-0.00482544
182.81	0.580048	-7.17163e-06
183.71	0.580292	-5.79834e-06
184.57	-0.698761	-0.00379181
185.45	0.580658	-1.10168e-05
186.35	0.579895	-2.41089e-06
187.23	0.00162354	0.00024234
188.09	0.581177	-1.44958e-05
188.99	0.58075	-8.45337e-06
189.87	0.000588989	5.04456e-05
190.73	0.581116	-1.5625e-05
191.63	0.580139	-7.75146e-06
192.53	0.581146	6.14929e-05
193.37	0.579987	-4.45557e-06
194.27	0.579834	-2.83813e-06
195.17	0.581238	9.79614e-06
196.01	0.5802	-7.04956e-06
196.91	0.580811	-1.09863e-05
197.81	0.581207	-7.01904e-07
198.65	0.581268	-1.46179e-05
199.55	0.581268	-1.33057e-05
200.45	0.580658	-1.52588e-07
201.29	0.581329	-1.35193e-05
202.19	0.580597	-6.53076e-06
203.09	0.579803	4.21143e-06
203.93	0.581268	-1.40686e-05
204.83	0.581177	-1.29089e-05
205.73	0.580078	3.96729e-07
206.57	0.58078	-1.19629e-05
207.47	0.579895	-2.10571e-06
208.37	0.580078	3.05176e-07
209.23	-0.698151	-0.00549988
210.11	0.579926	-3.50952e-06
211.01	0.580139	-9.15527e-07
211.87	-0.698364	-0.00444214
212.75	0.58136	-1.51978e-05
213.65	0.581238	-1.06506e-05
214.53	0.0020813	0.000654602
215.39	0.580261	-6.95801e-06
216.29	0.580383	-4.5166e-06
217.17	0.00102234	4.54407e-05
218.03	0.580658	-7.75146e-06
218.93	0.581268	-1.2207e-05
219.83	0.579895	7.72705e-05
220.67	0.58017	-5.15747e-06
221.57	0.58078	-1.10168e-05
222.47	0.580719	1.62964e-05
223.31	0.580078	-5.85937e-06
224.21	0.580078	-5.21851e-06
225.11	0.579865	1.16882e-05
225.95	0.58136	-1.41602e-05
226.85	0.581116	-1.02234e-05
227.75	0.580933	3.96729e-07
228.59	0.579926	-5.46265e-06
229.49	0.579895	-3.66211e-06
230.39	0.581329	-6.65283e-06
231.23	0.580292	-7.56836e-06
232.13	0.581238	-1.35498e-05
233.03	0.579834	1.92261e-06
233.87	0.579834	-4.30298e-06
234.77	0.581299	-1.57471e-05
235.67	0.579956	2.74658e-07
236.53	-0.697235	-0.0067865
237.41	0.580139	-6.98853e-06
238.31	0.580139	-1.77002e-06
239.17	-0.698578	-0.0048819
240.05	0.581299	-1.44958e-05
240.95	0.579865	-4.57764e-07
241.83	0.000823975	0.00206818
242.69	0.580475	-8.78906e-06
243.59	0.579926	-2.13623e-06
244.47	0.00123901	3.80554e-05
245.33	0.580597	-9.85718e-06
246.23	0.581116	-1.2085e-05
247.13	0.579987	7.8186e-05
247.97	0.580597	-9.00269e-06
248.87	0.579987	-3.72314e-06
249.77	0.579895	1.94702e-05
250.61	0.581238	-1.68762e-05
251.51	0.580841	-1.18713e-05
252.41	0.581329	-1.86157e-06
253.25	0.580109	-5.98145e-06
254.15	0.581085	-1.25122e-05
255.05	0.579926	4.69971e-06
255.89	0.580353	-8.88062e-06
256.79	0.581207	-1.40076e-05
257.69	0.579895	2.86865e-06
258.53	0.580383	-8.60596e-06
259.43	0.579895	-3.2959e-06
260.33	0.579895	2.38037e-06
261.17	0.581207	-1.47705e-05
262.07	0.581207	-1.4801e-05
262.97	0.580994	-8.69751e-06
263.83	-0.697662	-0.00773315
264.71	0.581329	-1.3092e-05
265.61	0.579956	-2.89917e-06
266.47	-0.697754	-0.00508209
267.35	0.579895	-4.15039e-06
268.25	0.579895	-2.41089e-06
269.13	0.00136719	0.00383575
269.99	0.580048	-6.53076e-06
270.89	0.580963	-1.05286e-05
271.77	0.000756836	6.34766e-05
272.63	0.580872	-1.27869e-05
273.53	0.580414	-6.28662e-06
274.43	0.579865	8.74329e-05
275.27	0.580841	-1.05591e-05
276.17	0.579773	-2.50244e-06
277.07	0.580963	8.57544e-06
277.91	0.579895	-5.12695e-06
278.81	0.581299	-1.41602e-05
279.71	0.579803	8.63647e-06
280.55	0.579865	-4.21143e-06
281.45	0.580994	-1.14136e-05
282.35	0.580475	-3.96729e-07
283.19	0.581177	-1.36108e-05
284.09	0.581238	-1.37634e-05
284.99	0.581085	-6.40869e-06
285.83	0.581238	-1.52588e-05
286.73	0.58075	-9.12476e-06
287.63	0.579865	-5.79834e-07
288.47	0.580688	-1.3916e-05
289.37	0.580994	-1.45264e-05
290.27	0.58136	-1.15051e-05
291.13	-0.698273	-0.00826111
292.01	0.581146	-1.28174e-05
292.91	0.579895	-1.40381e-06
293.77	-0.6987	-0.00513947
294.65	0.580933	-1.26038e-05
295.55	0.581177	-1.23901e-05
296.43	0.000827026	0.0049054
297.29	0.580292	-7.53784e-06
298.19	0.579834	-2.16675e-06
299.07	0.00192871	9.32312e-05
299.93	0.580994	-1.22375e-05
300.83	0.580231	-5.43213e-06
301.73	0.580811	8.79822e-05
302.57	0.58078	-1.17798e-05
303.47	0.579987	-2.71606e-06
304.37	0.58136	7.69043e-06
305.21	0.58017	-5.92041e-06
306.11	0.579956	-3.08228e-06
307.01	0.580078	4.02832e-06
307.85	0.580383	-7.08008e-06
308.75	0.580444	-6.89697e-06
309.65	0.580048	1.5564e-06
310.49	0.581085	-1.33667e-05
311.39	0.580963	-1.23901e-05
312.29	0.580017	1.52588e-07
313.13	0.579956	-4.36401e-06
314.03	0.581116	-9.91821e-06
314.93	0.580933	-5.58472e-06
315.77	0.580048	-6.19507e-06
316.67	0.580872	-1.07422e-05
317.57	0.580231	-3.90625e-06
318.43	-0.698151	-0.00855713
319.31	0.579895	-4.42505e-06
320.21	0.580078	-4.45557e-06
321.07	-0.698425	-0.00516663
321.95	0.581116	-1.31226e-05
322.85	0.581177	-1.17798e-05
323.73	0.000637817	0.00552704
324.59	0.581116	-1.15967e-05
325.49	0.580353	-7.87354e-06
326.37	0.000759888	0.000132111
327.23	0.580231	-7.87354e-06
328.13	0.579895	-2.92969e-06
329.03	0.579865	9.7229e-05
329.87	0.580719	-1.08948e-05
330.77	0.581177	-1.3916e-05
331.67	0.580902	9.46045e-06
332.51	0.581268	-1.3916e-05
333.41	0.580017	-4.21143e-06
334.31	0.580505	1.06812e-06
335.15	0.579895	-5.85937e-06
336.05	0.580292	-7.78198e-06
336.95	0.581207	-7.01904e-06
337.79	0.580658	-1.14746e-05
338.69	0.580261	-5.09644e-06
339.59	0.581146	-1.09558e-05
340.43	0.579865	-4.57764e-06
341.33	0.580566	-9.67407e-06
342.23	0.581177	-1.23901e-05
343.07	0.579956	-4.85229e-06
343.97	0.580261	-7.23267e-06
344.87	0.580841	-9.30786e-06
345.73	-0.697876	-0.00879211
346.61	0.579926	-4.21143e-06
347.51	0.580994	-1.09253e-05
348.37	-0.698578	-0.00518768
349.25	0.581299	-1.41907e-05
350.15	0.581116	-1.23901e-05
351.03	0.00195618	0.00594757
351.89	0.58078	-1.09253e-05
352.79	0.581238	-1.30005e-05
353.67	0.000741577	0.000163971
354.53	0.581238	-1.28174e-05
355.43	0.581207	-1.35193e-05
356.33	0.580505	9.50012e-05
357.17	0.581238	-1.48621e-05
358.07	0.581055	-1.14441e-05
358.97	0.580231	1.41907e-05
359.81	0.581207	-1.37024e-05
360.71	0.581207	-1.3916e-05
361.61	0.579956	5.58472e-06
362.45	0.579926	-7.50732e-06
363.35	0.580933	-8.5144e-06
364.25	0.580292	-3.17383e-06
365.09	0.581207	-1.42822e-05
365.99	0.581238	-1.37634e-05
366.89	0.581268	-1.01929e-05
367.73	0.580688	-1.14136e-05
368.63	0.580231	-6.2561e-06
369.53	0.580933	-9.61304e-06
370.37	0.581207	-1.37634e-05
371.27	0.580261	-8.27026e-06
372.17	0.580109	-3.08228e-06
373.03	-0.698486	-0.00897827
373.91	0.579956	-7.44629e-06
374.81	0.580994	-7.65991e-06
375.67	-0.698242	-0.00522522
376.55	0.579987	-4.63867e-06
377.45	0.580627	-9.94873e-06
378.33	0.00205994	0.00627716
379.19	0.580383	-8.72803e-06
380.09	0.580811	-1.07422e-05
380.97	0.00192261	0.000184814
381.83	0.581268	-1.50452e-05
382.73	0.580902	-1.33057e-05
383.63	0.580231	9.82666e-05
384.47	0.579895	-4.94385e-06
385.37	0.580536	-9.06372e-06
386.27	0.581268	6.71387e-06
387.11	0.581146	-1.56555e-05
388.01	0.581177	-1.48315e-05
388.91	0.58136	-5.15747e-06
389.75	0.58075	-1.20544e-05
390.65	0.581238	-1.38245e-05
391.55	0.580597	-1.64795e-06
392.39	0.579956	-4.57764e-06
393.29	0.579895	-4.5166e-06
394.19	0.581207	-9.42993e-06
395.03	0.580078	-7.1106e-06
395.93	0.581207	-1.40991e-05
396.83	0.579834	-2.13623e-07
397.67	0.580017	-8.20923e-06
398.57	0.580841	-9.73511e-06
399.47	0.579926	-6.10352e-08
400.33	-0.697754	-0.00916443
401.21	0.581207	-1.41296e-05
402.11	0.580963	-9.97925e-06
402.97	-0.697601	-0.0052594
403.85	0.580597	-9.18579e-06
404.75	0.580017	-4.15039e-06
405.63	0.00198364	0.00653778
406.49	0.580292	-8.02612e-06
407.39	0.581207	-1.20239e-05
408.27	0.00177917	0.000219849
409.13	0.580627	-1.37939e-05
410.03	0.579926	-6.56128e-06
410.93	0.579803	0.000102448
411.77	0.580872	-1.31836e-05
412.67	0.579834	-3.17383e-06
413.57	0.580627	1.18103e-05
414.41	0.580231	-8.14819e-06
415.31	0.579987	-6.19507e-06
416.21	0.580048	6.43921e-06
417.05	0.580994	-1.23596e-05
417.95	0.580139	-4.97437e-06
418.85	0.579834	3.2959e-06
419.69	0.581177	-1.44653e-05
420.59	0.581207	-1.29395e-05
421.49	0.581268	-9.85718e-06
422.33	0.581024	-1.33667e-05
423.23	0.580292	-1.10168e-05
424.13	0.579773	1.43433e-06
424.97	0.580048	-5.43213e-06
425.87	0.581024	-1.44043e-05
426.77	0.579803	-1.06812e-06
427.63	-0.697174	-0.00933838
428.51	0.580109	-7.1106e-06
429.41	0.580933	-9.67407e-06
430.27	-0.698151	-0.00530487
431.15	0.581268	-1.51978e-05
432.05	0.579895	-2.65503e-06
432.93	0.00145264	0.00676636
433.79	0.579742	-3.08228e-06
434.69	0.580627	-9.06372e-06
435.57	0.00142212	0.000251831
436.43	0.580597	-9.79614e-06
437.33	0.581268	-1.3855e-05
438.23	0.579987	0.000100952
439.07	0.579987	-4.85229e-06
439.97	0.581177	-1.41296e-05
440.87	0.580017	1.66016e-05
441.71	0.580322	-9.39941e-06
442.61	0.580902	-1.12e-05
443.51	0.580048	2.96021e-06
444.35	0.579803	-3.72314e-06
445.25	0.581116	-1.36108e-05
446.15	0.580597	-1.15967e-06
446.99	0.580963	-1.58386e-05
447.89	0.580505	-1.12915e-05
448.79	0.579742	1.37329e-06
449.63	0.580292	-7.90405e-06
450.53	0.581116	-1.35803e-05
451.43	0.580078	-1.52588e-06
452.27	0.580536	-9.70459e-06
453.17	0.580902	-1.21155e-05
454.07	0.580597	-5.15747e-06
454.93	-0.697266	-0.00951233
455.81	0.580719	-9.46045e-06
456.71	0.579895	-1.34277e-06
457.57	-0.69812	-0.00535309
458.45	0.5802	-8.36182e-06
459.35	0.581238	-1.30615e-05
460.23	0.00141602	0.00696472
461.09	0.580292	-8.91113e-06
461.99	0.581238	-1.31836e-05
462.87	0.00145264	0.000286957
463.73	0.580658	-9.94873e-06
464.63	0.580444	-8.08716e-06
465.53	0.580444	9.84497e-05
466.37	0.579895	-4.48608e-06
467.27	0.580383	-8.8501e-06
468.17	0.581207	6.74438e-06
469.01	0.580811	-1.11084e-05
469.91	0.580597	-9.61304e-06
470.81	0.579956	5.49316e-06
471.65	0.580719	-8.72803e-06
472.55	0.581421	-1.35803e-05
473.45	0.580261	1.31226e-06
474.29	0.580963	-1.37939e-05
475.19	0.581207	-1.38245e-05
476.09	0.581146	-8.48389e-06
476.93	0.579865	-5.00488e-06
477.83	0.579895	-3.54004e-06
478.73	0.580322	-4.54712e-06
479.57	0.580078	-6.31714e-06
480.47	0.579926	-3.69263e-06
481.37	0.581238	-1.16882e-05
482.23	-0.697144	-0.00969849
483.11	0.58136	-1.40381e-05
484.01	0.581116	-1.25427e-05
484.87	-0.697266	-0.00542236
485.75	0.579895	-3.41797e-06
486.65	0.580719	-8.36182e-06
487.53	0.00202637	0.00714783
488.39	0.581024	-1.11389e-05
489.29	0.580475	-9.46045e-06
490.17	0.000842285	0.000331665
491.03	0.580261	-5.58472e-06
491.93	0.580963	-1.22375e-05
492.83	0.580078	0.000101532
493.67	0.580811	-1.06201e-05
494.57	0.580658	-7.8125e-06
495.47	0.581116	8.69751e-06
496.31	0.580872	-1.48926e-05
497.21	0.579773	-3.05176e-06
498.11	0.579773	7.62939e-06
498.95	0.580658	-1.01929e-05
499.85	0.579865	-4.24194e-06
500.75	0.579926	2.0752e-06
501.59	0.579926	-4.39453e-06
502.49	0.580383	-9.12476e-06
503.39	0.581268	-1.0437e-05
504.23	0.581085	-1.39465e-05
505.13	0.579895	-3.44849e-06
506.03	0.581177	-1.171875E-05
506.87	0.58078	-1.24512e-05
507.77	0.579895	-2.68555e-06
508.67	0.581116	-1.01624e-05
509.53	-0.697693	-0.00988464
510.41	0.579834	-2.80762e-06
511.31	0.58136	-1.31226e-05
512.17	-0.697296	-0.00547943
513.05	0.579956	-4.5166e-06
513.95	0.580048	-4.85229e-06
514.83	0.000836182	0.00733856
515.69	0.580292	-8.20923e-06
516.59	0.580048	-4.57764e-06
517.47	0.000854492	0.000379181
518.33	0.581207	-1.44958e-05
519.23	0.579834	-2.22778e-06
520.13	0.580658	9.77173e-05
520.97	0.581207	-1.19629e-05
521.87	0.579834	-2.71606e-06
522.77	0.581085	7.75146e-06
523.61	0.581207	-1.36719e-05
524.51	0.580963	-1.17493e-05
525.41	0.579895	6.62231e-06
526.25	0.580078	-7.38525e-06
527.15	0.581085	-1.3855e-05
528.05	0.579956	1.98364e-06
528.89	0.58017	-6.43921e-06
529.79	0.579895	-3.96729e-06
530.69	0.579956	1.2207e-07
531.53	0.58139	-1.58691e-05
532.43	0.580383	-9.42993e-06
533.33	0.58075	-7.50732e-06
534.17	0.580048	-7.47681e-06
535.07	0.579987	-2.83813e-06
535.97	0.580322	-3.63159e-06
536.83	-0.697113	-0.0100677
537.71	0.580811	-1.08643e-05
538.61	0.579895	-2.41089e-06
539.47	-0.698517	-0.00553345
540.35	0.581055	-1.26648e-05
541.25	0.579865	-2.53296e-06
542.13	0.00187988	0.00750732
542.99	0.581268	-1.4801e-05
543.89	0.579895	-3.32642e-06
544.77	0.00168762	0.000423828
545.63	0.581238	-1.23901e-05
546.53	0.581238	-1.44958e-05
547.43	0.579834	0.000104309
548.27	0.580048	-5.52368e-06
549.17	0.579865	-3.38745e-06
550.07	0.579865	1.79443e-05
550.91	0.580292	-5.79834e-06
551.81	0.580627	-1.11084e-05
552.71	0.581055	-9.15527e-08
553.55	0.581024	-1.31531e-05
554.45	0.580078	-6.50024e-06
555.35	0.579987	2.92969e-06
556.19	0.580933	-1.15662e-05
557.09	0.579956	-5.15747e-06
557.99	0.581238	-8.60596e-06
558.83	0.580719	-9.52148e-06
559.73	0.580261	-8.8501e-06
560.63	0.58017	-1.34277e-06
561.47	0.5802	-6.34766e-06
562.37	0.580902	-1.26038e-05
563.27	0.579865	-1.40381e-06
564.13	-0.697479	-0.0102509
565.01	0.579865	-3.90625e-06
565.91	0.580048	-5.24902e-06
566.77	-0.697327	-0.00562012
567.65	0.580292	-7.2937e-06
568.55	0.580231	-4.3335e-06
569.43	0.00175171	0.00766296
570.29	0.580994	-1.10168e-05
571.19	0.581024	-1.24207e-05
572.07	0.00071106	0.000483948
572.93	0.579895	-3.57056e-06
573.83	0.580963	-1.02234e-05
574.73	0.581238	9.43909e-05
575.57	0.580872	-1.19019e-05
576.47	0.581268	-1.41907e-05
577.37	0.580902	1.20544e-05
578.21	0.581329	-1.58997e-05
579.11	0.58075	-9.94873e-06
580.01	0.579895	7.2937e-06
580.85	0.580994	-1.26648e-05
581.75	0.579834	-3.35693e-06
582.65	0.580872	-5.7373e-06
583.49	0.581146	-1.36719e-05
584.39	0.580627	-1.15051e-05
585.29	0.580261	-9.15527e-08
586.13	0.579926	-5.37109e-06
587.03	0.580414	-9.00269e-06
587.93	0.581116	-9.00269e-06
588.77	0.580353	-8.27026e-06
589.67	0.581024	-1.16882e-05
590.57	0.580048	-2.10571e-06
591.43	-0.697174	-0.0104614
592.31	0.579987	-5.18799e-06
593.21	0.579987	-3.32642e-06
594.07	-0.698242	-0.00569031
594.95	0.579834	-3.41797e-06
595.85	0.5802	-3.54004e-06
596.73	0.0018219	0.00781555
597.59	0.58136	-1.61133e-05
598.49	0.581085	-7.96509e-06
599.37	0.000946045	0.000543518
600.23	0.581146	-1.43433e-05
601.13	0.581146	-1.13525e-05
602.03	0.580597	0.000102112
602.87	0.581207	-1.66016e-05
603.77	0.581177	-1.24817e-05
604.67	0.581024	1.33362e-05
605.51	0.580231	-7.65991e-06
606.41	0.58078	-9.79614e-06
607.31	0.580444	3.87573e-06
608.15	0.580902	-1.23901e-05
609.05	0.5802	-5.85937e-06
609.95	0.580414	7.01904e-07
610.79	0.58139	-1.58997e-05
611.69	0.579926	-7.14111e-06
612.59	0.580963	-3.93677e-06
613.43	0.579956	-7.90405e-06
614.33	0.579895	-3.75366e-06
615.23	0.58136	-1.15356e-05
616.07	0.580383	-8.39233e-06
616.97	0.580048	-3.8147e-06
617.87	0.581268	-1.18713e-05
618.73	-0.697235	-0.0106812
619.61	0.580231	-7.2937e-06
620.51	0.581238	-1.21155e-05
621.37	-0.697266	-0.00578644
622.25	0.579681	-3.20435e-06
623.15	0.579895	-1.19019e-06
624.03	0.000537109	0.00797729
624.89	0.581238	-1.40381e-05
625.79	0.580658	-7.59888e-06
626.67	0.000738525	0.000611572
627.53	0.580139	-5.85937e-06
628.43	0.580353	-6.86646e-06
629.33	0.581299	9.84497e-05
630.17	0.581085	-1.28784e-05
631.07	0.579895	-2.7771e-06
631.97	0.581268	9.82666e-06
632.81	0.580261	-7.90405e-06
633.71	0.58075	-1.07727e-05
634.61	0.5802	5.82886e-06
635.45	0.580261	-6.71387e-06
636.35	0.581299	-1.40381e-05
637.25	0.580505	-3.87573e-06
638.09	0.579987	-5.5542e-06
638.99	0.581238	-1.40686e-05
639.89	0.580414	-2.44141e-06
640.73	0.580994	-1.28174e-05
641.63	0.580505	-8.11768e-06
642.53	0.579895	-1.37329e-06
643.37	0.580353	-9.552e-06
644.27	0.579865	-2.92969e-06
645.17	0.581238	-9.91821e-06
646.03	-0.697327	-0.0109009
646.91	0.580078	-7.41577e-06
647.81	0.580933	-1.08337e-05
648.67	-0.698395	-0.00586121
649.55	0.579895	-4.27246e-06
650.45	0.581085	-1.34277e-05
651.33	0.000982666	0.00814209
652.19	0.579895	-3.479e-06
653.09	0.580353	-7.2937e-06
653.97	0.00121155	0.000683899
654.83	0.579895	-4.11987e-06
655.73	0.581207	-1.41296e-05
656.63	0.579926	0.000110077
657.47	0.580017	-4.48608e-06
658.37	0.581299	-1.22681e-05
659.27	0.580017	2.02332e-05
660.11	0.579803	-3.11279e-06
661.01	0.579834	-5.31006e-06
661.91	0.580414	2.04468e-06
662.75	0.581238	-1.3916e-05
663.65	0.580719	-9.39941e-06
664.55	0.580048	2.2583e-06
665.39	0.580444	-9.64355e-06
666.29	0.581299	-1.36414e-05
667.19	0.581116	-7.62939e-06
668.03	0.580383	-9.12476e-06
668.93	0.581177	-1.28479e-05
669.83	0.58017	-1.43433e-06
670.67	0.580475	-6.83594e-06
671.57	0.581329	-1.54724e-05
672.47	0.581024	-8.60596e-06
673.33	-0.697113	-0.0111145
674.21	0.581207	-1.15051e-05
675.11	0.581299	-1.474e-05
675.97	-0.697723	-0.00595337
676.85	0.581085	-1.29395e-05
677.75	0.580536	-8.57544e-06
678.63	0.000454712	0.00829163
679.49	0.580078	-6.37817e-06
680.39	0.580688	-9.30786e-06
681.27	0.00181274	0.000760498
682.13	0.580139	-5.5542e-06
683.03	0.580536	-8.63647e-06
683.93	0.581238	0.000102417
684.77	0.579803	-3.75366e-06
685.67	0.581024	-1.30615e-05
686.57	0.581238	1.14136e-05
687.41	0.579987	-6.2561e-06
688.31	0.5802	-7.53784e-06
689.21	0.580017	6.5918e-06
690.05	0.58075	-1.08948e-05
690.95	0.580414	-6.80542e-06
691.85	0.579865	3.75366e-06
692.69	0.580078	-6.2561e-06
693.59	0.581238	-1.42517e-05
694.49	0.579956	2.74658e-07
695.33	0.579926	-4.42505e-06
696.23	0.581055	-1.23901e-05
697.13	0.581024	-9.30786e-06
697.97	0.580811	-1.25122e-05
698.87	0.58136	-1.32141e-05
699.77	0.581055	-9.64355e-06
700.63	-0.698059	-0.0113281
701.51	0.580017	-4.45557e-06
702.41	0.580078	-1.00708e-06
703.27	-0.698273	-0.00603333
704.15	0.581146	-1.42212e-05
705.05	0.580658	-9.39941e-06
705.93	0.000680542	0.00844421
706.79	0.580078	-7.08008e-06
707.69	0.580292	-6.5918e-06
708.57	0.000973511	0.000847778
709.43	0.58075	-1.20544e-05
710.33	0.580414	-7.2937e-06
711.23	0.580627	0.000108459
712.07	0.58136	-1.52283e-05
712.97	0.580963	-1.18713e-05
713.87	0.581024	1.34277e-05
714.71	0.580444	-1.11694e-05
715.61	0.580688	-5.49316e-06
716.51	0.580109	5.76782e-06
717.35	0.581055	-1.19934e-05
718.25	0.580292	-7.87354e-06
719.15	0.581085	-4.3335e-06
719.99	0.580872	-1.27563e-05
720.89	0.581177	-1.474e-05
721.79	0.579956	1.19019e-06
722.63	0.580566	-8.48389e-06
723.53	0.579895	-4.66919e-06
724.43	0.579834	3.35693e-07
725.27	0.580597	-9.15527e-06
726.17	0.580475	-7.69043e-06
727.07	0.579926	-2.04468e-06
727.93	-0.698486	-0.0115479
728.81	0.580811	-8.45337e-06
729.71	0.581116	-9.0332e-06
730.57	-0.698639	-0.00611755
731.45	0.580017	-6.43921e-06
732.35	0.581116	-1.15051e-05
733.23	0.00144653	0.0085907
734.09	0.580536	-1.00708e-05
734.99	0.579926	-2.56348e-06
735.87	0.00209656	0.000933838
736.73	0.579956	-6.04248e-06
737.63	0.580627	-1.00403e-05
738.53	0.581238	0.000107056
739.37	0.58136	-1.52283e-05
740.27	0.579865	-2.74658e-06
741.17	0.580505	1.95923e-05
742.01	0.579803	-3.84521e-06
742.91	0.580078	-1.00708e-06
743.81	0.58075	6.68335e-06
744.65	0.579834	-4.21143e-06
745.55	0.581238	-1.46179e-05
746.45	0.579895	4.85229e-06
747.29	0.579865	-5.76782e-06
748.19	0.581207	-1.32751e-05
749.09	0.581268	-5.7373e-06
749.93	0.580872	-1.28174e-05
750.83	0.581299	-1.40076e-05
751.73	0.581238	-8.02612e-06
752.57	0.580078	-7.38525e-06
753.47	0.580841	-1.31226e-05
754.37	0.580994	-8.3313e-06
755.23	-0.69812	-0.0118011
756.11	0.581207	-1.59607e-05
757.01	0.581177	-8.63647e-06
757.87	-0.698242	-0.00621246
758.75	0.580444	-8.39233e-06
759.65	0.580139	-2.7771e-06
760.53	0.000564575	0.00875549
761.39	0.581055	-1.34888e-05
762.29	0.580444	-5.21851e-06
763.17	0.000970459	0.00104584
764.03	0.579895	-4.73022e-06
764.93	0.579834	-1.67847e-06
765.83	0.579956	0.00012085
766.67	0.581268	-1.51062e-05
767.57	0.580933	-9.70459e-06
768.47	0.581116	1.41907e-05
769.31	0.581207	-1.32446e-05
770.21	0.581146	-1.48926e-05
771.11	0.580292	4.42505e-06
771.95	0.580688	-9.70459e-06
772.85	0.581238	-1.35498e-05
773.75	0.580292	2.01416e-06
774.59	0.581268	-1.51978e-05
775.49	0.581116	-1.28784e-05
776.39	0.579895	2.50244e-06
777.23	0.579865	-4.85229e-06
778.13	0.581085	-1.3031e-05
779.03	0.579926	9.15527e-08
779.87	0.580322	-9.27734e-06
780.77	0.580139	-5.67627e-06
781.67	0.580719	-7.20215e-06
782.53	-0.697021	-0.0120483
783.41	0.580261	-4.60815e-06
784.31	0.581055	-1.22375e-05
785.17	-0.698181	-0.00631409
786.05	0.581024	-1.26648e-05
786.95	0.579926	-3.2959e-06
787.83	0.000482178	0.00889893
788.69	0.580475	-8.72803e-06
789.59	0.579895	-2.28882e-06
790.47	0.00170898	0.00115265
791.33	0.580902	-1.12e-05
792.23	0.580261	-7.20215e-06
793.13	0.580536	0.000119507
793.97	0.580902	-1.0437e-05
794.87	0.579926	-2.99072e-06
795.77	0.579834	2.46277e-05
796.61	0.579773	-3.479e-06
797.51	0.580475	-8.05664e-06
798.41	0.581268	-9.15527e-07
799.25	0.580627	-9.46045e-06
800.15	0.580475	-7.72095e-06
801.05	0.580872	-2.74658e-06
801.89	0.580048	-5.64575e-06
802.79	0.580139	-7.26318e-06
803.691	0.580902	-6.50024e-06
804.531	0.579803	-4.48608e-06
805.431	0.580261	-6.68335e-06
806.331	0.580963	-9.21631e-06
807.171	0.580078	-5.67627e-06
808.071	0.580414	-7.41577e-06
808.971	0.581299	-1.06506e-05
809.831	-0.69754	-0.0122894
810.711	0.579773	-3.78418e-06
811.611	0.580872	-1.13831e-05
812.471	-0.697418	-0.00642059
813.351	0.58078	-9.552e-06
814.251	0.581268	-1.05286e-05
815.131	0.00115051	0.0090271
815.991	0.581268	-1.40381e-05
816.891	0.580292	-6.22559e-06
817.771	0.000982666	0.00127319
818.631	0.580383	-5.52368e-06
819.531	0.581055	-1.25427e-05
820.431	0.581085	0.000119232
821.271	0.581299	-1.38245e-05
822.171	0.579926	-3.63159e-06
823.071	0.580078	2.50854e-05
823.911	0.580261	-4.88281e-06
824.811	0.580627	-1.20544e-05
825.711	0.581207	2.68555e-06
826.551	0.580811	-1.07727e-05
827.451	0.580444	-7.01904e-06
828.351	0.580627	-1.46484e-06
829.191	0.580841	-1.09253e-05
830.091	0.581268	-1.24512e-05
830.991	0.580292	-1.00708e-06
831.831	0.580261	-6.37817e-06
832.731	0.580048	-4.76074e-06
833.631	0.58078	-5.43213e-06
834.471	0.579773	-3.35693e-06
835.371	0.580627	-1.01318e-05
836.271	0.581055	-1.01929e-05
837.131	-0.697754	-0.0125641
838.011	0.581299	-1.4679e-05
838.911	0.581268	-1.01929e-05
839.771	-0.698456	-0.00652679
840.651	0.579926	-6.2561e-06
841.551	0.581085	-1.11389e-05
842.431	0.000720215	0.00918274
843.291	0.581146	-1.22681e-05
844.191	0.579803	-2.28882e-06
845.071	0.00157471	0.00138855
845.931	0.580383	-6.40869e-06
846.831	0.580627	-7.65991e-06
847.731	0.580139	0.000130524
848.571	0.581177	-1.34888e-05
849.471	0.580872	-1.10779e-05
850.371	0.581055	1.75171e-05
851.211	0.581055	-1.43127e-05
852.111	0.580872	-1.27258e-05
853.011	0.58078	3.05176e-06
853.851	0.580109	-3.9978e-06
854.751	0.580353	-8.57544e-06
855.651	0.581268	-4.42505e-06
856.491	0.580811	-1.14746e-05
857.391	0.580475	-7.2937e-06
858.291	0.580566	-3.32642e-06
859.131	0.580566	-1.12e-05
860.031	0.581207	-1.32751e-05
860.931	0.579987	6.40869e-07
861.771	0.581268	-1.55945e-05
862.671	0.580261	-6.86646e-06
863.571	0.580231	-3.17383e-06
864.431	-0.698303	-0.0128174
865.311	0.579742	-4.3335e-06
866.211	0.581207	-1.18713e-05
867.071	-0.698517	-0.00663025
867.951	0.580078	-5.70679e-06
868.851	0.580109	-3.44849e-06
869.731	0.00160828	0.00933838
870.591	0.580078	-7.14111e-06
871.491	0.579956	-4.3335e-06
872.371	0.00127869	0.0015213
873.231	0.580383	-7.96509e-06
874.131	0.580658	-8.14819e-06
875.031	0.58078	0.000129211
875.871	0.580963	-1.33667e-05
876.771	0.579987	-3.84521e-06
877.671	0.579987	2.55127e-05
878.511	0.58136	-1.33667e-05
879.411	0.58136	-1.3916e-05
880.311	0.581024	2.65503e-06
881.151	0.579926	-4.94385e-06
882.051	0.579987	-3.93677e-06
882.951	0.581238	-2.74658e-06
883.791	0.580902	-1.04065e-05
884.691	0.581207	-1.43127e-05
885.591	0.580841	-3.11279e-06
886.431	0.581207	-1.34277e-05
887.331	0.581146	-1.40381e-05
888.231	0.580566	-4.54712e-06
889.071	0.580078	-5.79834e-06
889.971	0.581268	-1.3916e-05
890.871	0.580963	-7.41577e-06
891.731	-0.696899	-0.0131042
892.611	0.579834	-3.96729e-06
893.511	0.580719	-6.43921e-06
894.371	-0.697815	-0.00675537
895.251	0.580811	-9.67407e-06
896.151	0.581299	-1.13831e-05
897.031	0.00177917	0.00946655
897.891	0.580139	-7.65991e-06
898.791	0.581238	-1.23291e-05
899.671	0.001297	0.00165009
900.531	0.580475	-1.05896e-05
901.431	0.580139	-4.39453e-06
902.331	0.580719	0.000137909
903.171	0.58017	-6.22559e-06
904.071	0.581268	-1.40991e-05
904.971	0.58075	2.06299e-05
905.811	0.580963	-1.03149e-05
906.711	0.581238	-1.32446e-05
907.611	0.581268	2.38037e-06
908.451	0.581024	-1.2207e-05
909.351	0.580353	-6.28662e-06
910.251	0.579803	7.78198e-06
911.091	0.581024	-1.37634e-05
911.991	0.580872	-1.01013e-05
912.891	0.5802	1.83105e-06
913.731	0.581024	-1.18713e-05
914.631	0.5802	-4.91333e-06
915.531	0.5802	-3.96729e-07
916.371	0.581024	-1.33057e-05
917.271	0.581085	-1.32141e-05
918.171	0.580627	-5.24902e-06
919.031	-0.698181	-0.0133789
919.911	0.58017	-6.80542e-06
920.811	0.580444	-4.21143e-06
921.671	-0.698303	-0.00687866
922.551	0.580933	-1.51672e-05
923.451	0.579956	-3.2959e-06
924.331	0.000888062	0.00958252
925.191	0.579956	-4.24194e-06
926.091	0.580353	-4.82178e-06
926.971	0.00182495	0.00178802
927.831	0.580139	-7.65991e-06
928.731	0.581329	-1.27563e-05
929.631	0.58078	0.00014212
930.471	0.581268	-1.52893e-05
931.371	0.580139	-4.5166e-06
932.271	0.580658	2.04773e-05
933.111	0.58075	-1.17798e-05
934.011	0.580841	-9.73511e-06
934.911	0.581146	2.99072e-06
935.751	0.581299	-1.30615e-05
936.651	0.580109	-3.57056e-06
937.551	0.581146	-2.74658e-06
938.391	0.581207	-1.44653e-05
939.291	0.58075	-9.82666e-06
940.191	0.580597	-1.95313e-06
941.031	0.580841	-1.1322e-05
941.931	0.579956	-5.27954e-06
942.831	0.58075	-5.70679e-06
943.671	0.580933	-1.29089e-05
944.571	0.581116	-1.16577e-05
945.471	0.580963	-6.89697e-06
946.331	-0.698364	-0.0136475
947.211	0.579895	-3.08228e-06
948.111	0.579956	-1.15967e-06
948.971	-0.697388	-0.00701721
949.851	0.579865	-3.87573e-06
950.751	0.580109	-3.60107e-06
951.631	0.00109863	0.00969543
952.491	0.580994	-1.08948e-05
953.391	0.579773	-2.53296e-06
954.271	0.000701904	0.0019281
955.131	0.581299	-1.45874e-05
956.031	0.581207	-1.23901e-05
956.931	0.579926	0.000153351
957.771	0.580261	-8.42285e-06
958.671	0.581085	-1.15662e-05
959.571	0.5802	2.52686e-05
960.411	0.581024	-1.33667e-05
961.311	0.581146	-1.28479e-05
962.211	0.581238	2.65503e-06
963.051	0.581116	-1.30615e-05
963.951	0.580444	-6.19507e-06
964.851	0.580017	5.67627e-06
965.691	0.581329	-1.29395e-05
966.591	0.58078	-1.21155e-05
967.491	0.579773	3.66211e-06
968.331	0.581085	-1.29395e-05
969.231	0.579926	-3.72314e-06
970.131	0.580719	-3.50952e-06
970.971	0.580841	-1.20239e-05
971.871	0.580719	-1.0437e-05
972.771	0.579926	2.13623e-07
973.631	-0.698212	-0.0139343
974.511	0.58136	-1.2207e-05
975.411	0.580078	-1.5564e-06
976.271	-0.697144	-0.00715332
977.151	0.58078	-1.17798e-05
978.051	0.579987	-2.22778e-06
978.931	0.000921631	0.00979309
979.791	0.580536	-5.76782e-06
980.691	0.580231	-2.41089e-06
981.571	0.000927734	0.00205414
982.431	0.580811	-1.10779e-05
983.331	0.580383	-7.44629e-06
984.231	0.579987	0.000158478
985.071	0.579865	-3.11279e-06
985.971	0.579834	-1.43433e-06
986.871	0.580414	2.6001e-05
987.711	0.579895	-3.479e-06
988.611	0.579865	-1.7395e-06
989.511	0.580109	1.1261e-05
990.351	0.579895	-4.21143e-06
991.251	0.579926	-3.14331e-06
992.151	0.580841	-1.15967e-06
992.991	0.581238	-1.63269e-05
993.891	0.581268	-1.45874e-05
994.791	0.580444	-3.08228e-06
995.631	0.580475	-8.75854e-06
996.531	0.580383	-6.80542e-06
997.431	0.581055	-7.04956e-06
998.271	0.579987	-5.76782e-06
999.171	0.579865	-3.87573e-06
1000.07	0.579865	3.66211e-07
1000.93	-0.697174	-0.0142273
1001.81	0.580688	-1.16272e-05
1002.71	0.580872	-8.23975e-06
1003.57	-0.697357	-0.00730255
1004.45	0.580353	-7.69043e-06
1005.35	0.579895	-9.46045e-07
1006.23	0.000512695	0.0098877
1007.09	0.581329	-1.33972e-05
1007.99	0.580963	-8.30078e-06
1008.87	0.00126648	0.00218201
1009.73	0.580322	-7.53784e-06
1010.63	0.58078	-9.58252e-06
1011.53	0.581177	0.000159271
1012.37	0.581299	-1.43127e-05
1013.27	0.581207	-1.38245e-05
1014.17	0.581146	2.05383e-05
1015.01	0.581268	-1.42212e-05
1015.91	0.58017	-5.58472e-06
1016.81	0.580109	1.26343e-05
1017.65	0.579895	-4.48608e-06
1018.55	0.581085	-1.09863e-05
1019.45	0.581055	-2.01416e-06
1020.29	0.580933	-1.40076e-05
1021.19	0.579926	-3.90625e-06
1022.09	0.580048	3.87573e-06
1022.93	0.581299	-1.41602e-05
1023.83	0.580841	-8.20923e-06
1024.73	0.579803	4.57764e-07
1025.57	0.579803	-4.36401e-06
1026.47	0.579803	-2.44141e-06
1027.37	0.579834	1.43433e-06
1028.23	-0.698212	-0.014505
1029.11	0.579895	-4.63867e-06
1030.01	0.580566	-5.79834e-06
1030.87	-0.697571	-0.00744904
1031.75	0.580231	-5.27954e-06
1032.65	0.581177	-1.05896e-05
1033.53	0.00170288	0.00997009
1034.39	0.580994	-1.19629e-05
1035.29	0.579865	-1.83105e-06
1036.17	0.00119934	0.00231201
1037.03	0.580841	-1.13831e-05
1037.93	0.581024	-9.82666e-06
1038.83	0.579956	0.000170563
1039.67	0.579773	-4.88281e-06
1040.57	0.580017	-3.35693e-06
1041.47	0.581146	2.19727e-05
1042.31	0.581238	-1.47095e-05
1043.21	0.580017	-5.21851e-06
1044.11	0.581055	6.74438e-06
1044.95	0.579926	-5.5542e-06
1045.85	0.580322	-5.98145e-06
1046.75	0.579834	9.0332e-06
1047.59	0.581268	-1.31226e-05
1048.49	0.579803	-4.02832e-06
1049.39	0.581177	-4.21143e-06
1050.23	0.580597	-1.1261e-05
1051.13	0.580566	-7.08008e-06
1052.03	0.581268	-8.20923e-06
1052.87	0.579956	-5.37109e-06
1053.77	0.580078	-5.95093e-06
1054.67	0.580688	-4.73022e-06
1055.53	-0.698425	-0.0147675
1056.41	0.580444	-7.69043e-06
1057.31	0.58136	-9.33838e-06
1058.17	-0.697998	-0.00760193
1059.05	0.581238	-1.34277e-05
1059.95	0.580353	-5.37109e-06
1060.83	0.000512695	0.0100647
1061.69	0.580841	-9.94873e-06
1062.59	0.581116	-1.00098e-05
1063.47	0.000708008	0.00244385
1064.33	0.581329	-1.60217e-05
1065.23	0.579987	-4.08936e-06
1066.13	0.581055	0.000173126
1066.97	0.580048	-5.52368e-06
1067.87	0.580139	-4.18091e-06
1068.77	0.580475	2.65503e-05
1069.61	0.580536	-1.13831e-05
1070.51	0.581268	-1.30615e-05
1071.41	0.580688	8.17871e-06
1072.25	0.581268	-1.31226e-05
1073.15	0.580719	-9.18579e-06
1074.05	0.580322	4.08936e-06
1074.89	0.580353	-8.36182e-06
1075.79	0.580688	-8.42285e-06
1076.69	0.580811	-2.53296e-06
1077.53	0.581238	-1.35193e-05
1078.43	0.579926	-6.37817e-06
1079.33	0.580811	-4.24194e-06
1080.17	0.581299	-1.47705e-05
1081.07	0.580536	-7.44629e-06
1081.97	0.579895	-8.54492e-07
1082.83	-0.698303	-0.0150177
1083.71	0.581268	-1.26343e-05
1084.61	0.580048	-1.80054e-06
1085.47	-0.698273	-0.00772705
1086.35	0.580048	-6.89697e-06
1087.25	0.581207	-1.00403e-05
1088.13	0.000595093	0.0101471
1088.99	0.579834	-3.75366e-06
1089.89	0.580719	-8.27026e-06
1090.77	0.00209045	0.00257202
1091.63	0.581238	-1.1322e-05
1092.53	0.580109	-1.58691e-06
1093.43	0.579773	0.000186249
1094.27	0.581238	-1.54114e-05
1095.17	0.579865	-2.01416e-06
1096.07	0.580017	3.32947e-05
1096.91	0.579987	-5.61523e-06
1097.81	0.580811	-8.3313e-06
1098.71	0.579956	1.38245e-05
1099.55	0.579865	-4.45557e-06
1100.45	0.581299	-1.24207e-05
1101.35	0.579834	7.8125e-06
1102.19	0.580139	-8.30078e-06
1103.09	0.580444	-6.16455e-06
1103.99	0.58075	-8.8501e-07
1104.83	0.580902	-1.27258e-05
1105.73	0.581177	-1.21765e-05
1106.63	0.581146	-6.86646e-06
1107.47	0.579834	-6.19507e-06
1108.37	0.579742	-2.2583e-06
1109.27	0.58078	-2.99072e-06
1110.13	-0.696808	-0.0152832
1111.01	0.5802	-5.88989e-06
1111.91	0.581238	-1.09863e-05
1112.77	-0.697906	-0.00788879
1113.65	0.581268	-1.3031e-05
1114.55	0.581207	-1.08032e-05
1115.43	0.000402832	0.0102112
1116.29	0.581116	-1.23291e-05
1117.19	0.579926	-1.00708e-06
1118.07	0.00179443	0.00270111
1118.93	0.580139	-4.69971e-06
1119.83	0.579926	-2.34985e-06
1120.73	0.581207	0.000186798
1121.57	0.58139	-1.44043e-05
1122.47	0.579834	-4.27246e-06
1123.37	0.580109	3.13416e-05
1124.21	0.579803	-3.38745e-06
1125.11	0.581329	-1.37329e-05
1126.01	0.579681	1.44348e-05
1126.85	0.579895	-4.79126e-06
1127.75	0.581268	-1.33057e-05
1128.65	0.581116	-9.76562e-07
1129.49	0.580841	-1.22681e-05
1130.39	0.580505	-8.17871e-06
1131.29	0.579895	4.21143e-06
1132.13	0.579865	-4.66919e-06
1133.03	0.581268	-1.44653e-05
1133.93	0.579987	7.62939e-07
1134.77	0.580078	-6.10352e-06
1135.67	0.579865	-2.99072e-06
1136.57	0.581207	-9.82666e-06
1137.43	-0.696899	-0.0155212
1138.31	0.579742	-3.479e-06
1139.21	0.579865	1.52588e-06
1140.07	-0.697845	-0.00802002
1140.95	0.579956	-3.78418e-06
1141.85	0.580048	-3.57056e-06
1142.73	0.000595093	0.0102722
1143.59	0.581116	-1.29089e-05
1144.49	0.580505	-6.04248e-06
1145.37	0.00178833	0.00284088
1146.23	0.581177	-1.34277e-05
1147.13	0.581238	-1.22986e-05
1148.03	0.580566	0.000201263
1148.87	0.581238	-1.25427e-05
1149.77	0.580872	-9.765625E-06
1150.67	0.58017	3.12805e-05
1151.51	0.580261	-6.7749e-06
1152.41	0.579987	-2.68555e-06
1153.31	0.581207	6.74438e-06
1154.15	0.58075	-8.81958e-06
1155.05	0.579742	-3.57056e-06
1155.95	0.581177	1.7395e-06
1156.79	0.581116	-1.35498e-05
1157.69	0.581207	-1.20239e-05
1158.59	0.581207	-5.24902e-06
1159.43	0.580902	-1.09253e-05
1160.33	0.581146	-1.28174e-05
1161.23	0.581268	-8.05664e-06
1162.07	0.579956	-4.36401e-06
1162.97	0.580597	-8.14819e-06
1163.87	0.581238	-7.78198e-06
1164.73	-0.696777	-0.0157623
1165.61	0.580933	-1.12e-05
1166.51	0.580078	-1.83105e-07
1167.37	-0.697449	-0.0081543
1168.25	0.580139	-7.72095e-06
1169.15	0.581299	-1.12915e-05
1170.03	0.00160828	0.0103424
1170.89	0.580017	-4.60815e-06
1171.79	0.581024	-9.3689e-06
1172.67	0.00194092	0.00297058
1173.53	0.580048	-5.67627e-06
1174.43	0.580139	-4.21143e-06
1175.33	0.580963	0.000213013
1176.17	0.580017	-5.49316e-06
1177.07	0.580353	-7.04956e-06
1177.97	0.580139	3.27148e-05
1178.81	0.581085	-1.35193e-05
1179.71	0.580627	-6.65283e-06
1180.61	0.580688	9.79614e-06
1181.45	0.581268	-1.59302e-05
1182.35	0.579742	-2.92969e-06
1183.25	0.581329	-8.8501e-07
1184.09	0.580994	-1.36719e-05
1184.99	0.579895	-3.11279e-06
1185.89	0.580383	1.61743e-06
1186.73	0.580475	-9.09424e-06
1187.63	0.579834	-3.96729e-06
1188.53	0.579956	2.7771e-06
1189.37	0.580627	-9.58252e-06
1190.27	0.580048	-5.00488e-06
1191.17	0.580536	-1.7395e-06
1192.03	-0.697113	-0.0159912
1192.91	0.5802	-6.74438e-06
1193.81	0.580566	-4.91333e-06
1194.67	-0.698242	-0.00829773
1195.55	0.579987	-7.75146e-06
1196.45	0.58075	-8.75854e-06
1197.33	0.00118103	0.0104218
1198.19	0.581055	-1.26648e-05
1199.09	0.580597	-7.50732e-06
1199.97	0.00147095	0.00310547
1200.83	0.580597	-7.8125e-06
1201.73	0.581146	-1.08643e-05
1202.63	0.581024	0.000229279
1203.47	0.58075	-1.12915e-05
1204.37	0.58078	-8.75854e-06
1205.27	0.579987	3.41492e-05
1206.11	0.580231	-7.32422e-06
1207.01	0.580627	-8.17871e-06
1207.91	0.580475	1.17493e-05
1208.75	0.580353	-1.0498e-05
1209.65	0.580566	-6.43921e-06
1210.55	0.580719	5.31006e-06
1211.39	0.581055	-1.46484e-05
1212.29	0.580811	-1.25122e-05
1213.19	0.579742	5.70679e-06
1214.03	0.580841	-1.2146e-05
1214.93	0.581146	-1.29089e-05
1215.83	0.58078	-1.89209e-06
1216.67	0.580902	-1.24207e-05
1217.57	0.580627	-1.05286e-05
1218.47	0.581268	-7.87354e-06
1219.33	-0.696777	-0.0162201
1220.21	0.58075	-1.09863e-05
1221.11	0.579834	7.93457e-07
1221.97	-0.697723	-0.00842896
1222.85	0.580688	-9.64355e-06
1223.75	0.580933	-8.60596e-06
1224.63	0.000482178	0.0104919
1225.49	0.580261	-9.64355e-06
1226.39	0.58139	-1.00098e-05
1227.27	0.00186768	0.00322906
1228.13	0.579895	-3.84521e-06
1229.03	0.580597	-6.37817e-06
1229.93	0.580078	0.000254791
1230.77	0.581085	-1.23596e-05
1231.67	0.580658	-5.09644e-06
1232.57	0.580414	3.17383e-05
1233.41	0.580719	-1.1322e-05
1234.31	0.580261	-5.46265e-06
1235.21	0.579803	1.66016e-05
1236.05	0.581024	-1.15356e-05
1236.95	0.580872	-1.08032e-05
1237.85	0.580627	2.89917e-06
1238.69	0.580017	-3.90625e-06
1239.59	0.580109	-7.44629e-06
1240.49	0.581207	-5.09644e-06
1241.33	0.579834	-3.50952e-06
1242.23	0.580414	-7.20215e-06
1243.13	0.581055	-5.46265e-06
1243.97	0.580017	-4.94385e-06
1244.87	0.581207	-1.35803e-05
1245.77	0.579956	1.34277e-06
1246.63	-0.696716	-0.0164459
1247.51	0.580109	-5.98145e-06
1248.41	0.579987	-7.32422e-07
1249.27	-0.697174	-0.00858154
1250.15	0.580811	-1.11084e-05
1251.05	0.580627	-5.5542e-06
1251.93	0.00144348	0.0105469
1252.79	0.579834	-3.50952e-06
1253.69	0.580017	-1.28174e-06
1254.57	0.00192261	0.00336121
1255.43	0.581177	-1.297e-05
1256.33	0.579834	-1.31226e-06
1257.23	0.58139	0.00027243
1258.07	0.579773	-2.89917e-06
1258.97	0.580017	-3.63159e-06
1259.87	0.580109	3.43323e-05
1260.71	0.580994	-1.0498e-05
1261.61	0.581024	-1.08948e-05
1262.51	0.580536	1.27869e-05
1263.35	0.581268	-1.37024e-05
1264.25	0.58136	-1.28174e-05
1265.15	0.581268	-4.57764e-07
1265.99	0.581055	-1.25732e-05
1266.89	0.580719	-7.62939e-06
1267.79	0.580658	1.0376e-06
1268.63	0.579773	-3.8147e-06
1269.53	0.580902	-9.61304e-06
1270.43	0.581238	-8.20923e-06
1271.27	0.581055	-1.27563e-05
1272.17	0.580322	-6.68335e-06
1273.07	0.579803	1.09863e-06
1273.93	-0.697784	-0.0166443
1274.81	0.581146	-1.23596e-05
1275.71	0.580658	-4.3335e-06
1276.57	-0.698669	-0.00870972
1277.45	0.580078	-5.09644e-06
1278.35	0.580231	-1.89209e-06
1279.23	0.00116577	0.0105957
1280.09	0.580963	-8.91113e-06
1280.99	0.579926	-2.28882e-06
1281.87	0.000595093	0.00349548
1282.73	0.581268	-1.44653e-05
1283.63	0.580597	-4.45557e-06
1284.53	0.580078	0.000314667
1285.37	0.580994	-1.26343e-05
1286.27	0.579803	-1.89209e-06
1287.17	0.580872	3.12805e-05
1288.01	0.580139	-6.13403e-06
1288.91	0.580475	-4.30298e-06
1289.81	0.58139	7.01904e-06
1290.65	0.581299	-1.37939e-05
1291.55	0.581116	-1.05286e-05
1292.45	0.580811	3.50952e-06
1293.29	0.581329	-1.31531e-05
1294.19	0.580933	-1.07727e-05
1295.09	0.579803	5.49316e-06
1295.93	0.580383	-7.99561e-06
1296.83	0.580505	-7.84302e-06
1297.73	0.581085	-5.88989e-06
1298.57	0.581329	-1.43738e-05
1299.47	0.580994	-1.15967e-05
1300.37	0.580383	-3.41797e-06
1301.23	-0.697296	-0.0168579
1302.11	0.579926	-6.04248e-06
1303.01	0.580414	-2.13623e-06
1303.87	-0.698151	-0.00884705
1304.75	0.579926	-3.96729e-06
1305.65	0.579803	-1.34277e-06
1306.53	0.000485229	0.0106567
1307.39	0.581268	-1.44043e-05
1308.29	0.580414	-6.34766e-06
1309.17	0.00157776	0.00360046
1310.03	0.580811	-1.00098e-05
1310.93	0.580994	-7.84302e-06
1311.83	0.580017	0.000363251
1312.67	0.580048	-6.01196e-06
1313.57	0.581146	-1.15967e-05
1314.47	0.580719	3.18604e-05
1315.31	0.581238	-1.42212e-05
1316.21	0.579834	-1.15967e-06
1317.11	0.579987	1.68762e-05
1317.95	0.581329	-1.25732e-05
1318.85	0.581299	-1.28479e-05
1319.75	0.580963	3.9978e-06
1320.59	0.579895	-5.79834e-06
1321.49	0.580688	-1.28174e-05
1322.39	0.580414	-1.09863e-06
1323.23	0.580078	-6.16455e-06
1324.13	0.581177	-1.15967e-05
1325.03	0.579865	3.50952e-06
1325.87	0.580719	-9.85718e-06
1326.77	0.581055	-1.17493e-05
1327.67	0.581055	-5.46265e-06
1328.53	-0.696838	-0.0170715
1329.41	0.580048	-4.57764e-06
1330.31	0.579926	2.13623e-07
1331.17	-0.697266	-0.00901184
1332.05	0.581177	-1.35193e-05
1332.95	0.579987	-1.12915e-06
1333.83	0.00123596	0.0106964
1334.69	0.580078	-4.15039e-06
1335.59	0.580872	-8.5144e-06
1336.47	0.00133362	0.00371765
1337.33	0.579773	-3.8147e-06
1338.23	0.580505	-3.20435e-06
1339.13	0.580902	0.000425995
1339.97	0.581268	-1.40991e-05
1340.87	0.580139	-3.72314e-06
1341.77	0.580109	3.65295e-05
1342.61	0.581085	-1.35498e-05
1343.51	0.580719	-1.00098e-05
1344.41	0.580231	1.55334e-05
1345.25	0.581329	-1.34583e-05
1346.15	0.581116	-1.07422e-05
1347.05	0.581085	1.7395e-06
1347.89	0.580963	-1.28784e-05
1348.79	0.58017	-4.57764e-06
1349.69	0.579865	6.01196e-06
1350.53	0.580048	-3.93677e-06
1351.43	0.5802	-6.53076e-06
1352.33	0.581146	-4.66919e-06
1353.17	0.581146	-1.71204e-05
1354.07	0.581329	-1.08337e-05
1354.97	0.580292	2.50244e-06
1355.83	-0.696716	-0.0172668
1356.71	0.579956	-3.84521e-06
1357.61	0.580505	-5.24902e-06
1358.47	-0.697174	-0.00914917
1359.35	0.580719	-9.21631e-06
1360.25	0.580963	-8.36182e-06
1361.13	0.00163269	0.0107147
1361.99	0.580353	-6.22559e-06
1362.89	0.581299	-1.04675e-05
1363.77	0.00133362	0.00382141
1364.63	0.580475	-7.93457e-06
1365.53	0.580475	-5.12695e-06
1366.43	0.58017	0.000533142
1367.27	0.580017	-5.34058e-06
1368.17	0.580933	-9.58252e-06
1369.07	0.580383	3.6438e-05
1369.91	0.580231	-4.60815e-06
1370.81	0.580902	-8.63647e-06
1371.71	0.581116	9.58252e-06
1372.55	0.580719	-1.13525e-05
1373.45	0.581177	-1.25732e-05
1374.35	0.580933	4.73022e-06
1375.19	0.579895	-2.96021e-06
1376.09	0.579803	-3.38745e-06
1376.99	0.580566	1.67847e-06
1377.83	0.580597	-1.00403e-05
1378.73	0.579956	-2.01416e-06
1379.63	0.581146	-4.24194e-06
1380.47	0.579834	-5.49316e-06
1381.37	0.579926	-2.86865e-06
1382.27	0.581207	-7.53784e-06
1383.13	-0.69696	-0.0174744
1384.01	0.581268	-1.30615e-05
1384.91	0.579895	1.92261e-06
1385.77	-0.698181	-0.00930176
1386.65	0.58136	-1.52588e-05
1387.55	0.580933	-3.93677e-06
1388.43	0.00125122	0.0107697
1389.29	0.579834	-3.20435e-06
1390.19	0.580048	-3.2959e-06
1391.07	0.00193481	0.0039267
1391.93	0.579895	-3.479e-06
1392.83	0.580048	-2.62451e-06
1393.73	0.581482	0.00069397
1394.57	0.581299	-1.34888e-05
1395.47	0.58017	-3.69263e-06
1396.37	0.580719	3.26843e-05
1397.21	0.580872	-1.20239e-05
1398.11	0.580078	-3.32642e-06
1399.01	0.580414	1.48926e-05
1399.85	0.579987	-4.85229e-06
1400.75	0.581177	-1.12305e-05
1401.65	0.58017	8.91113e-06
1402.49	0.579926	-4.15039e-06
1403.39	0.58136	-1.20239e-05
1404.29	0.58078	1.92261e-06
1405.13	0.579956	-5.46265e-06
1406.03	0.580414	-7.08008e-06
1406.93	0.581238	-4.57764e-06
1407.77	0.579834	-4.05884e-06
1408.67	0.581299	-1.19019e-05
1409.57	0.579926	6.71387e-07
1410.43	-0.696503	-0.0176544
1411.31	0.580078	-3.84521e-06
1412.21	0.580933	-5.00488e-06
1413.07	-0.697418	-0.00944824
1413.95	0.581177	-1.18713e-05
1414.85	0.580231	-2.74658e-06
1415.73	0.00169067	0.0107941
1416.59	0.581207	-1.21765e-05
1417.49	0.580231	-4.5166e-06
1418.37	0.00175171	0.00403076
1419.23	0.580719	-7.08008e-06
1420.13	0.58139	-1.22375e-05
1421.03	0.581665	0.000998535
1421.87	0.581146	-1.30005e-05
1422.77	0.58017	-4.60815e-06
1423.67	0.581055	3.1189e-05
1424.51	0.580566	-7.20215e-06
1425.41	0.579865	-1.19019e-06
1426.31	0.579865	1.86157e-05
1427.15	0.581268	-1.31226e-05
1428.05	0.581085	-1.16882e-05
1428.95	0.579987	9.64355e-06
1429.79	0.580444	-5.7373e-06
1430.69	0.579895	-2.99072e-06
1431.59	0.580811	-1.77002e-06
1432.43	0.5802	-6.46973e-06
1433.33	0.581329	-1.39465e-05
1434.23	0.579987	3.44849e-06
1435.07	0.580353	-1.00403e-05
1435.97	0.579773	-3.93677e-06
1436.87	0.579773	4.45557e-06
1437.73	-0.697998	-0.0178284
1438.61	0.579895	-1.12915e-06
1439.51	0.579987	1.31226e-06
1440.37	-0.697815	-0.00958862
1441.25	0.581207	-1.32141e-05
1442.15	0.581116	-8.17871e-06
1443.03	0.00114746	0.0108063
1443.89	0.580933	-1.05286e-05
1444.79	0.580505	-5.18799e-06
1445.67	0.0019104	0.00412964
1446.53	0.581146	-1.22681e-05
1447.43	0.580963	-8.5144e-06
1448.33	0.580322	0.00156342
1449.17	0.579865	-2.92969e-06
1450.07	0.579895	-1.77002e-06
1450.97	0.580811	3.60413e-05
1451.81	0.580017	-4.36401e-06
1452.71	0.579926	-1.92261e-06
1453.61	0.580078	1.98669e-05
1454.45	0.580841	-9.0332e-06
1455.35	0.580383	-7.99561e-06
1456.25	0.580872	1.64795e-06
1457.09	0.579895	-4.05884e-06
1457.99	0.581299	-1.52588e-05
1458.89	0.579865	8.30078e-06
1459.73	0.580627	-8.08716e-06
1460.63	0.580475	-8.20923e-06
1461.53	0.581024	-4.45557e-06
1462.37	0.579895	-4.60815e-06
1463.27	0.581055	-1.06812e-05
1464.17	0.579834	3.38745e-06
1465.03	-0.697144	-0.0180145
1465.91	0.581268	-1.33057e-05
1466.81	0.580475	-4.88281e-06
1467.67	-0.69751	-0.0097229
1468.55	0.581238	-1.37634e-05
1469.45	0.579895	1.34277e-06
1470.33	0.0018158	0.0108368
1471.19	0.580841	-9.82666e-06
1472.09	0.580322	-4.42505e-06
1472.97	0.00117493	0.00422607
1473.83	0.581299	-1.41296e-05
1474.73	0.580414	-8.36182e-06
1475.63	0.580658	0.0026825
1476.47	0.579895	-4.11987e-06
1477.37	0.581238	-1.31531e-05
1478.27	0.580322	3.86353e-05
1479.11	0.58017	-6.62231e-06
1480.01	0.58075	-7.99561e-06
1480.91	0.581085	1.16272e-05
1481.75	0.579926	-4.76074e-06
1481.89	0.581268	-1.43433e-05