File: Edgar/20240531/20240531/electrodeposition_pulsed_potential_20240531_A/pulses_2000_to_3000.txt
Time (s)	WE(1).Potential (V)	WE(1).Current (A)
1608.82	-0.697449	-0.0198486
1609.3	0.48288	1.51062e-05
1609.8	0.484222	7.63855e-05
1610.26	-0.697906	-0.012384
1610.74	0.483826	1.06201e-05
1611.24	0.483795	3.84521e-05
1611.72	0.000698853	0.010144
1612.18	0.483582	6.83594e-06
1612.68	0.484375	1.80969e-05
1613.16	-0.000500488	0.00598175
1613.62	0.483337	6.62231e-06
1614.12	0.482849	2.20947e-05
1614.62	0.483887	0.0124176
1615.06	0.484009	1.95313e-06
1615.56	0.483307	1.57166e-05
1616.06	0.484375	0.000395233
1616.52	-0.698578	-0.0197662
1617	0.484406	6.56128e-06
1617.5	0.484161	8.13293e-05
1617.96	-0.699707	-0.0123779
1618.44	0.484253	5.95093e-06
1618.94	0.484467	3.34778e-05
1619.42	-0.000167847	0.0101715
1619.88	0.483917	6.89697e-06
1620.38	0.484344	1.88293e-05
1620.86	-0.000119019	0.00601013
1621.32	0.482635	1.02539e-05
1621.82	0.482635	2.45361e-05
1622.32	0.483917	0.0124756
1622.76	0.484467	7.01904e-07
1623.26	0.482727	1.86768e-05
1623.76	0.484344	0.000405334
1624.22	-0.69873	-0.0197815
1624.7	0.483734	9.15527e-06
1625.2	0.484009	8.08105e-05
1625.66	-0.698029	-0.0124084
1626.14	0.482666	1.6571e-05
1626.64	0.484528	3.44238e-05
1627.12	-0.000964355	0.0101898
1627.58	0.483887	7.84302e-06
1628.08	0.483337	3.05176e-05
1628.56	0.000402832	0.006026
1629.02	0.48288	1.15356e-05
1629.52	0.483734	1.39771e-05
1630.02	0.483887	0.0125183
1630.46	0.483826	1.98364e-06
1630.96	0.483582	1.32751e-05
1631.46	0.484009	0.000420349
1631.92	-0.697693	-0.0198242
1632.4	0.483002	1.49231e-05
1632.9	0.484314	7.87354e-05
1633.36	-0.697906	-0.0124329
1633.84	0.482635	1.53503e-05
1634.34	0.484344	3.36304e-05
1634.82	0.000256348	0.0101624
1635.28	0.483002	1.15662e-05
1635.78	0.484406	1.88599e-05
1636.26	0.00083313	0.00602631
1636.72	0.484314	1.83105e-06
1637.22	0.482666	2.47803e-05
1637.72	0.482056	0.0125702
1638.16	0.484039	3.20435e-06
1638.66	0.483368	1.33057e-05
1639.16	0.483032	0.000434204
1639.62	-0.69873	-0.0198547
1640.1	0.484497	4.94385e-06
1640.6	0.483337	8.77075e-05
1641.06	-0.698578	-0.0124603
1641.54	0.484375	4.21143e-06
1642.04	0.482758	4.63562e-05
1642.52	-3.66211e-05	0.0101746
1642.98	0.482849	1.27563e-05
1643.48	0.483826	2.32849e-05
1643.96	-0.000793457	0.00604279
1644.42	0.482635	1.40076e-05
1644.92	0.484222	1.33362e-05
1645.42	0.483948	0.0126007
1645.86	0.482819	1.04675e-05
1646.36	0.484222	9.30786e-06
1646.86	0.484467	0.000434784
1647.32	-0.698273	-0.0198792
1647.8	0.483856	9.06372e-06
1648.3	0.483154	8.87756e-05
1648.76	-0.699677	-0.0124786
1649.24	0.482635	1.24817e-05
1649.74	0.484344	3.57056e-05
1650.22	-0.000189209	0.0101501
1650.68	0.483032	1.08948e-05
1651.18	0.483063	2.80457e-05
1651.66	0.00020752	0.00604401
1652.12	0.483368	7.90405e-06
1652.62	0.484222	1.34277e-05
1653.12	0.482269	0.0126404
1653.56	0.482758	1.21155e-05
1654.06	0.483765	1.19629e-05
1654.56	0.484406	0.000444092
1655.02	-0.69754	-0.019928
1655.5	0.482819	1.58081e-05
1656	0.48349	8.46558e-05
1656.46	-0.698578	-0.0125092
1656.94	0.483307	1.13831e-05
1657.44	0.484192	3.77808e-05
1657.92	3.96729e-05	0.0101532
1658.38	0.482727	1.09863e-05
1658.88	0.483337	2.7832e-05
1659.36	0.000387573	0.00604156
1659.82	0.483887	1.37329e-06
1660.32	0.484283	1.29089e-05
1660.82	0.482452	0.012674
1661.26	0.483154	7.78198e-06
1661.76	0.483917	1.14441e-05
1662.26	0.484314	0.000456909
1662.72	-0.699127	-0.0199493
1663.2	0.482727	1.58691e-05
1663.7	0.483948	8.48694e-05
1664.16	-0.698944	-0.0125336
1664.64	0.484192	5.24902e-06
1665.14	0.48288	4.65393e-05
1665.62	-0.000579834	0.010144
1666.08	0.483521	7.56836e-06
1666.58	0.4841	2.22473e-05
1667.06	0.000109863	0.00604645
1667.52	0.482605	1.3031e-05
1668.02	0.483063	2.3468e-05
1668.52	0.482544	0.0127106
1668.96	0.482758	1.14441e-05
1669.46	0.483826	1.40381e-05
1669.96	0.482971	0.000478577
1670.42	-0.698547	-0.0199768
1670.9	0.482727	1.79749e-05
1671.4	0.484314	8.1543e-05
1671.86	-0.69809	-0.0125732
1672.34	0.483917	6.43921e-06
1672.84	0.482697	4.68445e-05
1673.32	-0.00039978	0.0101166
1673.78	0.483948	4.11987e-06
1674.28	0.482544	3.43018e-05
1674.76	-0.000604248	0.00605164
1675.22	0.484344	8.8501e-07
1675.72	0.483917	1.57166e-05
1676.22	0.482544	0.0127441
1676.66	0.483063	1.24817e-05
1677.16	0.483398	1.40686e-05
1677.66	0.483398	0.000486328
1678.12	-0.697754	-0.0200256
1678.6	0.484222	7.93457e-06
1679.1	0.482788	9.57336e-05
1679.56	-0.698151	-0.0126129
1680.04	0.484131	7.59888e-06
1680.54	0.482605	4.70886e-05
1681.02	-0.00020752	0.0101074
1681.48	0.483765	7.23267e-06
1681.98	0.483368	2.65503e-05
1682.46	-0.000228882	0.00605316
1682.92	0.484344	1.92261e-06
1683.42	0.484283	1.62964e-05
1683.92	0.483246	0.0127625
1684.36	0.48407	2.04468e-06
1684.86	0.482513	2.005e-05
1685.36	0.482727	0.000501434
1685.82	-0.697571	-0.0200531
1686.3	0.484375	6.04248e-06
1686.8	0.483643	8.97522e-05
1687.26	-0.697998	-0.0126465
1687.74	0.482849	1.47095e-05
1688.24	0.483612	4.16565e-05
1688.72	-0.000805664	0.0100952
1689.18	0.484161	4.45557e-06
1689.68	0.484192	2.28882e-05
1690.16	0.000613403	0.00605225
1690.62	0.483582	6.74438e-06
1691.12	0.483612	1.80054e-05
1691.62	0.483551	0.0128052
1692.06	0.483276	7.44629e-06
1692.56	0.482849	1.68762e-05
1693.06	0.483887	0.000507507
1693.52	-0.698669	-0.0200653
1694	0.484436	6.28662e-06
1694.5	0.483307	9.31396e-05
1694.96	-0.698273	-0.0126617
1695.44	0.483978	5.88989e-06
1695.94	0.48349	4.45862e-05
1696.42	-4.27246e-05	0.0100952
1696.88	0.483032	1.13831e-05
1697.38	0.483032	3.02124e-05
1697.86	-0.000753784	0.00605835
1698.32	0.483368	9.0332e-06
1698.82	0.484314	1.26648e-05
1699.32	0.482422	0.0128296
1699.76	0.482727	1.19019e-05
1700.26	0.483765	1.40076e-05
1700.76	0.484467	0.00052002
1701.22	-0.699158	-0.020105
1701.7	0.48291	1.78833e-05
1702.2	0.483795	9.0271e-05
1702.66	-0.698425	-0.0126923
1703.14	0.4841	9.91821e-06
1703.64	0.482788	4.79126e-05
1704.12	-0.000476074	0.0100677
1704.58	0.482727	1.35498e-05
1705.08	0.482666	3.23792e-05
1705.56	0.000140381	0.00605591
1706.02	0.483063	9.79614e-06
1706.52	0.482635	2.52991e-05
1707.02	0.483185	0.0128571
1707.46	0.484131	1.98364e-06
1707.96	0.482971	1.86157e-05
1708.46	0.484314	0.000531311
1708.92	-0.698792	-0.0201355
1709.4	0.483612	1.06201e-05
1709.9	0.483276	9.55505e-05
1710.36	-0.698303	-0.0127289
1710.84	0.4841	4.54712e-06
1711.34	0.484222	3.96423e-05
1711.82	-0.000521851	0.0100769
1712.28	0.484039	3.54004e-06
1712.78	0.484253	2.24915e-05
1713.26	-0.000646973	0.00606018
1713.72	0.484161	2.56348e-06
1714.22	0.483368	2.01721e-05
1714.72	0.482178	0.0128967
1715.16	0.482697	1.16577e-05
1715.66	0.483734	1.33972e-05
1716.16	0.483948	0.000549011
1716.62	-0.698486	-0.0201569
1717.1	0.483948	7.90405e-06
1717.6	0.484314	8.71582e-05
1718.06	-0.69873	-0.0127441
1718.54	0.483826	8.81958e-06
1719.04	0.482758	5.02319e-05
1719.52	9.15527e-05	0.0100586
1719.98	0.482849	1.41602e-05
1720.48	0.483368	2.95105e-05
1720.96	-1.2207e-05	0.0060495
1721.42	0.482819	8.8501e-06
1721.92	0.482849	2.46582e-05
1722.42	0.483032	0.0129242
1722.86	0.482849	1.16272e-05
1723.36	0.484283	9.97925e-06
1723.86	0.483185	0.000565186
1724.32	-0.698975	-0.0201935
1724.8	0.4841	9.0332e-06
1725.3	0.483856	9.13086e-05
1725.76	-0.698059	-0.0127808
1726.24	0.484192	5.52368e-06
1726.74	0.483978	3.75977e-05
1727.22	5.18799e-05	0.0100494
1727.68	0.482819	1.47705e-05
1728.18	0.482758	3.2074e-05
1728.66	-0.000418091	0.00606018
1729.12	0.483856	3.38745e-06
1729.62	0.482971	2.21863e-05
1730.12	0.482422	0.0129517
1730.56	0.484131	2.80762e-06
1731.06	0.483002	1.8219e-05
1731.56	0.483215	0.000582275
1732.02	-0.699036	-0.0202301
1732.5	0.483368	1.46484e-05
1733	0.483093	9.66187e-05
1733.46	-0.699493	-0.0128113
1733.94	0.484222	6.65283e-06
1734.44	0.482758	4.85229e-05
1734.92	-0.000827026	0.0100372
1735.38	0.484314	3.05176e-06
1735.88	0.483337	3.14026e-05
1736.36	-0.00057373	0.00606171
1736.82	0.483521	8.57544e-06
1737.32	0.483978	1.64795e-05
1737.82	0.482391	0.0129822
1738.26	0.482758	1.22681e-05
1738.76	0.484344	9.58252e-06
1739.26	0.484375	0.000588989
1739.72	-0.697601	-0.0202728
1740.2	0.482849	1.651e-05
1740.7	0.483032	9.91821e-05
1741.16	-0.698242	-0.012851
1741.64	0.482666	1.52893e-05
1742.14	0.484161	3.81775e-05
1742.62	0.000192261	0.0100189
1743.08	0.483246	1.07727e-05
1743.58	0.482788	3.30505e-05
1744.06	-0.000445557	0.00606445
1744.52	0.4841	5.21851e-06
1745.02	0.483795	1.45264e-05
1745.52	0.483459	0.0130066
1745.96	0.483246	6.31714e-06
1746.46	0.482788	1.9104e-05
1746.96	0.482849	0.000618286
1747.42	-0.698792	-0.020285
1747.9	0.483368	1.50146e-05
1748.4	0.483795	9.27734e-05
1748.86	-0.699341	-0.0128662
1749.34	0.484192	5.52368e-06
1749.84	0.483002	4.69971e-05
1750.32	-0.000909424	0.0100067
1750.78	0.482849	1.41907e-05
1751.28	0.482971	3.1189e-05
1751.76	-0.000326538	0.00606079
1752.22	0.483765	6.40869e-06
1752.72	0.483429	2.14844e-05
1753.22	0.483459	0.0130371
1753.66	0.483185	9.09424e-06
1754.16	0.483215	1.84631e-05
1754.66	0.48288	0.000635986
1755.12	-0.698792	-0.0203308
1755.6	0.483246	1.45874e-05
1756.1	0.483978	9.43909e-05
1756.56	-0.698364	-0.0129028
1757.04	0.484253	4.48608e-06
1757.54	0.482941	4.93164e-05
1758.02	-0.000814819	0.00999146
1758.48	0.483917	6.83594e-06
1758.98	0.484314	2.27356e-05
1759.46	0.000415039	0.0060553
1759.92	0.484161	4.57764e-06
1760.42	0.482788	2.38647e-05
1760.92	0.482544	0.0130737
1761.36	0.483124	1.06201e-05
1761.86	0.483643	1.64185e-05
1762.36	0.48291	0.000655518
1762.82	-0.698425	-0.0203491
1763.3	0.48288	1.51062e-05
1763.8	0.484192	9.34143e-05
1764.26	-0.699005	-0.0129303
1764.74	0.483948	7.59888e-06
1765.24	0.483002	4.8645e-05
1765.72	0.000268555	0.00997314
1766.18	0.483765	7.72095e-06
1766.68	0.484222	2.23083e-05
1767.16	0.000738525	0.00605591
1767.62	0.484192	3.90625e-06
1768.12	0.482697	2.42615e-05
1768.62	0.482452	0.0130981
1769.06	0.482788	1.15967e-05
1769.56	0.482788	2.16064e-05
1770.06	0.482941	0.000672913
1770.52	-0.698792	-0.0203796
1771	0.483246	1.32446e-05
1771.5	0.482819	0.000102753
1771.96	-0.699341	-0.0129578
1772.44	0.483917	7.35474e-06
1772.94	0.482819	4.92249e-05
1773.42	8.23975e-05	0.0099762
1773.88	0.483887	6.073e-06
1774.38	0.48291	3.31421e-05
1774.86	-0.000494385	0.00606354
1775.32	0.482941	1.06812e-05
1775.82	0.482819	2.49939e-05
1776.32	0.482513	0.0131287
1776.76	0.482758	1.20544e-05
1777.26	0.482788	2.18506e-05
1777.76	0.48288	0.000698242
1778.22	-0.69873	-0.0204163
1778.7	0.482605	1.88293e-05
1779.2	0.483948	9.67712e-05
1779.66	-0.698944	-0.0130005
1780.14	0.483063	1.44653e-05
1780.64	0.483063	4.75769e-05
1781.12	-0.00102844	0.00995178
1781.58	0.482788	1.44348e-05
1782.08	0.483856	2.57568e-05
1782.56	-0.00062561	0.0060614
1783.02	0.48288	1.07117e-05
1783.52	0.484406	1.38855e-05
1784.02	0.482819	0.0131439
1784.46	0.482758	1.21765e-05
1784.96	0.48291	2.22778e-05
1785.46	0.482788	0.000725708
1785.92	-0.699066	-0.0204376
1786.4	0.484314	7.50732e-06
1786.9	0.482819	0.000103821
1787.36	-0.699585	-0.0130249
1787.84	0.483612	8.88062e-06
1788.34	0.483093	4.88892e-05
1788.82	0.000323486	0.00992737
1789.28	0.483276	1.08948e-05
1789.78	0.484314	2.04773e-05
1790.26	0.00067749	0.00605316
1790.72	0.483826	6.10352e-06
1791.22	0.482635	2.76794e-05
1791.72	0.482666	0.0131683
1792.16	0.484131	2.83813e-06
1792.66	0.482574	2.09961e-05
1793.16	0.484161	0.000744629
1793.62	-0.697571	-0.0204773
1794.1	0.483887	1.06506e-05
1794.6	0.483002	0.00010437
1795.06	-0.69812	-0.0130676
1795.54	0.482758	1.50452e-05
1796.04	0.483917	4.24805e-05
1796.52	-0.000311279	0.00992737
1796.98	0.483124	1.08948e-05
1797.48	0.483521	2.81372e-05
1797.96	0.000820923	0.00605225
1798.42	0.484192	6.92749e-06
1798.92	0.483063	2.0874e-05
1799.42	0.482666	0.0131897
1799.86	0.484161	1.43433e-06
1800.36	0.483582	1.54419e-05
1800.86	0.482941	0.000779419
1801.32	-0.699036	-0.0205078
1801.8	0.483887	1.07422e-05
1802.3	0.484131	9.56726e-05
1802.76	-0.698364	-0.0130859
1803.24	0.483673	9.61304e-06
1803.74	0.483948	4.24194e-05
1804.22	-0.000671387	0.00990295
1804.68	0.484192	3.9978e-06
1805.18	0.482788	3.36304e-05
1805.66	-0.000247192	0.00605835
1806.12	0.482819	1.29395e-05
1806.62	0.483765	1.58997e-05
1807.12	0.482666	0.0132263
1807.56	0.484222	1.83105e-06
1808.06	0.484039	1.21155e-05
1808.56	0.482849	0.000815735
1809.02	-0.698059	-0.0205414
1809.5	0.482941	1.68457e-05
1810	0.483398	0.000102173
1810.46	-0.699432	-0.0131073
1810.94	0.482849	1.63269e-05
1811.44	0.483673	4.40369e-05
1811.92	0.000509644	0.00989075
1812.38	0.483887	5.82886e-06
1812.88	0.484009	2.55127e-05
1813.36	-0.000485229	0.00605743
1813.82	0.482849	1.19019e-05
1814.32	0.483582	2.26746e-05
1814.82	0.483307	0.0132507
1815.26	0.484344	1.15967e-06
1815.76	0.484222	1.10474e-05
1816.26	0.483917	0.000836182
1816.72	-0.697601	-0.0205597
1817.2	0.483643	1.21155e-05
1817.7	0.483185	0.000105225
1818.16	-0.699341	-0.0131409
1818.64	0.483276	1.34277e-05
1819.14	0.48349	4.61426e-05
1819.62	0.000112915	0.00987549
1820.08	0.484192	6.46973e-06
1820.58	0.483856	2.44446e-05
1821.06	0.000372314	0.0060498
1821.52	0.483002	1.08643e-05
1822.02	0.482941	2.5177e-05
1822.52	0.482727	0.0132751
1822.96	0.484314	1.92261e-06
1823.46	0.483093	1.74866e-05
1823.96	0.48407	0.000870361
1824.42	-0.698425	-0.0205872
1824.9	0.483856	1.08032e-05
1825.4	0.482941	0.000107574
1825.86	-0.699463	-0.0131653
1826.34	0.483063	1.40991e-05
1826.84	0.484009	4.245e-05
1827.32	0.000436401	0.00986633
1827.78	0.483276	1.1322e-05
1828.28	0.483337	2.76184e-05
1828.76	-0.000622559	0.00605652
1829.22	0.484161	4.45557e-06
1829.72	0.483887	1.89819e-05
1830.22	0.483704	0.0132996
1830.66	0.483856	3.72314e-06
1831.16	0.484253	1.01624e-05
1831.66	0.48288	0.000919495
1832.12	-0.697876	-0.0206268
1832.6	0.482788	1.80054e-05
1833.1	0.484253	0.000101349
1833.56	-0.698303	-0.0132019
1834.04	0.484253	5.64575e-06
1834.54	0.484131	4.45557e-05
1835.02	-0.000845337	0.00985413
1835.48	0.482788	1.41602e-05
1835.98	0.484375	2.38647e-05
1836.46	-0.00039978	0.00605438
1836.92	0.483704	6.10352e-06
1837.42	0.482788	2.48108e-05
1837.92	0.483582	0.0133209
1838.36	0.483612	7.47681e-06
1838.86	0.482849	2.02332e-05
1839.36	0.484283	0.000957642
1839.82	-0.697662	-0.0206573
1840.3	0.483582	1.0437e-05
1840.8	0.4841	0.000100433
1841.26	-0.698883	-0.0132355
1841.74	0.484222	6.71387e-06
1842.24	0.483978	4.49524e-05
1842.72	-0.000213623	0.00985107
1843.18	0.483032	1.20239e-05
1843.68	0.482849	3.50342e-05
1844.16	0.000244141	0.00604828
1844.62	0.484131	2.50244e-06
1845.12	0.483307	2.13928e-05
1845.62	0.483612	0.0133423
1846.06	0.483215	8.54492e-06
1846.56	0.483398	1.78528e-05
1847.06	0.483795	0.00101044
1847.52	-0.697632	-0.0206787
1848	0.48349	1.19324e-05
1848.5	0.483124	0.000110657
1848.96	-0.697998	-0.013266
1849.44	0.482971	1.474e-05
1849.94	0.484161	4.20227e-05
1850.42	-0.000802612	0.00983276
1850.88	0.484314	3.35693e-06
1851.38	0.483765	2.6947e-05
1851.86	-0.000350952	0.00605164
1852.32	0.483246	9.21631e-06
1852.82	0.483215	2.29492e-05
1853.32	0.482544	0.0133881
1853.76	0.483856	2.7771e-06
1854.26	0.48407	1.37329e-05
1854.76	0.483368	0.00106812
1855.22	-0.698608	-0.020697
1855.7	0.484131	9.33838e-06
1856.2	0.482788	0.000112061
1856.66	-0.699402	-0.0132843
1857.14	0.48407	8.69751e-06
1857.64	0.483429	4.6814e-05
1858.12	0.000259399	0.00980835
1858.58	0.482788	1.48926e-05
1859.08	0.484192	2.45667e-05
1859.56	-0.000262451	0.00604553
1860.02	0.482819	1.35803e-05
1860.52	0.484161	1.37939e-05
1861.02	0.48233	0.0134003
1861.46	0.482849	1.24207e-05
1861.96	0.484161	1.3031e-05
1862.46	0.484406	0.0011145
1862.92	-0.697937	-0.0207306
1863.4	0.48288	1.82495e-05
1863.9	0.483826	0.000106689
1864.36	-0.69812	-0.0133179
1864.84	0.483734	1.24512e-05
1865.34	0.483307	4.83704e-05
1865.82	-0.000735474	0.00979309
1866.28	0.483246	1.01929e-05
1866.78	0.484131	2.52075e-05
1867.26	-0.000204468	0.0060498
1867.72	0.483307	1.01624e-05
1868.22	0.483337	2.18506e-05
1868.72	0.483063	0.0134186
1869.16	0.484131	3.35693e-06
1869.66	0.483032	2.02026e-05
1870.16	0.48291	0.00118805
1870.62	-0.698639	-0.020752
1871.1	0.483551	1.48621e-05
1871.6	0.483856	0.000106659
1872.06	-0.698456	-0.0133453
1872.54	0.484009	8.45337e-06
1873.04	0.483246	4.83093e-05
1873.52	0.000466919	0.00979004
1873.98	0.483856	7.65991e-06
1874.48	0.483734	2.87781e-05
1874.96	-0.000274658	0.00604401
1875.42	0.483978	6.98853e-06
1875.92	0.483307	2.37732e-05
1876.42	0.48233	0.0134521
1876.86	0.483734	6.74438e-06
1877.36	0.483795	1.75171e-05
1877.86	0.483032	0.00126709
1878.32	-0.698944	-0.0207794
1878.8	0.483978	1.08643e-05
1879.3	0.483856	0.000107574
1879.76	-0.698303	-0.0133698
1880.24	0.482788	1.60217e-05
1880.74	0.484222	4.25415e-05
1881.22	-0.000521851	0.00977173
1881.68	0.484222	6.53076e-06
1882.18	0.483551	3.01819e-05
1882.66	0.000714111	0.00603882
1883.12	0.483154	1.05286e-05
1883.62	0.482727	2.59705e-05
1884.12	0.482208	0.0134766
1884.56	0.483887	3.02124e-06
1885.06	0.482819	2.04468e-05
1885.56	0.483978	0.00138672
1886.02	-0.69809	-0.0208282
1886.5	0.483734	1.40686e-05
1887	0.484039	0.000108459
1887.46	-0.699524	-0.0134033
1887.94	0.483032	1.47705e-05
1888.44	0.482849	5.2124e-05
1888.92	-0.000561523	0.00976868
1889.38	0.483215	1.13831e-05
1889.88	0.483246	3.25012e-05
1890.36	5.49316e-05	0.00604218
1890.82	0.483093	1.37939e-05
1891.32	0.483887	1.92261e-05
1891.82	0.483612	0.0134918
1892.26	0.483154	9.85718e-06
1892.76	0.48349	1.76392e-05
1893.26	0.484192	0.00147583
1893.72	-0.699158	-0.0208466
1894.2	0.482666	1.88293e-05
1894.7	0.482605	0.000118195
1895.16	-0.698761	-0.0134216
1895.64	0.483856	8.94165e-06
1896.14	0.483337	4.93164e-05
1896.62	-0.000854492	0.00975037
1897.08	0.48349	1.2146e-05
1897.58	0.483673	3.01819e-05
1898.06	0.00104065	0.00603577
1898.52	0.482697	1.51367e-05
1899.02	0.483459	2.22473e-05
1899.52	0.482574	0.0135101
1899.96	0.483032	9.49097e-06
1900.46	0.483521	1.62354e-05
1900.96	0.483612	0.00158813
1901.42	-0.697418	-0.020871
1901.9	0.482697	1.93787e-05
1902.4	0.482941	0.000117432
1902.86	-0.69809	-0.0134583
1903.34	0.483887	1.0376e-05
1903.84	0.482758	5.39551e-05
1904.32	0.000726318	0.00973206
1904.78	0.483032	1.23291e-05
1905.28	0.484192	2.55737e-05
1905.76	0.000933838	0.00603088
1906.22	0.483551	8.23975e-06
1906.72	0.484039	1.78833e-05
1907.22	0.482941	0.0135529
1907.66	0.483673	5.85937e-06
1908.16	0.482788	1.92566e-05
1908.66	0.484283	0.00173706
1909.12	-0.698181	-0.0208954
1909.6	0.483551	1.83716e-05
1910.1	0.483765	0.000113464
1910.56	-0.698975	-0.0134796
1911.04	0.484192	6.40869e-06
1911.54	0.482697	5.53589e-05
1912.02	-0.000506592	0.00971375
1912.48	0.48349	9.58252e-06
1912.98	0.484009	2.69165e-05
1913.46	0.000418091	0.00603546
1913.92	0.483643	6.89697e-06
1914.42	0.48291	2.80762e-05
1914.92	0.483887	0.013559
1915.36	0.482635	1.22681e-05
1915.86	0.484406	1.0376e-05
1916.36	0.483154	0.00189667
1916.82	-0.698792	-0.0209167
1917.3	0.482635	2.04468e-05
1917.8	0.482727	0.000118073
1918.26	-0.697815	-0.0135193
1918.74	0.483307	1.20544e-05
1919.24	0.484375	4.40063e-05
1919.72	-0.000927734	0.00970764
1920.18	0.483521	8.08716e-06
1920.68	0.482727	3.79639e-05
1921.16	0.000802612	0.00602753
1921.62	0.483307	1.27563e-05
1922.12	0.482666	2.67639e-05
1922.62	0.483551	0.0135864
1923.06	0.482574	1.3855e-05
1923.56	0.484039	1.40991e-05
1924.06	0.482941	0.00205811
1924.52	-0.697388	-0.0209503
1925	0.482788	1.86157e-05
1925.5	0.482788	0.000119934
1925.96	-0.699005	-0.0135345
1926.44	0.484406	5.98145e-06
1926.94	0.48291	5.03845e-05
1927.42	0.000506592	0.00968628
1927.88	0.483185	9.3689e-06
1928.38	0.483246	3.19519e-05
1928.86	0.00105591	0.00602631
1929.32	0.482727	1.25732e-05
1929.82	0.482971	2.52991e-05
1930.32	0.483826	0.0136017
1930.76	0.483459	7.99561e-06
1931.26	0.484283	1.23291e-05
1931.76	0.483368	0.00230804
1932.22	-0.69809	-0.0209839
1932.7	0.482635	2.01111e-05
1933.2	0.484436	0.000110443
1933.66	-0.697937	-0.0135773
1934.14	0.482788	1.49536e-05
1934.64	0.483307	5.29785e-05
1935.12	-1.52588e-05	0.00966492
1935.58	0.484375	4.05884e-06
1936.08	0.483124	3.26538e-05
1936.56	0.000939941	0.00602325
1937.02	0.483978	5.98145e-06
1937.52	0.483704	2.0813e-05
1938.02	0.482208	0.0136383
1938.46	0.483002	9.64355e-06
1938.96	0.484375	1.06506e-05
1939.46	0.484131	0.00250397
1939.92	-0.698212	-0.020993
1940.4	0.483398	1.651e-05
1940.9	0.483276	0.000119354
1941.36	-0.699463	-0.0135895
1941.84	0.483093	1.44653e-05
1942.34	0.484131	4.776e-05
1942.82	0.000518799	0.00965271
1943.28	0.484283	4.3335e-06
1943.78	0.482849	3.36304e-05
1944.26	2.74658e-05	0.00602417
1944.72	0.484406	3.66211e-06
1945.22	0.484131	1.94397e-05
1945.72	0.483398	0.0136475
1946.16	0.483521	6.53076e-06
1946.66	0.483368	1.8219e-05
1947.16	0.482941	0.00279388
1947.62	-0.697632	-0.0210388
1948.1	0.48291	1.84021e-05
1948.6	0.483521	0.000118134
1949.06	-0.699402	-0.0136353
1949.54	0.484344	6.62231e-06
1950.04	0.483551	5.0415e-05
1950.52	0.000488281	0.00963745
1950.98	0.48291	1.55945e-05
1951.48	0.482605	3.79028e-05
1951.96	0.000665283	0.00601776
1952.42	0.484467	2.01416e-06
1952.92	0.482788	2.66724e-05
1953.42	0.482086	0.013681
1953.86	0.482697	1.40076e-05
1954.36	0.482788	2.25525e-05
1954.86	0.483917	0.00302124
1955.32	-0.69873	-0.021048
1955.8	0.484406	9.79614e-06
1956.3	0.483093	0.000121521
1956.76	-0.699524	-0.0136566
1957.24	0.483398	1.34888e-05
1957.74	0.484375	4.53186e-05
1958.22	0.000512695	0.00962524
1958.68	0.484222	3.23486e-06
1959.18	0.483032	3.44849e-05
1959.66	0.000869751	0.00602386
1960.12	0.484039	4.45557e-06
1960.62	0.483002	2.54517e-05
1961.12	0.482269	0.0136963
1961.56	0.482635	1.28174e-05
1962.06	0.483124	2.06909e-05
1962.56	0.484619	0.003203125
1963.02	-0.698425	-0.0210815
1963.5	0.483704	9.73511e-06
1964	0.482758	0.000126587
1964.46	-0.697845	-0.0136871
1964.94	0.482849	1.54114e-05
1965.44	0.482666	5.79834e-05
1965.92	0.000134277	0.00962219
1966.38	0.483398	1.18103e-05
1966.88	0.482727	3.68958e-05
1967.36	0.000201416	0.00601715
1967.82	0.482849	1.25427e-05
1968.32	0.482758	2.6947e-05
1968.82	0.482574	0.0137115
1969.26	0.483826	5.7373e-06
1969.76	0.484192	1.14441e-05
1970.26	0.483643	0.00343811
1970.72	-0.697479	-0.0211121
1971.2	0.48407	9.33838e-06
1971.7	0.484192	0.000117493
1972.16	-0.698212	-0.0137238
1972.64	0.483673	9.67407e-06
1973.14	0.484344	4.65698e-05
1973.62	-0.000915527	0.00960999
1974.08	0.484314	3.35693e-06
1974.58	0.482941	3.70483e-05
1975.06	-0.000247192	0.00601776
1975.52	0.483215	8.78906e-06
1976.02	0.484314	1.77002e-05
1976.52	0.482422	0.0137329
1976.96	0.482605	1.3916e-05
1977.46	0.484436	1.06812e-05
1977.96	0.482666	0.00370392
1978.42	-0.699005	-0.0211243
1978.9	0.482635	1.9165e-05
1979.4	0.484436	0.000116699
1979.86	-0.699127	-0.0137329
1980.34	0.484436	4.73022e-06
1980.84	0.484131	4.7821e-05
1981.32	-0.00100708	0.00958557
1981.78	0.484558	3.35693e-06
1982.28	0.483307	3.27148e-05
1982.76	-0.000170898	0.0060202
1983.22	0.48407	3.41797e-06
1983.72	0.48291	2.75574e-05
1984.22	0.482208	0.0137482
1984.66	0.48407	3.69263e-06
1985.16	0.484375	1.13525e-05
1985.66	0.484375	0.003909
1986.12	-0.697968	-0.0211639
1986.6	0.483948	8.30078e-06
1987.1	0.482697	0.000127899
1987.56	-0.699524	-0.0137573
1988.04	0.48288	1.48315e-05
1988.54	0.482727	5.95093e-05
1989.02	-0.00103455	0.00958557
1989.48	0.482635	1.53503e-05
1989.98	0.483398	3.32031e-05
1990.46	-0.000561523	0.00601501
1990.92	0.484039	3.96729e-06
1991.42	0.482727	2.66724e-05
1991.92	0.483124	0.0137787
1992.36	0.482758	1.25427e-05
1992.86	0.483948	1.37329e-05
1993.36	0.482666	0.00410828
1993.82	-0.699036	-0.0211823
1994.3	0.482941	1.84631e-05
1994.8	0.484375	0.000117371
1995.26	-0.698944	-0.0137817
1995.74	0.483459	1.1322e-05
1996.24	0.484283	4.422e-05
1996.72	-0.000302124	0.00955505
1997.18	0.483673	9.70459e-06
1997.68	0.483917	2.89001e-05
1998.16	-0.000286865	0.00600647
1998.62	0.484467	4.88281e-06
1999.12	0.484406	1.54114e-05
1999.62	0.482452	0.0138
2000.06	0.483185	9.67407e-06
2000.56	0.484009	1.27258e-05
2001.06	0.483582	0.00426208
2001.52	-0.698212	-0.0211975
2002	0.482697	1.95007e-05
2002.5	0.484406	0.000121155
2002.96	-0.697845	-0.0138275
2003.44	0.48407	5.12695e-06
2003.94	0.483185	5.35583e-05
2004.42	0.000738525	0.009552
2004.88	0.484222	5.31006e-06
2005.38	0.482666	3.74451e-05
2005.86	-0.000683594	0.00601379
2006.32	0.484283	4.02832e-06
2006.82	0.484436	1.54419e-05
2007.32	0.481964	0.0138153
2007.76	0.482788	1.07117e-05
2008.26	0.484528	1.05591e-05
2008.76	0.484283	0.00441437
2009.22	-0.698303	-0.0212341
2009.7	0.483185	1.7395e-05
2010.2	0.482605	0.000134277
2010.66	-0.698029	-0.0138489
2011.14	0.484131	8.81958e-06
2011.64	0.48407	5.0293e-05
2012.12	-0.000991821	0.00953674
2012.58	0.48288	1.51062e-05
2013.08	0.482635	3.80249e-05
2013.56	-3.96729e-05	0.00600128
2014.02	0.484344	1.70898e-06
2014.52	0.483978	1.94397e-05
2015.02	0.4823	0.0138397
2015.46	0.484314	3.72314e-06
2015.96	0.483246	1.96838e-05
2016.46	0.48407	0.00459717
2016.92	-0.698914	-0.0212524
2017.4	0.484375	8.20923e-06
2017.9	0.482544	0.000134979
2018.36	-0.6987	-0.0138916
2018.84	0.483429	1.17798e-05
2019.34	0.482635	6.12793e-05
2019.82	0.000170898	0.00949707
2020.28	0.484161	5.88989e-06
2020.78	0.482635	3.84827e-05
2021.26	0.000869751	0.00599213
2021.72	0.483917	8.48389e-06
2022.22	0.482758	2.83203e-05
2022.72	0.482635	0.0138702
2023.16	0.483368	7.32422e-06
2023.66	0.484161	1.2146e-05
2024.16	0.483948	0.00476318
2024.62	-0.69873	-0.021283
2025.1	0.483246	1.16882e-05
2025.6	0.483887	0.000129272
2026.06	-0.699402	-0.0139008
2026.54	0.484344	5.58472e-06
2027.04	0.482788	5.76172e-05
2027.52	-0.000769043	0.00950623
2027.98	0.483673	8.8501e-06
2028.48	0.483032	3.30505e-05
2028.96	0.000460815	0.00599487
2029.42	0.482849	1.42517e-05
2029.92	0.482849	2.61841e-05
2030.42	0.483765	0.0138733
2030.86	0.484406	5.79834e-07
2031.36	0.482971	2.10876e-05
2031.86	0.484406	0.00487274
2032.32	-0.699036	-0.0213043
2032.8	0.483368	1.27563e-05
2033.3	0.484406	0.000126617
2033.76	-0.697662	-0.0139374
2034.24	0.483032	1.40991e-05
2034.74	0.483765	4.953e-05
2035.22	0.000604248	0.00947876
2035.68	0.484192	7.04956e-06
2036.18	0.484344	2.73743e-05
2036.66	-0.000552368	0.00599945
2037.12	0.482849	1.29089e-05
2037.62	0.484314	1.62354e-05
2038.12	0.483093	0.0139069
2038.56	0.483582	5.40161e-06
2039.06	0.482666	2.32239e-05
2039.56	0.483246	0.00500946
2040.02	-0.699005	-0.0213409
2040.5	0.484253	9.49097e-06
2041	0.484375	0.000126648
2041.46	-0.697784	-0.013974
2041.94	0.484436	5.40161e-06
2042.44	0.483795	5.23682e-05
2042.92	0.000604248	0.00946655
2043.38	0.483826	9.33838e-06
2043.88	0.483582	3.17688e-05
2044.36	0.000604248	0.00598877
2044.82	0.484375	2.44141e-06
2045.32	0.4841	2.04773e-05
2045.82	0.483795	0.013913
2046.26	0.483734	6.22559e-06
2046.76	0.483398	1.81885e-05
2047.26	0.482758	0.00510376
2047.72	-0.698486	-0.0213562
2048.2	0.482849	1.97449e-05
2048.7	0.483551	0.000134644
2049.16	-0.699463	-0.0139832
2049.64	0.482971	1.62964e-05
2050.14	0.483673	5.15137e-05
2050.62	0.000405884	0.00945435
2051.08	0.484283	2.28882e-06
2051.58	0.483704	2.96326e-05
2052.06	0.000604248	0.00598297
2052.52	0.483154	1.26953e-05
2053.02	0.48288	2.78015e-05
2053.52	0.482025	0.0139374
2053.96	0.483459	7.53784e-06
2054.46	0.483276	1.92261e-05
2054.96	0.482605	0.0052002
2055.42	-0.697937	-0.0213715
2055.9	0.484161	1.00403e-05
2056.4	0.483673	0.000134033
2056.86	-0.699493	-0.0140076
2057.34	0.482758	1.50452e-05
2057.84	0.483887	5.42603e-05
2058.32	0.000222778	0.00943909
2058.78	0.483887	6.2561e-06
2059.28	0.483551	3.02734e-05
2059.76	0.000909424	0.00598022
2060.22	0.483978	6.40869e-06
2060.72	0.484161	1.86462e-05
2061.22	0.482147	0.0139557
2061.66	0.483734	5.70679e-06
2062.16	0.484528	1.21765e-05
2062.66	0.482788	0.00528687
2063.12	-0.698334	-0.0213928
2063.6	0.482819	2.01111e-05
2064.1	0.482788	0.000141907
2064.56	-0.699066	-0.0140289
2065.04	0.483917	9.79614e-06
2065.54	0.483276	5.57251e-05
2066.02	-0.000674438	0.00942993
2066.48	0.483643	1.18408e-05
2066.98	0.482605	3.99475e-05
2067.46	-0.000384521	0.00598755
2067.92	0.482574	1.37329e-05
2068.42	0.484314	1.71814e-05
2068.92	0.482025	0.0139801
2069.36	0.482635	1.24512e-05
2069.86	0.484344	1.33057e-05
2070.36	0.484314	0.00537842
2070.82	-0.698029	-0.0214264
2071.3	0.48349	1.64185e-05
2071.8	0.482727	0.000141724
2072.26	-0.697998	-0.0140686
2072.74	0.484375	7.23267e-06
2073.24	0.482697	5.94788e-05
2073.72	0.000473022	0.00940552
2074.18	0.483398	1.11084e-05
2074.68	0.48407	2.92053e-05
2075.16	0.000549316	0.00597534
2075.62	0.482635	1.44043e-05
2076.12	0.482971	2.49634e-05
2076.62	0.483582	0.0139923
2077.06	0.482697	1.21765e-05
2077.56	0.484375	1.23901e-05
2078.06	0.4841	0.00546967
2078.52	-0.698639	-0.0214447
2079	0.483887	1.29089e-05
2079.5	0.48291	0.000143799
2079.96	-0.697937	-0.01409
2080.44	0.482727	1.77002e-05
2080.94	0.482666	6.14014e-05
2081.42	-0.000897217	0.00941162
2081.88	0.483551	7.41577e-06
2082.38	0.483978	2.89917e-05
2082.86	-0.000839233	0.00597778
2083.32	0.482727	1.44958e-05
2083.82	0.484131	1.89819e-05
2084.32	0.482483	0.0140045
2084.76	0.483276	1.15051e-05
2085.26	0.482666	2.34985e-05
2085.76	0.483368	0.00556641
2086.22	-0.697784	-0.0214752
2086.7	0.483704	1.10168e-05
2087.2	0.484161	0.00013739
2087.66	-0.69931	-0.0141113
2088.14	0.48407	9.18579e-06
2088.64	0.482666	6.11267e-05
2089.12	-0.000466919	0.0093811
2089.58	0.48349	1.15356e-05
2090.08	0.483612	3.06091e-05
2090.56	0.00088501	0.0059668
2091.02	0.483002	1.44348e-05
2091.52	0.482635	2.94189e-05
2092.02	0.483826	0.0140259
2092.46	0.483551	3.32642e-06
2092.96	0.482758	2.32849e-05
2093.46	0.483887	0.00565369
2093.92	-0.698883	-0.0214966
2094.4	0.484344	8.69751e-06
2094.9	0.484314	0.000136047
2095.36	-0.699188	-0.0141449
2095.84	0.483978	6.43921e-06
2096.34	0.484375	5.06592e-05
2096.82	0.000512695	0.00936584
2097.28	0.483093	1.40686e-05
2097.78	0.482727	3.89404e-05
2098.26	-0.000256348	0.00596802
2098.72	0.484375	3.66211e-06
2099.22	0.482635	2.90222e-05
2099.72	0.483704	0.014035
2100.16	0.483582	8.81958e-06
2100.66	0.482544	2.3468e-05
2101.16	0.484161	0.00572479
2101.62	-0.698914	-0.021524
2102.1	0.482666	1.84021e-05
2102.6	0.484222	0.000139465
2103.06	-0.698578	-0.0141632
2103.54	0.482697	1.80969e-05
2104.04	0.483887	5.4718e-05
2104.52	0.000192261	0.00935974
2104.98	0.483002	1.47705e-05
2105.48	0.48291	3.75977e-05
2105.96	0.000457764	0.00595764
2106.42	0.484039	7.32422e-06
2106.92	0.482788	2.78015e-05
2107.42	0.48349	0.0140625
2107.86	0.482971	1.17493e-05
2108.36	0.484375	1.23901e-05
2108.86	0.482513	0.00580688
2109.32	-0.698029	-0.0215546
2109.8	0.484222	8.69751e-06
2110.3	0.483276	0.000147034
2110.76	-0.699127	-0.0141907
2111.24	0.482635	1.76086e-05
2111.74	0.482697	6.18896e-05
2112.22	0.00043335	0.00933228
2112.68	0.482635	1.63574e-05
2113.18	0.482635	3.97034e-05
2113.66	-0.000750732	0.00596466
2114.12	0.484375	2.65503e-06
2114.62	0.482666	2.99377e-05
2115.12	0.483093	0.0140747
2115.56	0.484436	1.52588e-07
2116.06	0.483887	1.69067e-05
2116.56	0.483276	0.00588379
2117.02	-0.698029	-0.0215637
2117.5	0.484406	8.5144e-06
2118	0.484314	0.00014267
2118.46	-0.697845	-0.0142365
2118.94	0.483032	1.72119e-05
2119.44	0.483429	5.95703e-05
2119.92	-0.00114441	0.00932312
2120.38	0.483612	8.48389e-06
2120.88	0.483978	3.15552e-05
2121.36	-0.000378418	0.005961
2121.82	0.484344	2.68555e-06
2122.32	0.484222	1.99585e-05
2122.82	0.482574	0.0141022
2123.26	0.482971	1.14746e-05
2123.76	0.483368	2.16675e-05
2124.26	0.483215	0.00595886
2124.72	-0.698853	-0.021582
2125.2	0.48407	1.21155e-05
2125.7	0.482727	0.000154816
2126.16	-0.698181	-0.014267
2126.64	0.482727	1.78833e-05
2127.14	0.483185	5.78918e-05
2127.62	-0.000946045	0.00930786
2128.08	0.484314	4.15039e-06
2128.58	0.484314	2.74658e-05
2129.06	0.000485229	0.00594116
2129.52	0.484131	3.96729e-06
2130.02	0.483521	2.53906e-05
2130.52	0.482178	0.0141205
2130.96	0.483154	1.10168e-05
2131.46	0.482819	2.38647e-05
2131.96	0.4841	0.00603088
2132.42	-0.697693	-0.0216125
2132.9	0.48407	1.16577e-05
2133.4	0.484192	0.000143707
2133.86	-0.699371	-0.0142639
2134.34	0.482758	1.9165e-05
2134.84	0.482727	6.1554e-05
2135.32	0.000112915	0.0092865
2135.78	0.484192	6.01196e-06
2136.28	0.482574	4.19617e-05
2136.76	-3.05176e-05	0.00594879
2137.22	0.482971	9.00269e-06
2137.72	0.482758	3.01819e-05
2138.22	0.483002	0.0141357
2138.66	0.483856	4.85229e-06
2139.16	0.483185	2.20642e-05
2139.66	0.482635	0.00611115
2140.12	-0.698547	-0.0216339
2140.6	0.483429	1.5625e-05
2141.1	0.484253	0.000147583
2141.56	-0.698273	-0.0143036
2142.04	0.483124	1.59912e-05
2142.54	0.484039	5.30396e-05
2143.02	0.000427246	0.00927734
2143.48	0.483246	1.21155e-05
2143.98	0.484406	2.74048e-05
2144.46	0.000146484	0.00594513
2144.92	0.483185	1.21155e-05
2145.42	0.484467	1.74561e-05
2145.92	0.482666	0.0141571
2146.36	0.482666	1.41907e-05
2146.86	0.483368	2.04163e-05
2147.36	0.482727	0.00618195
2147.82	-0.698273	-0.0216736
2148.3	0.483307	1.86157e-05
2148.8	0.483246	0.000156311
2149.26	-0.69809	-0.0143402
2149.74	0.48291	1.81274e-05
2150.24	0.483917	5.54504e-05
2150.72	-0.000878906	0.00926819
2151.18	0.482941	1.53503e-05
2151.68	0.484192	3.08228e-05
2152.16	0.000579834	0.00592896
2152.62	0.482666	1.47705e-05
2153.12	0.483337	2.32849e-05
2153.62	0.481995	0.0141724
2154.06	0.484344	3.23486e-06
2154.56	0.482666	2.26135e-05
2155.06	0.483093	0.00625519
2155.52	-0.698547	-0.0216888
2156	0.48407	9.52148e-06
2156.5	0.484283	0.000149994
2156.96	-0.699249	-0.0143494
2157.44	0.482727	1.92871e-05
2157.94	0.484497	5.31311e-05
2158.42	0.000274658	0.00924072
2158.88	0.482697	1.84631e-05
2159.38	0.483337	3.65906e-05
2159.86	-0.000427246	0.00592743
2160.32	0.482819	1.59607e-05
2160.82	0.483826	2.18506e-05
2161.32	0.483795	0.0141754
2161.76	0.484344	2.71606e-06
2162.26	0.483154	2.09656e-05
2162.76	0.483643	0.00631409
2163.22	-0.698669	-0.021698
2163.7	0.484222	9.91821e-06
2164.2	0.484192	0.000151917
2164.66	-0.699036	-0.0143768
2165.14	0.484375	5.88989e-06
2165.64	0.484406	5.37109e-05
2166.12	0.000250244	0.00923767
2166.58	0.483643	1.03455e-05
2167.08	0.483643	3.36914e-05
2167.56	0.000247192	0.00592896
2168.02	0.483276	7.2937e-06
2168.52	0.483429	2.40479e-05
2169.02	0.48349	0.0141968
2169.46	0.482758	1.34583e-05
2169.96	0.482727	2.39258e-05
2170.46	0.482788	0.00638489
2170.92	-0.698578	-0.0217407
2171.4	0.483612	1.18103e-05
2171.9	0.484009	0.000155975
2172.36	-0.698669	-0.0144196
2172.84	0.484314	7.04956e-06
2173.34	0.484375	5.44128e-05
2173.82	-0.000299072	0.00921326
2174.28	0.483582	9.42993e-06
2174.78	0.484528	2.89307e-05
2175.26	-0.000686646	0.00592499
2175.72	0.484283	5.61523e-06
2176.22	0.483154	2.6001e-05
2176.72	0.482361	0.0142212
2177.16	0.484406	3.02124e-06
2177.66	0.484314	1.29395e-05
2178.16	0.483521	0.00643616
2178.62	-0.697296	-0.0217651
2179.1	0.483612	1.10168e-05
2179.6	0.484039	0.000157318
2180.06	-0.699219	-0.0144287
2180.54	0.484314	7.59888e-06
2181.04	0.483154	6.31409e-05
2181.52	0.00022583	0.00919189
2181.98	0.482697	1.69983e-05
2182.48	0.482544	4.00696e-05
2182.96	0.000869751	0.00591003
2183.42	0.482697	1.77002e-05
2183.92	0.483398	2.63672e-05
2184.42	0.482117	0.0142303
2184.86	0.482941	1.0437e-05
2185.36	0.483093	2.04468e-05
2185.86	0.482697	0.0064975
2186.32	-0.69751	-0.0217743
2186.8	0.483459	1.39771e-05
2187.3	0.484192	0.000157288
2187.76	-0.698975	-0.0144592
2188.24	0.483887	1.06201e-05
2188.74	0.48288	6.32629e-05
2189.22	-0.000897217	0.00919495
2189.68	0.48407	6.22559e-06
2190.18	0.483002	4.0741e-05
2190.66	-1.52588e-05	0.00591095
2191.12	0.484436	3.38745e-06
2191.62	0.483643	2.45972e-05
2192.12	0.483063	0.0142456
2192.56	0.483154	1.06812e-05
2193.06	0.484222	1.37634e-05
2193.56	0.482697	0.00655731
2194.02	-0.69873	-0.0217926
2194.5	0.483398	1.53503e-05
2195	0.483429	0.000163574
2195.46	-0.699493	-0.0144775
2195.94	0.482635	1.85242e-05
2196.44	0.484222	5.48096e-05
2196.92	-0.000500488	0.00918274
2197.38	0.482788	1.56555e-05
2197.88	0.484161	2.86865e-05
2198.36	-0.000714111	0.00591217
2198.82	0.483948	6.19507e-06
2199.32	0.484467	1.95007e-05
2199.82	0.482117	0.0142609
2200.26	0.483215	9.94873e-06
2200.76	0.4841	1.58691e-05
2201.26	0.482635	0.0066156
2201.72	-0.697205	-0.0218262
2202.2	0.483521	1.62659e-05
2202.7	0.483765	0.000163269
2203.16	-0.698608	-0.0145081
2203.64	0.483093	1.44653e-05
2204.14	0.483368	6.22864e-05
2204.62	-0.000579834	0.00916138
2205.08	0.48407	6.53076e-06
2205.58	0.48407	3.10669e-05
2206.06	0.000512695	0.00589996
2206.52	0.483246	9.3689e-06
2207.02	0.484436	1.93481e-05
2207.52	0.483124	0.01427
2207.96	0.483307	9.15527e-06
2208.46	0.482727	2.5116e-05
2208.96	0.483337	0.00666992
2209.42	-0.698608	-0.0218597
2209.9	0.483856	1.2146e-05
2210.4	0.482941	0.00017041
2210.86	-0.697723	-0.0145477
2211.34	0.483612	1.171875E-05
2211.84	0.482697	6.64673e-05
2212.32	-0.000680542	0.00913391
2212.78	0.483154	1.19629e-05
2213.28	0.484161	3.09448e-05
2213.76	-0.00062561	0.00590729
2214.22	0.484344	3.63159e-06
2214.72	0.483246	2.51465e-05
2215.22	0.48233	0.0142975
2215.66	0.483124	1.23901e-05
2216.16	0.482635	2.49939e-05
2216.66	0.483215	0.00670715
2217.12	-0.698944	-0.0218567
2217.6	0.483154	2.08435e-05
2218.1	0.483307	0.000170013
2218.56	-0.698792	-0.014566
2219.04	0.482758	1.87988e-05
2219.54	0.482819	6.61316e-05
2220.02	-0.000930786	0.00912781
2220.48	0.482758	1.61133e-05
2220.98	0.483093	3.48511e-05
2221.46	-5.79834e-05	0.00589478
2221.92	0.483765	8.11768e-06
2222.42	0.484253	2.02332e-05
2222.92	0.483795	0.0143005
2223.36	0.483551	9.12476e-06
2223.86	0.484131	1.36414e-05
2224.36	0.482941	0.00676208
2224.82	-0.697266	-0.0218872
2225.3	0.482697	1.93787e-05
2225.8	0.484314	0.000164886
2226.26	-0.699524	-0.0145813
2226.74	0.483368	1.32751e-05
2227.24	0.483215	6.29272e-05
2227.72	-0.00104065	0.00911865
2228.18	0.483337	1.19019e-05
2228.68	0.483582	3.17993e-05
2229.16	-0.000531006	0.00589539
2229.62	0.4841	4.11987e-06
2230.12	0.483063	2.78931e-05
2230.62	0.482117	0.0143158
2231.06	0.484406	3.2959e-06
2231.56	0.484344	1.40991e-05
2232.06	0.482758	0.00682434
2232.52	-0.697388	-0.0219177
2233	0.4841	9.27734e-06
2233.5	0.48288	0.000177643
2233.96	-0.698212	-0.0146088
2234.44	0.482605	1.87073e-05
2234.94	0.482666	6.75659e-05
2235.42	0.000439453	0.00909119
2235.88	0.48291	1.58081e-05
2236.38	0.483398	3.86963e-05
2236.86	-0.000592041	0.00589233
2237.32	0.482666	1.47095e-05
2237.82	0.482849	3.08838e-05
2238.32	0.482788	0.0143433
2238.76	0.482697	1.60522e-05
2239.26	0.482727	2.48108e-05
2239.76	0.484192	0.00686615
2240.22	-0.6987	-0.0219147
2240.7	0.484406	9.15527e-06
2241.2	0.484253	0.000171631
2241.66	-0.699371	-0.0146393
2242.14	0.484222	7.87354e-06
2242.64	0.484344	5.71594e-05
2243.12	-0.000860596	0.00908203
2243.58	0.483795	9.0332e-06
2244.08	0.482819	4.06799e-05
2244.56	-0.000198364	0.00588806
2245.02	0.484344	4.15039e-06
2245.52	0.484375	2.02942e-05
2246.02	0.483612	0.0143433
2246.46	0.483246	1.04065e-05
2246.96	0.483032	2.1759e-05
2247.46	0.483917	0.00691986
2247.92	-0.698181	-0.0219513
2248.4	0.484192	9.67407e-06
2248.9	0.484344	0.000171722
2249.36	-0.699066	-0.0146698
2249.84	0.482758	1.72119e-05
2250.34	0.483551	6.14014e-05
2250.82	0.000161743	0.00905762
2251.28	0.484131	5.46265e-06
2251.78	0.484406	3.07617e-05
2252.26	0.000152588	0.00588196
2252.72	0.48349	1.00403e-05
2253.22	0.482666	3.03955e-05
2253.72	0.483612	0.0143646
2254.16	0.484009	4.73022e-06
2254.66	0.483978	1.297e-05
2255.16	0.482544	0.0069751
2255.62	-0.697388	-0.0219757
2256.1	0.483185	1.87378e-05
2256.6	0.482727	0.000184631
2257.06	-0.699158	-0.014679
2257.54	0.483002	1.67847e-05
2258.04	0.48288	6.83899e-05
2258.52	-0.000881958	0.00905457
2258.98	0.483154	1.50452e-05
2259.48	0.482758	4.12903e-05
2259.96	0.000820923	0.00586853
2260.42	0.48291	1.28174e-05
2260.92	0.483002	2.93274e-05
2261.42	0.482178	0.0143707
2261.86	0.483551	7.44629e-06
2262.36	0.482605	2.65198e-05
2262.86	0.482452	0.00701416
2263.32	-0.698181	-0.0219727
2263.8	0.483032	1.828e-05
2264.3	0.483978	0.000177826
2264.76	-0.699188	-0.0146973
2265.24	0.483551	1.40686e-05
2265.74	0.483276	6.55518e-05
2266.22	-0.00107422	0.00903931
2266.68	0.482727	1.55945e-05
2267.18	0.483765	3.36609e-05
2267.66	4.88281e-05	0.00587158
2268.12	0.484283	4.36401e-06
2268.62	0.483612	2.24915e-05
2269.12	0.483154	0.014386
2269.56	0.48349	9.765625E-06
2270.06	0.483459	1.84937e-05
2270.56	0.483978	0.00705139
2271.02	-0.697174	-0.0220123
2271.5	0.484131	1.18103e-05
2272	0.484039	0.000175903
2272.46	-0.699402	-0.0147339
2272.94	0.482788	1.44043e-05
2273.44	0.48291	6.89087e-05
2273.92	-0.000860596	0.0090271
2274.38	0.4841	5.98145e-06
2274.88	0.483459	3.71399e-05
2275.36	-0.000534058	0.00586578
2275.82	0.484161	4.24194e-06
2276.32	0.484314	2.01721e-05
2276.82	0.482971	0.0143951
2277.26	0.48291	1.20239e-05
2277.76	0.482941	2.31934e-05
2278.26	0.482422	0.00712189
2278.72	-0.697632	-0.0220337
2279.2	0.482727	2.15149e-05
2279.7	0.48288	0.000190308
2280.16	-0.699463	-0.0147614
2280.64	0.48407	9.765625E-06
2281.14	0.483459	6.63452e-05
2281.62	0.000656128	0.00901184
2282.08	0.482849	1.61743e-05
2282.58	0.484406	3.29285e-05
2283.06	0.000845337	0.00585297
2283.52	0.483582	1.19934e-05
2284.02	0.482941	2.93884e-05
2284.52	0.482086	0.0144165
2284.96	0.48288	1.26953e-05
2285.46	0.483429	2.14539e-05
2285.96	0.484161	0.00715576
2286.42	-0.698303	-0.0220612
2286.9	0.484283	1.15967e-05
2287.4	0.484344	0.000181335
2287.86	-0.698029	-0.014798
2288.34	0.482849	1.85547e-05
2288.84	0.484406	5.82581e-05
2289.32	-0.000946045	0.00900269
2289.78	0.483185	1.07117e-05
2290.28	0.483398	3.86963e-05
2290.76	0.000537109	0.00585571
2291.22	0.484192	5.06592e-06
2291.72	0.483887	2.24304e-05
2292.22	0.482483	0.0144409
2292.66	0.482697	1.41296e-05
2293.16	0.483765	1.9104e-05
2293.66	0.483643	0.00720642
2294.12	-0.697388	-0.0220795
2294.6	0.483734	1.24817e-05
2295.1	0.484375	0.000184875
2295.56	-0.698547	-0.0148254
2296.04	0.483002	1.74561e-05
2296.54	0.484375	5.84412e-05
2297.02	-0.000881958	0.00896912
2297.48	0.483643	1.06812e-05
2297.98	0.482788	4.0802e-05
2298.46	0.000128174	0.00584961
2298.92	0.483246	1.24512e-05
2299.42	0.482513	2.93274e-05
2299.92	0.483185	0.014447
2300.36	0.484375	2.47192e-06
2300.86	0.482727	2.50854e-05
2301.36	0.482697	0.00725067
2301.82	-0.699127	-0.0220856
2302.3	0.484375	1.0498e-05
2302.8	0.482758	0.000198669
2303.26	-0.69873	-0.0148315
2303.74	0.483337	1.44043e-05
2304.24	0.484222	6.12793e-05
2304.72	-0.000146484	0.00895386
2305.18	0.483246	1.27258e-05
2305.68	0.484131	3.51562e-05
2306.16	0.000942993	0.00583771
2306.62	0.483459	7.90405e-06
2307.12	0.483002	2.81372e-05
2307.62	0.482483	0.0144623
2308.06	0.482727	1.31531e-05
2308.56	0.483002	2.28577e-05
2308.78	0.484467	3.90625e-06