File: Edgar/20240531/20240531/electrodeposition_pulsed_potential_20240531_A/pulses_3000_to_4000.txt
Time (s)	WE(1).Potential (V)	WE(1).Current (A)
2321.5	-0.697479	-0.0221069
2321.98	0.48288	1.83716e-05
2322.48	0.482758	0.000188721
2322.94	-0.698669	-0.0148712
2323.42	0.484283	7.04956e-06
2323.92	0.482849	7.01599e-05
2324.4	0.000646973	0.00888672
2324.86	0.483704	1.16577e-05
2325.36	0.483856	3.48816e-05
2325.84	-0.000585937	0.0057901
2326.3	0.483063	1.37939e-05
2326.8	0.482544	3.14331e-05
2327.3	0.482483	0.0144287
2327.74	0.482544	1.31836e-05
2328.24	0.483704	1.8219e-05
2328.74	0.483765	0.00725464
2329.2	-0.69751	-0.0221161
2329.68	0.483673	1.53503e-05
2330.18	0.484528	0.000188568
2330.64	-0.698669	-0.0148895
2331.12	0.482605	2.03247e-05
2331.62	0.482849	7.12891e-05
2332.1	0.000540161	0.00889893
2332.56	0.48407	8.60596e-06
2333.06	0.484344	3.25012e-05
2333.54	0.000216675	0.00580017
2334	0.484467	4.45557e-06
2334.5	0.48288	2.98462e-05
2335	0.483582	0.014447
2335.44	0.483673	8.3313e-06
2335.94	0.4841	1.45264e-05
2336.44	0.483856	0.00731598
2336.9	-0.698761	-0.0221222
2337.38	0.484436	9.30786e-06
2337.88	0.483948	0.000195831
2338.34	-0.699127	-0.0149017
2338.82	0.48407	8.57544e-06
2339.32	0.484283	6.23474e-05
2339.8	-0.000830078	0.00889893
2340.26	0.482788	1.67542e-05
2340.76	0.4841	3.47595e-05
2341.24	-8.23975e-05	0.00579712
2341.7	0.482666	1.64185e-05
2342.2	0.482849	3.06396e-05
2342.7	0.483826	0.0144653
2343.14	0.482697	1.56555e-05
2343.64	0.483887	1.96228e-05
2344.14	0.483246	0.00737518
2344.6	-0.697784	-0.0221649
2345.08	0.482697	2.18811e-05
2345.58	0.483093	0.000204468
2346.04	-0.699371	-0.0149292
2346.52	0.483398	1.17798e-05
2347.02	0.484406	6.14319e-05
2347.5	-0.000595093	0.00890198
2347.96	0.482666	1.5564e-05
2348.46	0.482849	4.28772e-05
2348.94	0.000338745	0.00580536
2349.4	0.482788	1.62964e-05
2349.9	0.483276	2.75879e-05
2350.4	0.482391	0.0144897
2350.84	0.484436	3.14331e-06
2351.34	0.48291	2.30408e-05
2351.84	0.482788	0.007421875
2352.3	-0.697357	-0.0221771
2352.78	0.483826	1.13525e-05
2353.28	0.48349	0.000206726
2353.74	-0.698395	-0.0149628
2354.22	0.484467	8.3313e-06
2354.72	0.484314	6.1615e-05
2355.2	-0.00104065	0.00888977
2355.66	0.484344	6.74438e-06
2356.16	0.484222	3.25012e-05
2356.64	0.000643921	0.00580109
2357.1	0.483643	1.15356e-05
2357.6	0.483093	3.04871e-05
2358.1	0.48288	0.0145081
2358.54	0.484283	2.53296e-06
2359.04	0.483093	2.48718e-05
2359.54	0.4823	0.00747101
2360	-0.697693	-0.0221924
2360.48	0.484467	1.05286e-05
2360.98	0.483185	0.000208923
2361.44	-0.699158	-0.014975
2361.92	0.484131	9.00269e-06
2362.42	0.484161	6.46057e-05
2362.9	0.000668335	0.00886536
2363.36	0.484283	5.98145e-06
2363.86	0.484314	3.32336e-05
2364.34	0.000769043	0.00580017
2364.8	0.483978	6.53076e-06
2365.3	0.484222	2.25525e-05
2365.8	0.482941	0.0145294
2366.24	0.484131	3.90625e-06
2366.74	0.484131	1.84937e-05
2367.24	0.482727	0.00751038
2367.7	-0.69812	-0.0222076
2368.18	0.484009	1.19629e-05
2368.68	0.483429	0.00020871
2369.14	-0.697632	-0.0150085
2369.62	0.483521	1.42822e-05
2370.12	0.482941	7.12891e-05
2370.6	-0.00088501	0.0088501
2371.06	0.483551	1.23901e-05
2371.56	0.48407	3.479e-05
2372.04	0.000747681	0.00579285
2372.5	0.483551	1.03149e-05
2373	0.482697	3.05786e-05
2373.5	0.48288	0.0145294
2373.94	0.482941	1.51062e-05
2374.44	0.483154	2.27966e-05
2374.94	0.483185	0.007547
2375.4	-0.697418	-0.0222443
2375.88	0.483124	1.86157e-05
2376.38	0.483154	0.000215454
2376.84	-0.697906	-0.015033
2377.32	0.482635	2.03857e-05
2377.82	0.483673	6.90613e-05
2378.3	-0.000366211	0.00883179
2378.76	0.482697	1.5686e-05
2379.26	0.482635	4.28467e-05
2379.74	0.000506592	0.00578766
2380.2	0.483704	1.22681e-05
2380.7	0.48288	3.15247e-05
2381.2	0.482239	0.0145569
2381.64	0.48407	4.45557e-06
2382.14	0.483551	2.04773e-05
2382.64	0.482483	0.00760498
2383.1	-0.698029	-0.0222717
2383.58	0.483673	1.54114e-05
2384.08	0.484192	0.000211548
2384.54	-0.697876	-0.0150543
2385.02	0.482819	1.96838e-05
2385.52	0.484375	6.48193e-05
2386	-0.000350952	0.00883789
2386.46	0.483826	1.28479e-05
2386.96	0.483429	4.00696e-05
2387.44	0.000332642	0.00578644
2387.9	0.482727	1.66626e-05
2388.4	0.482971	2.96936e-05
2388.9	0.483124	0.0145508
2389.34	0.482727	1.45569e-05
2389.84	0.482697	2.63062e-05
2390.34	0.482513	0.00764771
2390.8	-0.69812	-0.0222687
2391.28	0.484253	1.1261e-05
2391.78	0.483978	0.000216522
2392.24	-0.699524	-0.0150696
2392.72	0.483551	1.11694e-05
2393.22	0.484222	6.4209e-05
2393.7	-0.000839233	0.00882568
2394.16	0.484375	6.53076e-06
2394.66	0.484039	3.45459e-05
2395.14	0.000500488	0.0057843
2395.6	0.484344	5.70679e-06
2396.1	0.483246	2.79846e-05
2396.6	0.483154	0.0145691
2397.04	0.484222	5.18799e-06
2397.54	0.483215	2.13623e-05
2398.04	0.483521	0.00768433
2398.5	-0.698364	-0.0223053
2398.98	0.484528	1.08032e-05
2399.48	0.484161	0.000219238
2399.94	-0.697754	-0.0151062
2400.42	0.483124	1.68152e-05
2400.92	0.483063	7.44629e-05
2401.4	-0.000881958	0.00880737
2401.86	0.482666	1.78833e-05
2402.36	0.483826	3.64685e-05
2402.84	-0.000494385	0.00579254
2403.3	0.483337	1.34583e-05
2403.8	0.484314	1.98669e-05
2404.3	0.481964	0.0145844
2404.74	0.482727	1.45569e-05
2405.24	0.48407	1.74866e-05
2405.74	0.483856	0.00771484
2406.2	-0.697571	-0.0223206
2406.68	0.482819	1.9989e-05
2407.18	0.482605	0.000231049
2407.64	-0.697937	-0.0151093
2408.12	0.484406	9.46045e-06
2408.62	0.483887	6.8512e-05
2409.1	0.000643921	0.00879517
2409.56	0.483215	1.40991e-05
2410.06	0.483887	3.75061e-05
2410.54	-0.000167847	0.00578369
2411	0.483002	1.25732e-05
2411.5	0.484253	2.23694e-05
2412	0.483734	0.0145966
2412.44	0.483368	1.13525e-05
2412.94	0.483612	2.06909e-05
2413.44	0.483398	0.00775757
2413.9	-0.698975	-0.0223267
2414.38	0.483459	1.34277e-05
2414.88	0.484406	0.000224152
2415.34	-0.699341	-0.0151459
2415.82	0.48291	1.68457e-05
2416.32	0.484131	6.89087e-05
2416.8	-0.000549316	0.00878906
2417.26	0.483582	1.1322e-05
2417.76	0.483704	4.06494e-05
2418.24	-0.000537109	0.00578033
2418.7	0.482788	1.50146e-05
2419.2	0.482788	3.31421e-05
2419.7	0.482697	0.0146057
2420.14	0.483276	9.15527e-06
2420.64	0.483826	2.02026e-05
2421.14	0.484009	0.00778809
2421.6	-0.698395	-0.0223633
2422.08	0.482758	2.24304e-05
2422.58	0.484497	0.00022525
2423.04	-0.697937	-0.0151672
2423.52	0.482544	1.93787e-05
2424.02	0.482635	7.74536e-05
2424.5	-0.000479126	0.0087738
2424.96	0.483337	1.30615e-05
2425.46	0.482666	4.63257e-05
2425.94	0.000497437	0.00576813
2426.4	0.48288	1.21765e-05
2426.9	0.483185	2.99072e-05
2427.4	0.482178	0.0146362
2427.84	0.482635	1.46179e-05
2428.34	0.482635	2.64893e-05
2428.84	0.48407	0.00782471
2429.3	-0.698822	-0.0223663
2429.78	0.482605	2.35596e-05
2430.28	0.482758	0.000240784
2430.74	-0.699188	-0.0151764
2431.22	0.4841	9.09424e-06
2431.72	0.484497	6.78711e-05
2432.2	-0.000897217	0.00874329
2432.66	0.4841	1.01929e-05
2433.16	0.482971	4.37317e-05
2433.64	0.000213623	0.00576508
2434.1	0.482788	1.48621e-05
2434.6	0.483124	3.12195e-05
2435.1	0.483643	0.0146423
2435.54	0.483643	8.3313e-06
2436.04	0.483185	2.27051e-05
2436.54	0.482391	0.00786133
2437	-0.698303	-0.0223877
2437.48	0.482941	2.19727e-05
2437.98	0.484314	0.000230865
2438.44	-0.697723	-0.0152191
2438.92	0.483368	1.57776e-05
2439.42	0.484283	6.63452e-05
2439.9	-0.000973511	0.00874634
2440.36	0.482635	1.64185e-05
2440.86	0.484406	3.64075e-05
2441.34	0.000927734	0.00575653
2441.8	0.483215	8.66699e-06
2442.3	0.482788	3.43628e-05
2442.8	0.482819	0.0146454
2443.24	0.484253	3.479e-06
2443.74	0.484375	1.52893e-05
2444.24	0.48407	0.00788574
2444.7	-0.698669	-0.0224182
2445.18	0.483887	1.43433e-05
2445.68	0.484406	0.000235748
2446.14	-0.698486	-0.0152405
2446.62	0.483398	1.72119e-05
2447.12	0.483643	7.00684e-05
2447.6	-0.000146484	0.00873413
2448.06	0.484039	8.3313e-06
2448.56	0.483887	3.67432e-05
2449.04	-0.000119019	0.00576172
2449.5	0.484344	4.15039e-06
2450	0.483337	3.20129e-05
2450.5	0.483521	0.0146667
2450.94	0.483795	3.35693e-06
2451.44	0.484375	1.55945e-05
2451.94	0.482483	0.00794067
2452.4	-0.6987	-0.0224274
2452.88	0.484344	1.11389e-05
2453.38	0.482697	0.000252441
2453.84	-0.698792	-0.0152618
2454.32	0.483063	1.84021e-05
2454.82	0.483276	7.4707e-05
2455.3	-0.00057373	0.00870361
2455.76	0.482819	1.67542e-05
2456.26	0.483368	4.07715e-05
2456.74	0.000436401	0.00574615
2457.2	0.4841	5.34058e-06
2457.7	0.483154	2.93884e-05
2458.2	0.483032	0.0146729
2458.64	0.484192	4.97437e-06
2459.14	0.483063	2.18506e-05
2459.64	0.483582	0.00795898
2460.1	-0.697693	-0.0224548
2460.58	0.482849	2.20642e-05
2461.08	0.483887	0.000247253
2461.54	-0.699371	-0.0152771
2462.02	0.483673	1.37329e-05
2462.52	0.484192	6.94885e-05
2463	-0.000753784	0.00869751
2463.46	0.484131	9.46045e-06
2463.96	0.483093	4.37012e-05
2464.44	-0.000488281	0.00575226
2464.9	0.4841	6.22559e-06
2465.4	0.484192	2.36511e-05
2465.9	0.483337	0.0146851
2466.34	0.48407	5.31006e-06
2466.84	0.484192	1.53198e-05
2467.34	0.482849	0.00799255
2467.8	-0.698792	-0.0224579
2468.28	0.484253	1.15356e-05
2468.78	0.484222	0.000247833
2469.24	-0.698517	-0.0153076
2469.72	0.483887	1.35193e-05
2470.22	0.484222	6.98547e-05
2470.7	0.000231934	0.00868225
2471.16	0.484192	1.09558e-05
2471.66	0.483276	4.38232e-05
2472.14	0.0003479	0.00574036
2472.6	0.482819	1.5686e-05
2473.1	0.483734	2.62756e-05
2473.6	0.482697	0.0146942
2474.04	0.484253	1.98364e-06
2474.54	0.4841	1.65405e-05
2475.04	0.483765	0.00803528
2475.5	-0.698914	-0.0224762
2475.98	0.483673	1.44653e-05
2476.48	0.483917	0.000254639
2476.94	-0.698364	-0.015332
2477.42	0.483521	1.5625e-05
2477.92	0.484314	7.08008e-05
2478.4	-0.000540161	0.00866699
2478.86	0.483765	1.07422e-05
2479.36	0.482574	4.63562e-05
2479.84	0.000799561	0.00573212
2480.3	0.482819	1.48315e-05
2480.8	0.48407	2.44446e-05
2481.3	0.48349	0.0147125
2481.74	0.483185	1.16882e-05
2482.24	0.483643	1.73645e-05
2482.74	0.483032	0.00806274
2483.2	-0.698853	-0.0224915
2483.68	0.482727	2.16064e-05
2484.18	0.4841	0.000257568
2484.64	-0.697815	-0.0153473
2485.12	0.4841	1.15356e-05
2485.62	0.483002	8.01392e-05
2486.1	-0.000921631	0.00865479
2486.56	0.483032	1.49231e-05
2487.06	0.484192	3.74146e-05
2487.54	-0.0006073	0.00573639
2488	0.483276	1.18103e-05
2488.5	0.484192	2.30713e-05
2489	0.482666	0.0147308
2489.44	0.482849	1.46179e-05
2489.94	0.484253	1.55334e-05
2490.44	0.482849	0.00809021
2490.9	-0.698853	-0.0225159
2491.38	0.483124	1.65405e-05
2491.88	0.48288	0.000269257
2492.34	-0.698608	-0.0153656
2492.82	0.484283	9.97925e-06
2493.32	0.48349	7.56836e-05
2493.8	0.000592041	0.00863037
2494.26	0.483032	1.33362e-05
2494.76	0.483276	4.24805e-05
2495.24	-0.000628662	0.00572784
2495.7	0.48291	1.44653e-05
2496.2	0.482758	3.35693e-05
2496.7	0.483673	0.0147278
2497.14	0.483215	1.3916e-05
2497.64	0.484283	1.59302e-05
2498.14	0.484009	0.00812683
2498.6	-0.698395	-0.0225433
2499.08	0.483978	1.44958e-05
2499.58	0.482727	0.000275482
2500.04	-0.69809	-0.01539
2500.52	0.48349	1.35803e-05
2501.02	0.482849	8.19702e-05
2501.5	-0.000704956	0.00862427
2501.96	0.483948	7.35474e-06
2502.46	0.482758	4.67529e-05
2502.94	0.000897217	0.00571503
2503.4	0.482971	1.33362e-05
2503.9	0.483398	2.8717e-05
2504.4	0.483826	0.0147369
2504.84	0.483276	1.15051e-05
2505.34	0.483856	2.09045e-05
2505.84	0.482605	0.00815735
2506.3	-0.697937	-0.0225433
2506.78	0.483032	2.11792e-05
2507.28	0.48349	0.00027417
2507.74	-0.699188	-0.0154022
2508.22	0.484283	8.30078e-06
2508.72	0.483521	7.59888e-05
2509.2	-0.000723267	0.00861206
2509.66	0.482788	1.63269e-05
2510.16	0.482574	4.66309e-05
2510.64	0.000512695	0.00571198
2511.1	0.484161	7.65991e-06
2511.6	0.483307	3.00293e-05
2512.1	0.482544	0.0147522
2512.54	0.483429	1.0376e-05
2513.04	0.484314	1.6449e-05
2513.54	0.482391	0.00819397
2514	-0.698883	-0.0225586
2514.48	0.483917	1.53503e-05
2514.98	0.48407	0.000273102
2515.44	-0.698792	-0.0154358
2515.92	0.484314	8.69751e-06
2516.42	0.482758	8.22144e-05
2516.9	-0.00104675	0.0085968
2517.36	0.484192	8.45337e-06
2517.86	0.484192	3.67126e-05
2518.34	0.000765991	0.00570648
2518.8	0.484192	6.86646e-06
2519.3	0.483307	2.99683e-05
2519.8	0.483093	0.0147522
2520.24	0.482849	1.18103e-05
2520.74	0.483856	1.98059e-05
2521.24	0.483185	0.00823059
2521.7	-0.698608	-0.0225891
2522.18	0.482758	2.55127e-05
2522.68	0.48407	0.000278503
2523.14	-0.698151	-0.015448
2523.62	0.483795	1.41907e-05
2524.12	0.482788	8.05359e-05
2524.6	-0.000756836	0.00859375
2525.06	0.483826	1.06506e-05
2525.56	0.483521	4.03748e-05
2526.04	2.74658e-05	0.00570709
2526.5	0.483337	1.21765e-05
2527	0.482697	3.24097e-05
2527.5	0.482422	0.0147675
2527.94	0.482788	1.41602e-05
2528.44	0.483582	2.26135e-05
2528.94	0.48288	0.00826721
2529.4	-0.697784	-0.0225861
2529.88	0.482635	2.45667e-05
2530.38	0.482849	0.000290802
2530.84	-0.698517	-0.0154785
2531.32	0.483307	1.68152e-05
2531.82	0.483704	7.5592e-05
2532.3	-0.00088501	0.00857544
2532.76	0.483582	7.93457e-06
2533.26	0.483368	4.37317e-05
2533.74	0.0003479	0.00569733
2534.2	0.484314	5.52368e-06
2534.7	0.482819	3.39355e-05
2535.2	0.482239	0.0147766
2535.64	0.482697	1.6571e-05
2536.14	0.482849	2.62756e-05
2536.64	0.483887	0.00827942
2537.1	-0.698425	-0.0226013
2537.58	0.484039	1.33972e-05
2538.08	0.484222	0.000285675
2538.54	-0.698059	-0.0154968
2539.02	0.484222	9.97925e-06
2539.52	0.482727	8.3374e-05
2540	-0.00015564	0.00855408
2540.46	0.483246	1.4679e-05
2540.96	0.483521	4.30908e-05
2541.44	-0.000302124	0.00569855
2541.9	0.483582	1.06812e-05
2542.4	0.484314	2.38953e-05
2542.9	0.48349	0.0147888
2543.34	0.484253	4.57764e-06
2543.84	0.482727	2.68555e-05
2544.34	0.483551	0.00830994
2544.8	-0.698883	-0.0226318
2545.28	0.48291	2.08435e-05
2545.78	0.484375	0.000291626
2546.24	-0.697815	-0.0155304
2546.72	0.482849	1.91956e-05
2547.22	0.484222	7.56226e-05
2547.7	0.00043335	0.00853882
2548.16	0.482758	1.8219e-05
2548.66	0.482758	4.79431e-05
2549.14	0.000561523	0.00567841
2549.6	0.483917	7.93457e-06
2550.1	0.483337	3.05176e-05
2550.6	0.48349	0.014798
2551.04	0.483307	1.06506e-05
2551.54	0.483154	2.52686e-05
2552.04	0.482727	0.00834961
2552.5	-0.697601	-0.022641
2552.98	0.484283	1.1261e-05
2553.48	0.484406	0.000296051
2553.94	-0.697876	-0.0155426
2554.42	0.483276	1.63574e-05
2554.92	0.484344	7.66602e-05
2555.4	2.44141e-05	0.00852356
2555.86	0.483826	1.08032e-05
2556.36	0.482819	4.52271e-05
2556.84	-0.000219727	0.00568512
2557.3	0.483765	7.96509e-06
2557.8	0.484283	2.37427e-05
2558.3	0.483673	0.014801
2558.74	0.484314	4.79126e-06
2559.24	0.483582	2.48413e-05
2559.74	0.482422	0.00837708
2560.2	-0.698853	-0.02265625
2560.68	0.483063	2.05994e-05
2561.18	0.484467	0.000301788
2561.64	-0.698944	-0.0155609
2562.12	0.483032	2.07214e-05
2562.62	0.4841	7.69958e-05
2563.1	7.93457e-05	0.0085083
2563.56	0.484314	5.79834e-06
2564.06	0.482758	4.97131e-05
2564.54	0.000384521	0.00567444
2565	0.482635	1.62048e-05
2565.5	0.483246	2.89307e-05
2566	0.483429	0.0148102
2566.44	0.483337	1.05896e-05
2566.94	0.483002	2.55432e-05
2567.44	0.482391	0.00841064
2567.9	-0.698883	-0.0226685
2568.38	0.483124	1.98364e-05
2568.88	0.482788	0.000317749
2569.34	-0.697845	-0.0155823
2569.82	0.484222	1.00098e-05
2570.32	0.484161	7.82776e-05
2570.8	-0.00103149	0.0085022
2571.26	0.4841	7.99561e-06
2571.76	0.484375	3.82385e-05
2572.24	0.000869751	0.00566284
2572.7	0.483948	7.38525e-06
2573.2	0.484283	2.31628e-05
2573.7	0.482971	0.0148285
2574.14	0.482788	1.53198e-05
2574.64	0.484131	1.86157e-05
2575.14	0.483307	0.00841675
2575.6	-0.698914	-0.0226837
2576.08	0.483643	1.48315e-05
2576.58	0.482697	0.000321228
2577.04	-0.699402	-0.0155945
2577.52	0.484283	9.94873e-06
2578.02	0.483643	8.12988e-05
2578.5	0.000357056	0.00849609
2578.96	0.484222	6.2561e-06
2579.46	0.482758	4.92859e-05
2579.94	-0.000274658	0.00566681
2580.4	0.484161	7.23267e-06
2580.9	0.482727	3.52173e-05
2581.4	0.482422	0.0148315
2581.84	0.483582	1.01013e-05
2582.34	0.483002	2.38342e-05
2582.84	0.484131	0.00845642
2583.3	-0.6987	-0.0227051
2583.78	0.484161	1.24512e-05
2584.28	0.483673	0.000324219
2584.74	-0.699066	-0.0156128
2585.22	0.483185	1.69983e-05
2585.72	0.483765	7.77893e-05
2586.2	-0.000183105	0.00845947
2586.66	0.482971	1.58997e-05
2587.16	0.484192	3.9032e-05
2587.64	0.000350952	0.00565399
2588.1	0.48407	5.88989e-06
2588.6	0.4841	2.43225e-05
2589.1	0.482635	0.0148407
2589.54	0.483948	7.75146e-06
2590.04	0.483521	2.1759e-05
2590.54	0.483948	0.00848694
2591	-0.698456	-0.0227203
2591.48	0.48407	1.32446e-05
2591.98	0.483643	0.000329041
2592.44	-0.69928	-0.0156372
2592.92	0.483215	1.63269e-05
2593.42	0.482788	8.51746e-05
2593.9	0.000491333	0.00845032
2594.36	0.482849	1.73645e-05
2594.86	0.483887	4.10156e-05
2595.34	2.74658e-05	0.00564453
2595.8	0.482727	1.7395e-05
2596.3	0.48288	3.24097e-05
2596.8	0.483459	0.0148407
2597.24	0.483948	6.40869e-06
2597.74	0.483582	2.14539e-05
2598.24	0.483887	0.0085083
2598.7	-0.698883	-0.0227264
2599.18	0.482727	2.47498e-05
2599.68	0.484314	0.000327545
2600.14	-0.699005	-0.0156525
2600.62	0.483765	1.31531e-05
2601.12	0.48291	8.71277e-05
2601.6	-4.27246e-05	0.00845032
2602.06	0.48291	1.76086e-05
2602.56	0.484253	3.9032e-05
2603.04	-0.000463867	0.00564545
2603.5	0.482849	1.5625e-05
2604	0.483093	3.23486e-05
2604.5	0.483582	0.014856
2604.94	0.484375	5.7373e-06
2605.44	0.483002	2.39563e-05
2605.94	0.482483	0.00854187
2606.4	-0.698822	-0.0227448
2606.88	0.484161	1.41907e-05
2607.38	0.482758	0.000346283
2607.84	-0.69931	-0.0156738
2608.32	0.484344	9.0332e-06
2608.82	0.482758	8.87451e-05
2609.3	-0.00098877	0.00843201
2609.76	0.483398	1.54724e-05
2610.26	0.484314	3.88489e-05
2610.74	0.00088501	0.0056308
2611.2	0.482758	1.45874e-05
2611.7	0.484192	2.56348e-05
2612.2	0.482178	0.0148712
2612.64	0.48407	6.16455e-06
2613.14	0.483765	2.10571e-05
2613.64	0.484131	0.00856018
2614.1	-0.697357	-0.0227661
2614.58	0.484344	1.40076e-05
2615.08	0.482727	0.00035199
2615.54	-0.69812	-0.0157074
2616.02	0.483368	1.66321e-05
2616.52	0.482941	8.55713e-05
2617	0.000646973	0.0084198
2617.46	0.484283	7.2937e-06
2617.96	0.483337	4.66614e-05
2618.44	0.000491333	0.00562531
2618.9	0.484161	6.28662e-06
2619.4	0.483948	2.54517e-05
2619.9	0.483246	0.0148712
2620.34	0.482758	1.60522e-05
2620.84	0.483673	1.95923e-05
2621.34	0.482635	0.00858765
2621.8	-0.698853	-0.0227783
2622.28	0.483429	1.9165e-05
2622.78	0.484314	0.000348083
2623.24	-0.699188	-0.0157135
2623.72	0.48407	1.1322e-05
2624.22	0.482727	9.21021e-05
2624.7	-0.000778198	0.00839539
2625.16	0.483429	1.35498e-05
2625.66	0.484314	3.96729e-05
2626.14	3.05176e-05	0.00562653
2626.6	0.48349	9.91821e-06
2627.1	0.483398	2.98767e-05
2627.6	0.482483	0.0148773
2628.04	0.482788	1.50452e-05
2628.54	0.484344	1.63269e-05
2629.04	0.48233	0.00861511
2629.5	-0.697266	-0.0227966
2629.98	0.482819	2.18506e-05
2630.48	0.484161	0.000357056
2630.94	-0.698364	-0.0157593
2631.42	0.483002	1.77612e-05
2631.92	0.482697	9.14307e-05
2632.4	-0.000488281	0.00838318
2632.86	0.482819	1.83411e-05
2633.36	0.483704	4.4281e-05
2633.84	0.000640869	0.00561523
2634.3	0.48288	1.51062e-05
2634.8	0.482758	3.57056e-05
2635.3	0.483215	0.0148956
2635.74	0.482788	1.58997e-05
2636.24	0.482635	2.63672e-05
2636.74	0.483246	0.00863037
2637.2	-0.69751	-0.0228058
2637.68	0.484344	1.2207e-05
2638.18	0.483978	0.000363953
2638.64	-0.697876	-0.0157715
2639.12	0.484222	9.8877e-06
2639.62	0.484253	8.17871e-05
2640.1	9.15527e-06	0.00837402
2640.56	0.484192	9.82666e-06
2641.06	0.483215	4.76074e-05
2641.54	0.000537109	0.00561066
2642	0.483887	8.54492e-06
2642.5	0.483002	3.35388e-05
2643	0.483032	0.0148926
2643.44	0.483307	1.10779e-05
2643.94	0.484192	1.72119e-05
2644.44	0.483032	0.00866699
2644.9	-0.698547	-0.0228149
2645.38	0.483398	2.09045e-05
2645.88	0.483917	0.000367645
2646.34	-0.699188	-0.0157745
2646.82	0.483032	2.13013e-05
2647.32	0.482788	9.20105e-05
2647.8	-6.10352e-05	0.00837097
2648.26	0.482788	1.70288e-05
2648.76	0.484192	4.05579e-05
2649.24	0.000671387	0.00560333
2649.7	0.484406	3.63159e-06
2650.2	0.483978	2.67334e-05
2650.7	0.483643	0.0149078
2651.14	0.48288	1.37024e-05
2651.64	0.483887	1.90125e-05
2652.14	0.483643	0.0086792
2652.6	-0.697296	-0.0228394
2653.08	0.483124	2.13928e-05
2653.58	0.484344	0.000371735
2654.04	-0.699097	-0.0158051
2654.52	0.482697	2.13928e-05
2655.02	0.483154	9.15833e-05
2655.5	-0.000357056	0.00834961
2655.96	0.48291	1.64185e-05
2656.46	0.482971	4.8584e-05
2656.94	-0.000317383	0.00560791
2657.4	0.483948	8.75854e-06
2657.9	0.484375	2.50244e-05
2658.4	0.482788	0.0149323
2658.84	0.48291	1.47095e-05
2659.34	0.484253	1.77002e-05
2659.84	0.483887	0.00870667
2660.3	-0.698975	-0.0228485
2660.78	0.483917	1.52588e-05
2661.28	0.48291	0.000390808
2661.74	-0.697906	-0.0158325
2662.22	0.483521	1.52283e-05
2662.72	0.483002	9.3689e-05
2663.2	0.000689697	0.00833435
2663.66	0.484253	9.73511e-06
2664.16	0.484192	4.1748e-05
2664.64	-0.000238037	0.00559906
2665.1	0.48407	5.40161e-06
2665.6	0.483185	3.17383e-05
2666.1	0.482086	0.0149323
2666.54	0.482666	1.41907e-05
2667.04	0.482727	2.85034e-05
2667.54	0.482391	0.00873718
2668	-0.698761	-0.0228729
2668.48	0.482666	2.46582e-05
2668.98	0.483185	0.000396271
2669.44	-0.697876	-0.0158508
2669.92	0.483368	1.78833e-05
2670.42	0.482819	9.44214e-05
2670.9	-0.000869751	0.00832214
2671.36	0.483765	1.43127e-05
2671.86	0.483978	4.24805e-05
2672.34	-0.00057373	0.00559265
2672.8	0.482727	1.60217e-05
2673.3	0.484375	2.49023e-05
2673.8	0.482361	0.0149414
2674.24	0.483795	8.75854e-06
2674.74	0.484344	1.95007e-05
2675.24	0.4841	0.00876465
2675.7	-0.697906	-0.0228943
2676.18	0.484497	1.27563e-05
2676.68	0.483276	0.000405396
2677.14	-0.697815	-0.0158752
2677.62	0.482727	2.12708e-05
2678.12	0.484009	8.29163e-05
2678.6	-0.00101929	0.00830688
2679.06	0.483704	1.24512e-05
2679.56	0.482971	4.93164e-05
2680.04	0.000521851	0.00557617
2680.5	0.483246	1.42822e-05
2681	0.483643	2.80151e-05
2681.5	0.483063	0.0149414
2681.94	0.484161	6.22559e-06
2682.44	0.482819	2.81677e-05
2682.94	0.482697	0.00878601
2683.4	-0.698944	-0.0228943
2683.88	0.484009	1.61133e-05
2684.38	0.483032	0.000413605
2684.84	-0.699432	-0.0158844
2685.32	0.483521	1.53198e-05
2685.82	0.483124	9.49097e-05
2686.3	-0.000167847	0.00828247
2686.76	0.484192	7.41577e-06
2687.26	0.48349	4.70581e-05
2687.74	-0.000668335	0.00557861
2688.2	0.483765	1.07422e-05
2688.7	0.483917	2.83813e-05
2689.2	0.482605	0.0149475
2689.64	0.483795	8.30078e-06
2690.14	0.483673	2.37732e-05
2690.64	0.483948	0.00880432
2691.1	-0.698914	-0.0229065
2691.58	0.48288	2.14844e-05
2692.08	0.482666	0.000425598
2692.54	-0.699371	-0.0159027
2693.02	0.482788	1.79443e-05
2693.52	0.483551	9.21631e-05
2694	-0.000912476	0.00828247
2694.46	0.482788	1.77917e-05
2694.96	0.484161	3.93066e-05
2695.44	-0.0003479	0.00557037
2695.9	0.4841	7.78198e-06
2696.4	0.482819	3.65601e-05
2696.9	0.483551	0.0149628
2697.34	0.4841	5.7373e-06
2697.84	0.483765	2.07214e-05
2698.34	0.482727	0.00883484
2698.8	-0.697968	-0.022934
2699.28	0.484406	1.31226e-05
2699.78	0.483917	0.000424927
2700.24	-0.698151	-0.0159241
2700.72	0.484375	1.04675e-05
2701.22	0.483124	9.61914e-05
2701.7	-0.000830078	0.00825806
2702.16	0.483093	1.80969e-05
2702.66	0.482727	5.22766e-05
2703.14	0.000927734	0.00555542
2703.6	0.484009	9.18579e-06
2704.1	0.483398	3.07312e-05
2704.6	0.482483	0.0149719
2705.04	0.483612	8.27026e-06
2705.54	0.483887	2.18201e-05
2706.04	0.483429	0.00886536
2706.5	-0.69754	-0.0229492
2706.98	0.483337	1.71509e-05
2707.48	0.482666	0.000440369
2707.94	-0.699066	-0.0159393
2708.42	0.482849	1.90735e-05
2708.92	0.483154	9.66797e-05
2709.4	0.000531006	0.00825195
2709.86	0.484314	7.84302e-06
2710.36	0.482849	5.23682e-05
2710.84	0.000247192	0.00555664
2711.3	0.482727	1.66016e-05
2711.8	0.482758	3.5675e-05
2712.3	0.482391	0.0149841
2712.74	0.484375	5.79834e-06
2713.24	0.483398	2.53906e-05
2713.74	0.483521	0.00886841
2714.2	-0.697784	-0.0229492
2714.68	0.482819	2.23999e-05
2715.18	0.484283	0.000437469
2715.64	-0.698944	-0.0159698
2716.12	0.482758	2.18506e-05
2716.62	0.482788	9.86938e-05
2717.1	-0.0009552	0.0082428
2717.56	0.484253	8.20923e-06
2718.06	0.483215	4.86145e-05
2718.54	-0.00065918	0.00555542
2719	0.484436	7.20215e-06
2719.5	0.484192	2.64587e-05
2720	0.482697	0.0149689
2720.44	0.484131	6.2561e-06
2720.94	0.482788	2.60315e-05
2721.44	0.483063	0.00890198
2721.9	-0.697388	-0.0229584
2722.38	0.484131	1.18713e-05
2722.88	0.483398	0.00045224
2723.34	-0.699249	-0.0159729
2723.82	0.48288	1.84937e-05
2724.32	0.48349	9.17664e-05
2724.8	-0.000939941	0.00822754
2725.26	0.482697	1.78223e-05
2725.76	0.482849	5.23682e-05
2726.24	-0.00071106	0.00554413
2726.7	0.48407	8.48389e-06
2727.2	0.483704	3.0426e-05
2727.7	0.482117	0.0149902
2728.14	0.484436	2.44141e-06
2728.64	0.483154	2.6062e-05
2729.14	0.484009	0.00891724
2729.6	-0.698944	-0.0229736
2730.08	0.482971	2.49634e-05
2730.58	0.483948	0.000455078
2731.04	-0.697784	-0.0159973
2731.52	0.483612	1.42822e-05
2732.02	0.482697	0.000101196
2732.5	-0.000332642	0.00822144
2732.96	0.484344	6.43921e-06
2733.46	0.482758	5.21545e-05
2733.94	-0.000680542	0.00554291
2734.4	0.48288	1.48621e-05
2734.9	0.484192	2.69775e-05
2735.4	0.483032	0.0149872
2735.84	0.482788	1.62964e-05
2736.34	0.483063	2.74963e-05
2736.84	0.482544	0.0089447
2737.3	-0.698792	-0.0229889
2737.78	0.483307	2.09351e-05
2738.28	0.484253	0.000463043
2738.74	-0.698639	-0.0160126
2739.22	0.482941	1.7395e-05
2739.72	0.482819	0.000100708
2740.2	0.000369263	0.00820007
2740.66	0.4841	9.42993e-06
2741.16	0.484406	4.05884e-05
2741.64	-0.000405884	0.00553375
2742.1	0.484436	4.39453e-06
2742.6	0.484009	2.80151e-05
2743.1	0.482025	0.0149963
2743.54	0.484192	5.98145e-06
2744.04	0.484253	1.76392e-05
2744.54	0.483917	0.00896301
2745	-0.698303	-0.022998
2745.48	0.483734	1.69373e-05
2745.98	0.48288	0.000480286
2746.44	-0.698944	-0.0160339
2746.92	0.484161	1.23291e-05
2747.42	0.483032	9.765625E-05
2747.9	-0.000567627	0.00819397
2748.36	0.484344	7.47681e-06
2748.86	0.484131	4.30603e-05
2749.34	0.000140381	0.00552582
2749.8	0.4841	6.50024e-06
2750.3	0.483429	3.0304e-05
2750.8	0.483643	0.0150024
2751.24	0.484436	4.5166e-06
2751.74	0.482697	2.95105e-05
2752.24	0.48407	0.00898743
2752.7	-0.697479	-0.0230255
2753.18	0.484253	1.57166e-05
2753.68	0.483887	0.000481628
2754.14	-0.697815	-0.0160614
2754.62	0.483582	1.62354e-05
2755.12	0.482605	0.0001026
2755.6	-0.000558472	0.0081665
2756.06	0.484253	8.23975e-06
2756.56	0.482635	5.25208e-05
2757.04	-0.000616455	0.00552124
2757.5	0.483124	1.44348e-05
2758	0.48288	3.54309e-05
2758.5	0.482849	0.0150055
2758.94	0.483215	1.2085e-05
2759.44	0.484192	1.90735e-05
2759.94	0.483307	0.00901489
2760.4	-0.697418	-0.0230316
2760.88	0.483734	1.62964e-05
2761.38	0.484161	0.000491028
2761.84	-0.699219	-0.0160645
2762.32	0.482666	2.37427e-05
2762.82	0.484253	9.40552e-05
2763.3	0.000369263	0.00814819
2763.76	0.483734	1.19019e-05
2764.26	0.484161	4.4342e-05
2764.74	-0.000396729	0.00550812
2765.2	0.483276	1.29395e-05
2765.7	0.484131	2.62451e-05
2766.2	0.482697	0.0150085
2766.64	0.483673	8.3313e-06
2767.14	0.482727	3.00903e-05
2767.64	0.483948	0.009021
2768.1	-0.698975	-0.0230438
2768.58	0.482758	2.40173e-05
2769.08	0.483276	0.000509644
2769.54	-0.699036	-0.0160919
2770.02	0.484131	1.16882e-05
2770.52	0.483307	0.00010257
2771	-0.000799561	0.00814209
2771.46	0.483185	1.78833e-05
2771.96	0.484161	4.23584e-05
2772.44	-0.000469971	0.00550659
2772.9	0.48288	1.62354e-05
2773.4	0.484222	2.61536e-05
2773.9	0.483368	0.0150208
2774.34	0.483887	7.84302e-06
2774.84	0.482849	2.67334e-05
2775.34	0.482727	0.00904541
2775.8	-0.697723	-0.0230621
2776.28	0.483765	1.54114e-05
2776.78	0.483948	0.000517273
2777.24	-0.699097	-0.0161133
2777.72	0.4841	1.29395e-05
2778.22	0.483826	9.75952e-05
2778.7	-0.000839233	0.00812988
2779.16	0.483459	1.42517e-05
2779.66	0.482941	5.32837e-05
2780.14	0.000665283	0.00549469
2780.6	0.483337	1.54419e-05
2781.1	0.482849	3.7323e-05
2781.6	0.483521	0.0150208
2782.04	0.483795	9.18579e-06
2782.54	0.483673	1.90125e-05
2783.04	0.482452	0.00907288
2783.5	-0.697357	-0.0230804
2783.98	0.484009	1.63574e-05
2784.48	0.484344	0.000526428
2784.94	-0.697815	-0.0161346
2785.42	0.483185	1.67236e-05
2785.92	0.48407	9.765625E-05
2786.4	0.000469971	0.00812073
2786.86	0.482819	1.80359e-05
2787.36	0.483002	5.24902e-05
2787.84	0.000927734	0.00548431
2788.3	0.482727	1.9104e-05
2788.8	0.484131	2.63672e-05
2789.3	0.483612	0.015033
2789.74	0.482819	1.31531e-05
2790.24	0.482971	2.63672e-05
2790.74	0.4823	0.00910034
2791.2	-0.698578	-0.0230713
2791.68	0.482758	2.50854e-05
2792.18	0.4841	0.000536194
2792.64	-0.697906	-0.0161499
2793.12	0.483063	1.953125E-05
2793.62	0.483429	0.000101868
2794.1	-0.000524902	0.00809631
2794.56	0.48349	1.26953e-05
2795.06	0.484039	4.63562e-05
2795.54	0.000256348	0.00548004
2796	0.484161	7.72095e-06
2796.5	0.484192	2.78015e-05
2797	0.48288	0.015033
2797.44	0.483124	1.28479e-05
2797.94	0.483856	1.92871e-05
2798.44	0.482483	0.00911865
2798.9	-0.698608	-0.0230774
2799.38	0.483765	1.76392e-05
2799.88	0.482941	0.000552368
2800.34	-0.697876	-0.0161713
2800.82	0.484192	1.00403e-05
2801.32	0.483093	0.000106873
2801.8	0.00020752	0.00808411
2802.26	0.484161	9.64355e-06
2802.76	0.484222	4.55627e-05
2803.24	-0.000268555	0.00548126
2803.7	0.484314	7.14111e-06
2804.2	0.482788	3.86047e-05
2804.7	0.482971	0.015033
2805.14	0.482727	1.68457e-05
2805.64	0.484283	1.9104e-05
2806.14	0.482849	0.00913696
2806.6	-0.698578	-0.023111
2807.08	0.483826	1.40991e-05
2807.58	0.484314	0.000560303
2808.04	-0.699249	-0.0161804
2808.52	0.482727	2.12402e-05
2809.02	0.482788	0.000110291
2809.5	4.57764e-05	0.00808411
2809.96	0.482727	1.88293e-05
2810.46	0.484436	4.39148e-05
2810.94	0.000839233	0.00546448
2811.4	0.483032	1.30005e-05
2811.9	0.48407	2.76184e-05
2812.4	0.483521	0.0150421
2812.84	0.482727	1.69678e-05
2813.34	0.484314	2.02942e-05
2813.84	0.483795	0.00915833
2814.3	-0.698792	-0.023111
2814.78	0.482849	2.32239e-05
2815.28	0.484161	0.000568542
2815.74	-0.699219	-0.0161957
2816.22	0.483826	1.12e-05
2816.72	0.48407	9.80225e-05
2817.2	0.000601196	0.00805664
2817.66	0.48288	1.76697e-05
2818.16	0.48349	4.88281e-05
2818.64	0.00062561	0.0054657
2819.1	0.482727	1.5686e-05
2819.6	0.484253	2.83813e-05
2820.1	0.483124	0.0150543
2820.54	0.484131	6.22559e-06
2821.04	0.484192	2.03552e-05
2821.54	0.482483	0.00916748
2822	-0.697205	-0.0231323
2822.48	0.483765	1.52588e-05
2822.98	0.484161	0.000580139
2823.44	-0.699219	-0.016217
2823.92	0.483459	1.66016e-05
2824.42	0.483002	0.000109802
2824.9	-0.000665283	0.00805054
2825.36	0.4841	1.04675e-05
2825.86	0.483063	5.15137e-05
2826.34	0.000408936	0.00545715
2826.8	0.483917	7.38525e-06
2827.3	0.48291	3.64685e-05
2827.8	0.483521	0.0150604
2828.24	0.482849	1.42822e-05
2828.74	0.48291	2.86865e-05
2829.24	0.483307	0.00919495
2829.7	-0.69751	-0.0231506
2830.18	0.483643	1.96228e-05
2830.68	0.483093	0.000599365
2831.14	-0.697937	-0.0162537
2831.62	0.483521	1.89819e-05
2832.12	0.483246	0.000107849
2832.6	0.00050354	0.00803528
2833.06	0.484192	9.12476e-06
2833.56	0.482758	5.43213e-05
2834.04	0.000646973	0.00545074
2834.5	0.482697	1.66931e-05
2835	0.482819	3.69263e-05
2835.5	0.482941	0.0150665
2835.94	0.483398	8.17871e-06
2836.44	0.484314	1.93481e-05
2836.94	0.483582	0.00920105
2837.4	-0.697479	-0.0231689
2837.88	0.483673	1.46179e-05
2838.38	0.483643	0.000608215
2838.84	-0.698364	-0.0162537
2839.32	0.484314	1.00098e-05
2839.82	0.483368	0.000107361
2840.3	0.000750732	0.00802612
2840.76	0.482788	1.93787e-05
2841.26	0.483002	5.33447e-05
2841.74	0.000585937	0.00544708
2842.2	0.482666	1.90735e-05
2842.7	0.482727	3.7323e-05
2843.2	0.482086	0.0150818
2843.64	0.484253	5.12695e-06
2844.14	0.483887	1.90125e-05
2844.64	0.483643	0.00922546
2845.1	-0.69809	-0.0231781
2845.58	0.484039	1.62659e-05
2846.08	0.484131	0.00061676
2846.54	-0.698975	-0.016275
2847.02	0.482971	1.98059e-05
2847.52	0.483673	0.000104858
2848	-0.00050354	0.00801086
2848.46	0.482819	1.95923e-05
2848.96	0.482941	5.45349e-05
2849.44	0.000106812	0.00543793
2849.9	0.483368	1.35803e-05
2850.4	0.483521	3.00598e-05
2850.9	0.482666	0.0150909
2851.34	0.483856	8.30078e-06
2851.84	0.483612	2.23999e-05
2852.34	0.482941	0.00925903
2852.8	-0.698242	-0.0231781
2853.28	0.484161	1.44653e-05
2853.78	0.48291	0.000641174
2854.24	-0.697784	-0.0162994
2854.72	0.483643	1.32751e-05
2855.22	0.4841	0.00010379
2855.7	0.000344849	0.0079895
2856.16	0.483185	1.55945e-05
2856.66	0.484314	4.61121e-05
2857.14	0.000811768	0.00542786
2857.6	0.483978	9.58252e-06
2858.1	0.483582	3.24707e-05
2858.6	0.483521	0.0150818
2859.04	0.484192	6.13403e-06
2859.54	0.483978	2.02942e-05
2860.04	0.483765	0.00926819
2860.5	-0.697327	-0.0231934
2860.98	0.482971	2.38953e-05
2861.48	0.483765	0.000650635
2861.94	-0.69873	-0.0163025
2862.42	0.482849	2.22778e-05
2862.92	0.482758	0.000112518
2863.4	-0.000549316	0.00798035
2863.86	0.483124	1.72424e-05
2864.36	0.483673	4.79736e-05
2864.84	-3.96729e-05	0.00542603
2865.3	0.484131	1.00098e-05
2865.8	0.484039	2.97546e-05
2866.3	0.483429	0.0150879
2866.74	0.483551	1.12305e-05
2867.24	0.483337	2.63672e-05
2867.74	0.483887	0.00927734
2868.2	-0.69873	-0.0232025
2868.68	0.482941	2.4353e-05
2869.18	0.483704	0.000665588
2869.64	-0.699219	-0.0163269
2870.12	0.483459	1.44043e-05
2870.62	0.483337	0.000109741
2871.1	-0.000457764	0.00796814
2871.56	0.483887	1.14441e-05
2872.06	0.484283	4.63257e-05
2872.54	-0.00027771	0.00542206
2873	0.484253	6.43921e-06
2873.5	0.482941	3.73535e-05
2874	0.483215	0.0150909
2874.44	0.484222	5.5542e-06
2874.94	0.483002	2.74658e-05
2875.44	0.482361	0.00930481
2875.9	-0.697693	-0.0232269
2876.38	0.482727	2.38953e-05
2876.88	0.484222	0.000673828
2877.34	-0.697815	-0.0163391
2877.82	0.48288	2.18201e-05
2878.32	0.483551	0.000109741
2878.8	-0.000875854	0.00796204
2879.26	0.483002	1.7395e-05
2879.76	0.484039	4.76685e-05
2880.24	-8.23975e-05	0.00541718
2880.7	0.483643	9.24683e-06
2881.2	0.484192	2.79846e-05
2881.7	0.482513	0.015097
2882.14	0.483368	1.26343e-05
2882.64	0.483795	2.29187e-05
2883.14	0.483002	0.00932007
2883.6	-0.697723	-0.023233
2884.08	0.483643	1.73035e-05
2884.58	0.483337	0.000689392
2885.04	-0.698578	-0.0163605
2885.52	0.482849	2.10266e-05
2886.02	0.482819	0.000115753
2886.5	0.000323486	0.00794373
2886.96	0.483978	7.41577e-06
2887.46	0.483429	5.38635e-05
2887.94	-0.000421143	0.00541351
2888.4	0.482819	1.70288e-05
2888.9	0.484253	2.91138e-05
2889.4	0.482758	0.0151031
2889.84	0.483704	9.91821e-06
2890.34	0.483185	2.66113e-05
2890.84	0.483002	0.00933533
2891.3	-0.697845	-0.0232483
2891.78	0.48291	2.43225e-05
2892.28	0.483734	0.000700378
2892.74	-0.698059	-0.0163727
2893.22	0.484131	1.36719e-05
2893.72	0.482788	0.000115967
2894.2	-0.000720215	0.00793762
2894.66	0.483276	1.48315e-05
2895.16	0.484222	4.57458e-05
2895.64	0.000436401	0.00540588
2896.1	0.484222	7.44629e-06
2896.6	0.483582	3.48511e-05
2897.1	0.483429	0.0151123
2897.54	0.483978	4.88281e-06
2898.04	0.483002	2.72827e-05
2898.54	0.483917	0.00935364
2899	-0.6987	-0.0232483
2899.48	0.482758	2.4292e-05
2899.98	0.484161	0.000712891
2900.44	-0.698853	-0.016391
2900.92	0.482849	2.13928e-05
2901.42	0.483032	0.000115326
2901.9	0.000338745	0.00792847
2902.36	0.482941	1.72729e-05
2902.86	0.484009	4.88892e-05
2903.34	0.00015564	0.00539429
2903.8	0.483032	1.74561e-05
2904.3	0.483337	3.47595e-05
2904.8	0.482361	0.0151154
2905.24	0.483643	1.14136e-05
2905.74	0.483215	2.61536e-05
2906.24	0.483521	0.0093811
2906.7	-0.69751	-0.0232483
2907.18	0.483521	2.02332e-05
2907.68	0.483398	0.000729675
2908.14	-0.698792	-0.0164032
2908.62	0.48288	2.0874e-05
2909.12	0.483093	0.000113708
2909.6	0.000460815	0.00791321
2910.06	0.484253	1.09863e-05
2910.56	0.484314	4.6875E-05
2911.04	0.00043335	0.00538818
2911.5	0.483215	1.26648e-05
2912	0.483154	3.46375e-05
2912.5	0.482117	0.0151276
2912.94	0.483704	7.35474e-06
2913.44	0.484253	2.02026e-05
2913.94	0.483124	0.00939636
2914.4	-0.69873	-0.0232574
2914.88	0.483246	2.28577e-05
2915.38	0.483826	0.000740967
2915.84	-0.699219	-0.0164215
2916.32	0.483276	1.5564e-05
2916.82	0.484375	0.000108002
2917.3	0.000622559	0.007901
2917.76	0.482819	2.01111e-05
2918.26	0.482849	5.69458e-05
2918.74	-0.0006073	0.00538849
2919.2	0.483429	1.25122e-05
2919.7	0.483856	2.92664e-05
2920.2	0.481964	0.0151306
2920.64	0.482635	1.80969e-05
2921.14	0.483307	2.52991e-05
2921.64	0.482819	0.00942078
2922.1	-0.697632	-0.0232697
2922.58	0.483093	2.2522e-05
2923.08	0.483459	0.000762024
2923.54	-0.698303	-0.0164337
2924.02	0.484344	9.64355e-06
2924.52	0.48288	0.000120453
2925	0.000665283	0.00788574
2925.46	0.483368	1.58691e-05
2925.96	0.482697	5.85632e-05
2926.44	0.00078125	0.00536865
2926.9	0.483582	1.171875E-05
2927.4	0.483154	3.49731e-05
2927.9	0.483704	0.0151306
2928.34	0.483551	1.11084e-05
2928.84	0.482849	3.13721e-05
2929.34	0.482971	0.00943298
2929.8	-0.697815	-0.0232971
2930.28	0.484009	1.43433e-05
2930.78	0.483459	0.000782776
2931.24	-0.69928	-0.016452
2931.72	0.484283	1.10779e-05
2932.22	0.483429	0.000119629
2932.7	-0.00012207	0.00788269
2933.16	0.48288	1.953125E-05
2933.66	0.482941	5.70679e-05
2934.14	-0.000457764	0.00536499
2934.6	0.484039	1.11084e-05
2935.1	0.483459	3.28674e-05
2935.6	0.483032	0.0151398
2936.04	0.483948	9.12476e-06
2936.54	0.483032	2.94495e-05
2937.04	0.483978	0.00943604
2937.5	-0.6987	-0.0233032
2937.98	0.4841	1.65405e-05
2938.48	0.484192	0.000801392
2938.94	-0.699097	-0.0164673
2939.42	0.483215	1.70593e-05
2939.92	0.484009	0.000115448
2940.4	-0.000912476	0.00785828
2940.86	0.483154	1.55334e-05
2941.36	0.483948	4.93774e-05
2941.84	-0.000311279	0.00535767
2942.3	0.483856	1.10168e-05
2942.8	0.4841	3.02124e-05
2943.3	0.483246	0.0151337
2943.74	0.48407	6.19507e-06
2944.24	0.482727	3.14026e-05
2944.74	0.482788	0.00946045
2945.2	-0.697266	-0.0233154
2945.68	0.483032	2.31018e-05
2946.18	0.483093	0.000822449
2946.64	-0.699219	-0.0164917
2947.12	0.482758	2.24609e-05
2947.62	0.482666	0.000124603
2948.1	-0.00100403	0.00784607
2948.56	0.484406	8.17871e-06
2949.06	0.483856	5.07507e-05
2949.54	0.000717163	0.00534973
2950	0.483124	1.5564e-05
2950.5	0.484222	3.13721e-05
2951	0.4823	0.015155
2951.44	0.482605	1.68457e-05
2951.94	0.483887	2.37427e-05
2952.44	0.48288	0.00948792
2952.9	-0.698822	-0.0233124
2953.38	0.48349	1.86768e-05
2953.88	0.484344	0.000834656
2954.34	-0.698181	-0.0164978
2954.82	0.484436	9.73511e-06
2955.32	0.484039	0.000115784
2955.8	-0.000985718	0.00783386
2956.26	0.48291	1.75781e-05
2956.76	0.48291	6.09436e-05
2957.24	0.000262451	0.00533905
2957.7	0.484314	7.01904e-06
2958.2	0.482697	4.14124e-05
2958.7	0.482819	0.015152
2959.14	0.483704	6.95801e-06
2959.64	0.482666	3.07617e-05
2960.14	0.484009	0.00948486
2960.6	-0.698395	-0.0233429
2961.08	0.484467	1.45874e-05
2961.58	0.484406	0.000856934
2962.04	-0.697601	-0.0165375
2962.52	0.483887	1.43127e-05
2963.02	0.483032	0.000124969
2963.5	0.000369263	0.00781555
2963.96	0.482849	1.99585e-05
2964.46	0.483276	5.70068e-05
2964.94	-0.000360107	0.00533844
2965.4	0.483429	1.39465e-05
2965.9	0.483765	3.23486e-05
2966.4	0.482544	0.0151489
2966.84	0.484314	5.82886e-06
2967.34	0.484406	1.93481e-05
2967.84	0.483429	0.00950928
2968.3	-0.698395	-0.0233459
2968.78	0.483459	2.3407e-05
2969.28	0.483734	0.000877075
2969.74	-0.697662	-0.0165466
2970.22	0.484314	1.07727e-05
2970.72	0.484344	0.000114105
2971.2	-0.00090332	0.0078064
2971.66	0.483002	1.75171e-05
2972.16	0.48407	5.05066e-05
2972.64	0.000888062	0.0053299
2973.1	0.484222	5.76782e-06
2973.6	0.483307	3.52173e-05
2974.1	0.483734	0.015155
2974.54	0.482635	1.52283e-05
2975.04	0.483948	2.08435e-05
2975.54	0.483856	0.00951538
2976	-0.697357	-0.0233612
2976.48	0.483978	1.73645e-05
2976.98	0.484344	0.000888977
2977.44	-0.697632	-0.0165649
2977.92	0.483734	1.49536e-05
2978.42	0.484131	0.000116241
2978.9	-0.000964355	0.00780334
2979.36	0.483459	1.09253e-05
2979.86	0.484375	4.89807e-05
2980.34	0.000958252	0.00532166
2980.8	0.48291	1.46484e-05
2981.3	0.482819	3.94897e-05
2981.8	0.482025	0.0151611
2982.24	0.484314	4.36401e-06
2982.74	0.483551	2.32544e-05
2983.24	0.484009	0.00953369
2983.7	-0.6987	-0.0233643
2984.18	0.483734	1.97449e-05
2984.68	0.483643	0.00091095
2985.14	-0.69931	-0.016568
2985.62	0.482819	2.09351e-05
2986.12	0.482605	0.000128662
2986.6	0.000628662	0.00777893
2987.06	0.483032	2.02942e-05
2987.56	0.483795	5.09033e-05
2988.04	-0.000228882	0.00531738
2988.5	0.483154	1.56555e-05
2989	0.484375	2.78625e-05
2989.5	0.482361	0.0151642
2989.94	0.482666	1.63879e-05
2990.44	0.484039	2.29187e-05
2990.94	0.483093	0.00956421
2991.4	-0.698456	-0.0233795
2991.88	0.484222	1.49231e-05
2992.38	0.484314	0.000939026
2992.84	-0.699005	-0.0165802
2993.32	0.484222	1.2207e-05
2993.82	0.482727	0.000130219
2994.3	0.000241089	0.00775757
2994.76	0.484314	9.52148e-06
2995.26	0.48288	6.01196e-05
2995.74	0.000894165	0.00530273
2996.2	0.48407	9.58252e-06
2996.7	0.482513	4.06189e-05
2997.2	0.483154	0.0151703
2997.64	0.482758	1.8158e-05
2998.14	0.483582	2.41394e-05
2998.64	0.483978	0.00956116
2999.1	-0.697845	-0.0233765
2999.58	0.483734	1.9104e-05
3000.08	0.483063	0.000967407
3000.54	-0.697571	-0.0166046
3001.02	0.484161	1.08643e-05
3001.52	0.484375	0.000121033
3002	0.000692749	0.00775452
3002.46	0.482971	1.9043e-05
3002.96	0.483154	5.66711e-05
3003.44	-0.00015564	0.00529938
3003.9	0.483154	1.50452e-05
3004.4	0.483673	3.2959e-05
3004.9	0.482391	0.0151825
3005.34	0.484406	3.90625e-06
3005.84	0.482788	2.91443e-05
3006.34	0.482971	0.00959167
3006.8	-0.697937	-0.0233826
3007.28	0.484192	1.5564e-05
3007.78	0.482697	0.000987854
3008.24	-0.697632	-0.016626
3008.72	0.483612	1.74561e-05
3009.22	0.483032	0.000131897
3009.7	0.000683594	0.00774536
3010.16	0.4841	9.24683e-06
3010.66	0.483063	6.08826e-05
3011.14	0.000765991	0.00529114
3011.6	0.482605	1.94397e-05
3012.1	0.484375	2.90833e-05
3012.6	0.481873	0.0151764
3013.04	0.483032	1.54114e-05
3013.54	0.482697	2.90527e-05
3014.04	0.483948	0.00960083
3014.5	-0.698059	-0.0233948
3014.98	0.483185	2.01416e-05
3015.48	0.482727	0.00101166
3015.94	-0.69809	-0.0166412
3016.42	0.484467	1.09253e-05
3016.92	0.48288	0.000134338
3017.4	0.000527954	0.00773315
3017.86	0.483643	1.33667e-05
3018.36	0.482971	5.98145e-05
3018.84	-0.000479126	0.00529175
3019.3	0.484497	7.41577e-06
3019.8	0.483978	3.02429e-05
3020.3	0.481934	0.0151794
3020.74	0.484344	4.82178e-06
3021.24	0.4841	2.09351e-05
3021.46	0.482941	1.23596e-05