File: Edgar/20240531/20240531/electrodeposition_pulsed_potential_20240531_A/pulses_0_to_1000.txt
Time (s)	WE(1).Potential (V)	WE(1).Current (A)
183.424	-0.6987	-0.00246521
183.904	0.483917	-4.42505e-06
184.404	0.483307	5.70679e-06
184.864	-0.698914	-0.00166992
185.344	0.483521	2.68555e-06
185.844	0.483795	1.12915e-06
186.324	-0.000231934	0.000146851
186.784	0.484222	-4.76074e-06
187.284	0.484222	-1.0376e-06
187.764	-0.000466919	3.96729e-05
188.224	0.483063	3.66211e-06
188.724	0.48291	7.72095e-06
189.224	0.484222	7.8064e-05
189.664	0.4841	-2.89917e-06
190.164	0.482941	8.27026e-06
190.664	0.483429	2.26135e-05
191.124	-0.700043	-0.0022226
191.604	0.482971	7.65991e-06
192.104	0.483826	1.18408e-05
192.564	-0.699249	-0.00169891
193.044	0.484344	-3.20435e-06
193.544	0.483185	1.3916e-05
194.024	0.000830078	0.000217773
194.484	0.483887	5.18799e-07
194.984	0.483459	1.08643e-05
195.464	-0.000360107	5.52979e-05
195.924	0.483337	7.72095e-06
196.424	0.483978	6.68335e-06
196.924	0.484314	9.61609e-05
197.364	0.483765	-1.83105e-07
197.864	0.483398	5.82886e-06
198.364	0.483948	2.65503e-05
198.824	-0.700043	-0.00263519
199.304	0.482788	1.15967e-05
199.804	0.483765	2.07825e-05
200.264	-0.700226	-0.00192474
200.744	0.483337	6.01196e-06
201.244	0.483978	1.52588e-05
201.724	-0.000613403	0.000313965
202.184	0.483124	6.7749e-06
202.684	0.48291	1.80969e-05
203.164	-0.000332642	7.1167e-05
203.624	0.482697	1.17798e-05
204.124	0.482666	1.71814e-05
204.624	0.483459	0.000107452
205.064	0.483093	9.49097e-06
205.564	0.483795	8.66699e-06
206.064	0.482635	4.34265e-05
206.524	-0.699402	-0.00316101
207.004	0.483551	1.25732e-05
207.504	0.483826	2.22473e-05
207.964	-0.698547	-0.00223328
208.444	0.484467	3.87573e-06
208.944	0.483978	1.75476e-05
209.424	0.000970459	0.000447449
209.884	0.484589	5.06592e-06
210.384	0.484161	1.58997e-05
210.864	-0.000552368	9.23462e-05
211.324	0.483978	6.50024e-06
211.824	0.483276	1.71814e-05
212.324	0.483154	0.000118896
212.764	0.484589	2.38037e-06
213.264	0.483002	1.80054e-05
213.764	0.484009	4.44641e-05
214.224	-0.699768	-0.00379242
214.704	0.482971	1.80664e-05
215.204	0.484619	3.05481e-05
215.664	-0.699066	-0.00257996
216.144	0.483948	1.10474e-05
216.644	0.482727	3.16162e-05
217.124	-7.32422e-05	0.000737915
217.584	0.482666	1.95923e-05
218.084	0.484558	1.75476e-05
218.564	0.000875854	0.000100189
219.024	0.483154	1.49231e-05
219.524	0.482635	2.62451e-05
220.024	0.484497	0.000122406
220.464	0.484161	8.11768e-06
220.964	0.482483	2.44141e-05
221.464	0.483124	6.04858e-05
221.924	-0.699219	-0.00452271
222.404	0.483124	2.07214e-05
222.904	0.483917	4.05884e-05
223.364	-0.700165	-0.00292816
223.844	0.482697	2.26746e-05
224.344	0.483032	3.60413e-05
224.824	0.00137329	0.00148224
225.284	0.482605	2.12402e-05
225.784	0.483704	2.6825e-05
226.264	-0.000299072	0.000122406
226.724	0.484406	8.17871e-06
227.224	0.482544	2.75879e-05
227.724	0.48349	0.000148773
228.164	0.483704	1.37024e-05
228.664	0.483582	1.84326e-05
229.164	0.483337	6.49109e-05
229.624	-0.700195	-0.00523834
230.104	0.483978	1.13525e-05
230.604	0.484253	3.83911e-05
231.064	-0.698853	-0.0032309
231.544	0.483612	1.19324e-05
232.044	0.483582	3.30505e-05
232.524	0.000527954	0.00280243
232.984	0.482819	1.828e-05
233.484	0.484589	2.02942e-05
233.964	-0.000509644	0.0001362
234.424	0.482819	1.51367e-05
234.924	0.482941	2.53296e-05
235.424	0.48291	0.000161377
235.864	0.483795	1.00403e-05
236.364	0.482605	1.95007e-05
236.864	0.482758	6.67725e-05
237.324	-0.698608	-0.00588837
237.804	0.484192	1.11389e-05
238.304	0.483093	4.1626e-05
238.764	-0.700317	-0.00344574
239.244	0.483704	1.02539e-05
239.744	0.48288	2.87781e-05
240.224	-0.000201416	0.00408875
240.684	0.482666	1.63879e-05
241.184	0.483856	2.31018e-05
241.664	0.000735474	0.00014389
242.124	0.483978	6.40869e-06
242.624	0.483093	1.77002e-05
243.124	0.484253	0.000155457
243.564	0.483582	6.2561e-06
244.064	0.482605	2.19727e-05
244.564	0.484314	5.29785e-05
245.024	-0.698944	-0.00644073
245.504	0.482697	2.04773e-05
246.004	0.483978	2.88086e-05
246.464	-0.698364	-0.00362946
246.944	0.483948	1.09863e-05
247.444	0.484467	1.93176e-05
247.924	-0.000473022	0.00507294
248.384	0.484192	6.95801e-06
248.884	0.483429	1.87073e-05
249.364	-0.000643921	0.000170319
249.824	0.482574	1.59607e-05
250.324	0.4841	1.27563e-05
250.824	0.482819	0.00016803
251.264	0.484192	3.02124e-06
251.764	0.483429	1.51367e-05
252.264	0.484222	4.6875E-05
252.724	-0.698608	-0.00694519
253.204	0.484222	4.76074e-06
253.704	0.483734	3.24097e-05
254.164	-0.698608	-0.00377289
254.644	0.483551	1.10168e-05
255.144	0.483582	2.38037e-05
255.624	0.000845337	0.00581085
256.084	0.484497	1.77002e-06
256.584	0.484131	1.35803e-05
257.064	0.000308228	0.000205383
257.524	0.483429	1.01013e-05
258.024	0.48407	1.11084e-05
258.524	0.483887	0.000160522
258.964	0.483917	5.64575e-06
259.464	0.482544	1.62354e-05
259.964	0.484009	4.95605e-05
260.424	-0.698425	-0.00738739
260.904	0.483154	1.16577e-05
261.404	0.483093	3.29895e-05
261.864	-0.700012	-0.00389954
262.344	0.483368	1.04675e-05
262.844	0.482666	2.89917e-05
263.324	-0.00032959	0.00639923
263.784	0.484528	9.76562e-07
264.284	0.484283	9.85718e-06
264.764	0.000744629	0.000245178
265.224	0.483429	9.00269e-06
265.724	0.484253	7.14111e-06
266.224	0.48288	0.00016803
266.664	0.483917	-1.40381e-06
267.164	0.482971	1.16577e-05
267.664	0.483704	4.72412e-05
268.124	-0.700012	-0.00778809
268.604	0.483765	6.98853e-06
269.104	0.482605	3.302e-05
269.564	-0.700073	-0.00401642
270.044	0.482758	7.2937e-06
270.544	0.483307	2.02942e-05
271.024	0.00110474	0.00686401
271.484	0.482941	1.08643e-05
271.984	0.483398	1.57471e-05
272.464	0.000787354	0.000299896
272.924	0.484406	-1.28174e-06
273.424	0.482788	1.31836e-05
273.924	0.484375	0.000167328
274.364	0.483276	1.08032e-05
274.864	0.483215	1.00708e-05
275.364	0.484192	4.27551e-05
275.824	-0.699921	-0.00814819
276.304	0.482849	1.26953e-05
276.804	0.4841	2.01721e-05
277.264	-0.699615	-0.00413361
277.744	0.482483	1.11694e-05
278.244	0.483795	1.43127e-05
278.724	-0.000189209	0.00724945
279.184	0.483459	6.86646e-06
279.684	0.484009	1.08643e-05
280.164	-0.000701904	0.00038382
280.624	0.48349	2.0752e-06
281.124	0.484528	4.88281e-06
281.624	0.482819	0.000183777
282.064	0.482605	5.37109e-06
282.564	0.483459	7.08008e-06
283.064	0.484161	4.06189e-05
283.524	-0.698212	-0.00849304
284.004	0.4841	4.18091e-06
284.504	0.484009	2.22778e-05
284.964	-0.698578	-0.0042514
285.444	0.484711	2.59399e-06
285.944	0.48291	1.89209e-05
286.424	0.000653076	0.00757751
286.884	0.48288	8.97217e-06
287.384	0.484344	6.22559e-06
287.864	-0.000448608	0.00046701
288.324	0.483124	6.34766e-06
288.824	0.482819	1.45264e-05
289.324	0.482666	0.000188446
289.764	0.483795	1.19019e-06
290.264	0.483337	1.13831e-05
290.764	0.48288	4.96521e-05
291.224	-0.699738	-0.00879517
291.704	0.484314	-2.74658e-07
292.204	0.483154	2.74658e-05
292.664	-0.700195	-0.00435272
293.144	0.483368	6.74438e-06
293.644	0.484192	1.62659e-05
294.124	0.000311279	0.00786133
294.584	0.484436	-2.59399e-06
295.084	0.484253	6.2561e-06
295.564	0.00113831	0.000554504
296.024	0.483917	1.46484e-06
296.524	0.484375	2.44141e-06
297.024	0.483246	0.000193115
297.464	0.483093	5.52368e-06
297.964	0.483215	9.15527e-06
298.464	0.483093	4.81873e-05
298.924	-0.699371	-0.00907898
299.404	0.484314	-1.25122e-06
299.904	0.483978	1.97754e-05
300.364	-0.698578	-0.0044632
300.844	0.482758	8.3313e-06
301.344	0.482758	1.90125e-05
301.824	0.000753784	0.00810242
302.284	0.48407	-7.62939e-07
302.784	0.483612	9.97925e-06
303.264	-0.000588989	0.000658875
303.724	0.482849	9.09424e-06
304.224	0.482574	1.01318e-05
304.724	0.483032	0.000200256
305.164	0.482605	1.02844e-05
305.664	0.484283	-4.27246e-07
306.164	0.484314	3.81775e-05
306.624	-0.698486	-0.00934143
307.104	0.483521	5.5542e-06
307.604	0.484192	1.66016e-05
308.064	-0.699829	-0.00455994
308.544	0.48288	6.31714e-06
309.044	0.484131	1.3916e-05
309.524	-0.000292969	0.0083313
309.984	0.484161	-3.57056e-06
310.484	0.482819	1.54114e-05
310.964	0.000869751	0.000765381
311.424	0.483398	3.2959e-06
311.924	0.483551	7.65991e-06
312.424	0.4841	0.00020105
312.864	0.484375	-3.08228e-06
313.364	0.48349	6.04248e-06
313.864	0.484253	3.48511e-05
314.324	-0.699677	-0.00958557
314.804	0.484497	-2.68555e-06
315.304	0.482697	2.67334e-05
315.764	-0.698486	-0.00465668
316.244	0.483582	3.26538e-06
316.744	0.482727	1.88599e-05
317.224	6.10352e-06	0.00851135
317.684	0.484009	-3.05176e-08
318.184	0.483734	6.46973e-06
318.664	0.0009765625	0.000870361
319.124	0.484253	-2.89917e-06
319.624	0.484375	1.00708e-06
320.124	0.484314	0.000208099
320.564	0.483582	1.28174e-06
321.064	0.482788	1.18408e-05
321.564	0.483002	4.5929e-05
322.024	-0.699615	-0.00981445
322.504	0.484253	4.27246e-07
323.004	0.484192	1.50757e-05
323.464	-0.699707	-0.00474365
323.944	0.48288	6.92749e-06
324.444	0.483093	1.52893e-05
324.924	0.000680542	0.00869446
325.384	0.484375	-2.44141e-06
325.884	0.482574	1.41602e-05
326.364	0.00118408	0.000984192
326.824	0.484436	-5.43213e-06
327.324	0.483063	1.12915e-05
327.824	0.484375	0.000218658
328.264	0.484467	-2.53296e-06
328.764	0.482697	1.08032e-05
329.264	0.484314	3.60718e-05
329.724	-0.698273	-0.0100372
330.204	0.482788	8.20923e-06
330.704	0.484131	1.63879e-05
331.164	-0.700104	-0.00483368
331.644	0.482635	8.30078e-06
332.144	0.484344	6.68335e-06
332.624	0.000811768	0.00884399
333.084	0.483276	4.08936e-06
333.584	0.48349	6.04248e-06
334.064	-0.000158691	0.00110718
334.524	0.483765	5.67627e-06
335.024	0.484253	1.80054e-06
335.524	0.484436	0.000226929
335.964	0.483246	5.43213e-06
336.464	0.482666	9.18579e-06
336.964	0.483459	4.29382e-05
337.424	-0.699707	-0.0102234
337.904	0.482849	7.53784e-06
338.404	0.483521	2.11792e-05
338.864	-0.69928	-0.0049295
339.344	0.482849	7.75146e-06
339.844	0.484406	7.75146e-06
340.324	0.000714111	0.00898743
340.784	0.483765	-2.62451e-06
341.284	0.482819	1.34583e-05
341.764	0.00106201	0.00121948
342.224	0.484222	-2.68555e-06
342.724	0.483032	9.765625E-06
343.224	0.483582	0.000239594
343.664	0.484375	-3.84521e-06
344.164	0.483032	9.42993e-06
344.664	0.48407	3.9093e-05
345.124	-0.699585	-0.0104309
345.604	0.482666	8.08716e-06
346.104	0.484222	1.55945e-05
346.564	-0.699921	-0.0050058
347.044	0.483887	-9.15527e-07
347.544	0.484619	4.63867e-06
348.024	0.000704956	0.0091095
348.484	0.482666	5.31006e-06
348.984	0.482758	1.47705e-05
349.464	7.32422e-05	0.00133423
349.924	0.484406	-4.57764e-06
350.424	0.484253	1.58691e-06
350.924	0.484497	0.000243042
351.364	0.483582	-6.10352e-08
351.864	0.483185	8.63647e-06
352.364	0.482788	4.72717e-05
352.824	-0.698914	-0.0105957
353.304	0.483582	2.0752e-06
353.804	0.482666	2.35596e-05
354.264	-0.698334	-0.00510223
354.744	0.482758	8.54492e-06
355.244	0.484253	1.15967e-05
355.724	6.71387e-05	0.00922852
356.184	0.484467	-5.76782e-06
356.684	0.484283	1.95313e-06
357.164	0.000308228	0.00145538
357.624	0.483887	3.05176e-08
358.124	0.484406	-1.12915e-06
358.624	0.483551	0.000259094
359.064	0.482697	5.00488e-06
359.564	0.482758	8.36182e-06
360.064	0.483795	4.26331e-05
360.524	-0.697937	-0.0107788
361.004	0.483612	4.11987e-06
361.504	0.484467	1.29395e-05
361.964	-0.699799	-0.00517731
362.444	0.483459	2.80762e-06
362.944	0.483887	1.2146e-05
363.424	0.000274658	0.00934448
363.884	0.483856	5.58472e-06
364.384	0.483734	7.84302e-06
364.864	0.000967407	0.00157135
365.324	0.483063	2.99072e-06
365.824	0.48407	2.19727e-06
366.324	0.483124	0.000271515
366.764	0.483521	2.16675e-06
367.264	0.484131	3.05176e-08
367.764	0.484314	3.83606e-05
368.224	-0.699738	-0.0109375
368.704	0.484039	2.13623e-07
369.204	0.483673	1.71814e-05
369.664	-0.699188	-0.00526337
370.144	0.483368	3.60107e-06
370.644	0.484283	6.16455e-06
371.124	-0.000708008	0.00943604
371.584	0.483765	1.2207e-07
372.084	0.483795	1.09863e-05
372.564	0.000521851	0.0016861
373.024	0.484314	-1.7395e-06
373.524	0.483551	6.7749e-06
374.024	0.483734	0.000278473
374.464	0.482697	6.95801e-06
374.964	0.483032	6.74438e-06
375.464	0.483978	4.04663e-05
375.924	-0.699707	-0.0110901
376.404	0.484222	-2.89917e-06
376.904	0.48288	2.54517e-05
377.364	-0.699524	-0.00533386
377.844	0.483276	4.94385e-06
378.344	0.483398	1.12305e-05
378.824	-0.000695801	0.00953064
379.284	0.48288	5.82886e-06
379.784	0.484161	2.96021e-06
380.264	-0.000427246	0.00180847
380.724	0.484161	-2.28882e-06
381.224	0.482971	9.24683e-06
381.724	0.48291	0.000295837
382.164	0.483032	5.15747e-06
382.664	0.483093	3.08228e-06
383.164	0.483704	3.97339e-05
383.624	-0.698364	-0.0112488
384.104	0.484558	-2.96021e-06
384.604	0.484375	1.36414e-05
385.064	-0.699341	-0.00541138
385.544	0.482788	6.83594e-06
386.044	0.484131	6.7749e-06
386.524	0.000906372	0.00961914
386.984	0.484436	-3.66211e-06
387.484	0.482635	1.31226e-05
387.964	1.83105e-05	0.00192169
388.424	0.48288	6.56128e-06
388.924	0.484406	-7.32422e-07
389.424	0.482849	0.000305206
389.864	0.484375	-4.88281e-06
390.364	0.482758	9.52148e-06
390.864	0.484375	3.89099e-05
391.324	-0.698212	-0.0113892
391.804	0.482727	8.81958e-06
392.304	0.483704	1.67236e-05
392.764	-0.699463	-0.00548981
393.244	0.483978	-6.71387e-07
393.744	0.484253	8.91113e-06
394.224	0.000561523	0.00969543
394.684	0.484039	-6.71387e-07
395.184	0.48291	1.31531e-05
395.664	0.00106812	0.00201996
396.124	0.484406	-3.38745e-06
396.624	0.483307	5.27954e-06
397.124	0.483215	0.000313782
397.564	0.483337	4.39453e-06
398.064	0.48407	-7.32422e-07
398.564	0.482849	5.17883e-05
399.024	-0.699799	-0.0115326
399.504	0.483276	4.42505e-06
400.004	0.483154	2.03552e-05
400.464	-0.699066	-0.00556763
400.944	0.482727	8.11768e-06
401.444	0.484406	4.91333e-06
401.924	-0.000866699	0.00978699
402.384	0.482635	8.20923e-06
402.884	0.484344	-1.2207e-07
403.364	-3.35693e-05	0.00213959
403.824	0.482666	7.35474e-06
404.324	0.483734	4.63867e-06
404.824	0.484161	0.000319122
405.264	0.482758	5.67627e-06
405.764	0.483612	3.44849e-06
406.264	0.484528	4.00391e-05
406.724	-0.698059	-0.0116821
407.204	0.482819	7.96509e-06
407.704	0.482574	2.73132e-05
408.164	-0.700073	-0.00563263
408.644	0.482971	2.96021e-06
409.144	0.483154	1.61743e-05
409.624	0.000482178	0.00983887
410.084	0.482758	9.0332e-06
410.584	0.482941	5.15747e-06
411.064	-0.000201416	0.00224579
411.524	0.483002	2.83813e-06
412.024	0.483002	9.52148e-06
412.524	0.483673	0.000332733
412.964	0.482422	8.54492e-06
413.464	0.482666	9.18579e-06
413.964	0.482666	5.34058e-05
414.424	-0.699402	-0.0117889
414.904	0.482788	7.04956e-06
415.404	0.48291	2.39868e-05
415.864	-0.699463	-0.00570831
416.344	0.483429	2.01416e-06
416.844	0.484467	5.92041e-06
417.324	0.000195313	0.00993042
417.784	0.484467	-3.93677e-06
418.284	0.484436	9.46045e-07
418.764	0.000735474	0.00234497
419.224	0.483856	-2.44141e-06
419.724	0.484009	1.98364e-06
420.224	0.483154	0.000348694
420.664	0.48349	1.83105e-06
421.164	0.483215	5.92041e-06
421.664	0.483643	4.7699e-05
422.124	-0.698547	-0.0119324
422.604	0.482819	8.88062e-06
423.104	0.482758	2.51465e-05
423.564	-0.699402	-0.00578644
424.044	0.484375	-2.71606e-06
424.544	0.482666	1.69373e-05
425.024	-0.00093689	0.0099762
425.484	0.483307	1.34277e-06
425.984	0.484528	5.7373e-06
426.464	9.15527e-06	0.00244904
426.924	0.483795	-1.49536e-06
427.424	0.483643	7.26318e-06
427.924	0.484039	0.000351837
428.364	0.484436	-4.57764e-06
428.864	0.483124	9.33838e-06
429.364	0.483459	4.63562e-05
429.824	-0.699036	-0.0120483
430.304	0.483002	1.52588e-06
430.804	0.484039	1.70898e-05
431.264	-0.698364	-0.005859375
431.744	0.484375	-1.80054e-06
432.244	0.484467	4.66919e-06
432.724	0.000354004	0.010025
433.184	0.483826	-2.62451e-06
433.684	0.482758	1.27869e-05
434.164	0.000784302	0.00254364
434.624	0.483917	-3.35693e-07
435.124	0.484436	-2.16675e-06
435.624	0.483459	0.000370911
436.064	0.482483	6.5918e-06
436.564	0.483948	1.25122e-06
437.064	0.483368	5.05676e-05
437.524	-0.697968	-0.0121765
438.004	0.48291	7.59888e-06
438.504	0.4841	1.48315e-05
438.964	-0.699707	-0.00591919
439.444	0.484406	-1.80054e-06
439.944	0.483307	1.22986e-05
440.424	0.000521851	0.0101044
440.884	0.483948	-1.70898e-06
441.384	0.48288	1.26648e-05
441.864	0.00126648	0.00263885
442.324	0.482758	7.38525e-06
442.824	0.484436	-8.23975e-07
443.324	0.482758	0.000389465
443.764	0.483795	-1.5564e-06
444.264	0.482697	9.64355e-06
444.764	0.484497	4.31519e-05
445.224	-0.699585	-0.0122925
445.704	0.4841	-1.49536e-06
446.204	0.482544	2.69775e-05
446.664	-0.698578	-0.0059967
447.144	0.482574	8.3313e-06
447.644	0.483978	8.94165e-06
448.124	-0.000942993	0.0101379
448.584	0.484375	-3.90625e-06
449.084	0.482971	1.2146e-05
449.564	-0.000622559	0.00274078
450.024	0.483063	4.45557e-06
450.524	0.483948	6.10352e-07
451.024	0.483704	0.000394653
451.464	0.483063	2.65503e-06
451.964	0.484375	-2.01416e-06
452.464	0.483124	5.38025e-05
452.924	-0.69809	-0.0124054
453.404	0.482635	7.62939e-06
453.904	0.484497	1.47705e-05
454.364	-0.699402	-0.00605652
454.844	0.482788	4.97437e-06
455.344	0.484131	7.44629e-06
455.824	-0.000930786	0.0101898
456.284	0.484375	-3.9978e-06
456.784	0.482849	1.21155e-05
457.264	9.15527e-06	0.00283051
457.724	0.482819	5.98145e-06
458.224	0.484344	-2.44141e-07
458.724	0.48288	0.000415253
459.164	0.483948	-3.84521e-06
459.664	0.482849	8.94165e-06
460.164	0.484222	4.63562e-05
460.624	-0.69812	-0.0125092
461.104	0.484222	-1.46484e-06
461.604	0.483124	2.33154e-05
462.064	-0.699249	-0.00613007
462.544	0.484253	-2.86865e-06
463.044	0.482788	1.66931e-05
463.524	0.00043335	0.0102295
463.984	0.482819	5.85937e-06
464.484	0.484253	2.56348e-06
464.964	-0.000134277	0.00291595
465.424	0.484314	-4.02832e-06
465.924	0.483246	7.20215e-06
466.424	0.482971	0.000429657
466.864	0.484314	-4.76074e-06
467.364	0.483032	7.35474e-06
467.864	0.483704	5.26123e-05
468.324	-0.699341	-0.012619
468.804	0.48291	6.71387e-06
469.304	0.48407	1.651e-05
469.764	-0.699585	-0.00619446
470.244	0.482849	6.71387e-06
470.744	0.483856	1.0437e-05
471.224	-0.000708008	0.0102844
471.684	0.484253	-4.63867e-06
472.184	0.483246	1.01929e-05
472.664	0.000317383	0.00299927
473.124	0.482819	5.61523e-06
473.624	0.483246	6.95801e-06
474.124	0.484314	0.000435455
474.564	0.482788	6.5918e-06
475.064	0.484253	-1.40381e-06
475.564	0.483002	5.72815e-05
476.024	-0.6987	-0.0127319
476.504	0.482697	5.95093e-06
477.004	0.484131	1.651e-05
477.464	-0.698456	-0.00626831
477.944	0.483276	5.64575e-06
478.444	0.483002	1.50146e-05
478.924	0.000488281	0.010318
479.384	0.483246	1.67847e-06
479.884	0.483704	6.62231e-06
480.364	-9.15527e-05	0.0030957
480.824	0.484009	-3.9978e-06
481.324	0.48349	7.35474e-06
481.824	0.483093	0.000457916
482.264	0.483521	4.88281e-07
482.764	0.484344	-2.19727e-06
483.264	0.483093	5.896e-05
483.724	-0.698792	-0.0128296
484.204	0.484161	-2.01416e-06
484.704	0.48407	2.2522e-05
485.164	-0.698822	-0.00633301
485.644	0.48291	6.80542e-06
486.144	0.48349	1.68762e-05
486.624	-0.000106812	0.0103668
487.084	0.483917	-2.68555e-06
487.584	0.482971	9.67407e-06
488.064	0.000604248	0.003172
488.524	0.482971	5.21851e-06
489.024	0.484222	-3.05176e-07
489.524	0.483795	0.000471588
489.964	0.483246	1.52588e-06
490.464	0.484253	-1.12915e-06
490.964	0.482941	5.9967e-05
491.424	-0.699158	-0.012912
491.904	0.483643	2.22778e-06
492.404	0.483154	2.33765e-05
492.864	-0.698334	-0.00639893
493.344	0.484161	-2.68555e-06
493.844	0.484253	6.98853e-06
494.324	0.000488281	0.0103943
494.784	0.483337	2.53296e-06
495.284	0.4841	2.89917e-06
495.764	0.000582886	0.00324463
496.224	0.483185	2.50244e-06
496.724	0.483307	5.58472e-06
497.224	0.484467	0.000484924
497.664	0.483673	2.19727e-06
498.164	0.48291	7.1106e-06
498.664	0.484406	4.90417e-05
499.124	-0.699341	-0.0130157
499.604	0.483643	-1.15967e-06
500.104	0.484192	1.78528e-05
500.564	-0.699951	-0.00645447
501.044	0.484222	-4.79126e-06
501.544	0.483551	1.43127e-05
502.024	0.000674438	0.010434
502.484	0.483032	7.62939e-07
502.984	0.484589	3.08228e-06
503.464	0.000564575	0.00332642
503.924	0.482605	6.56128e-06
504.424	0.483337	7.93457e-06
504.924	0.483276	0.000506287
505.364	0.48288	4.88281e-06
505.864	0.484467	-2.38037e-06
506.364	0.483398	5.6488e-05
506.824	-0.699829	-0.0131134
507.304	0.482727	8.54492e-06
507.804	0.483978	1.78223e-05
508.264	-0.69989	-0.00651642
508.744	0.482758	6.80542e-06
509.244	0.484161	6.68335e-06
509.724	-0.000994873	0.0104675
510.184	0.483582	-2.74658e-07
510.684	0.484406	2.31934e-06
511.164	0.00110474	0.00339966
511.624	0.483704	-2.44141e-07
512.124	0.484375	-1.12915e-06
512.624	0.483215	0.00053009
513.064	0.48291	5.18799e-06
513.564	0.484436	-2.13623e-06
514.064	0.482758	6.18896e-05
514.524	-0.697937	-0.0132202
515.004	0.484528	-2.7771e-06
515.504	0.482666	2.70386e-05
515.964	-0.699463	-0.00658813
516.444	0.482941	8.42285e-06
516.944	0.48291	1.03455e-05
517.424	0.000637817	0.0105042
517.884	0.482819	6.13403e-06
518.385	0.48291	1.36719e-05
518.865	0.000283813	0.00347809
519.325	0.484253	-4.60815e-06
519.825	0.4841	1.64795e-06
520.325	0.482758	0.000554199
520.765	0.484406	-6.01196e-06
521.265	0.483246	7.35474e-06
521.765	0.483429	5.72815e-05
522.225	-0.698334	-0.0133026
522.705	0.484436	-2.01416e-06
523.205	0.482666	2.86865e-05
523.665	-0.698364	-0.00666016
524.145	0.483978	-6.40869e-07
524.645	0.482635	1.80359e-05
525.125	-0.00039978	0.0105408
525.585	0.483673	1.49536e-06
526.085	0.482971	1.05286e-05
526.565	0.000827026	0.00354797
527.025	0.482819	3.02124e-06
527.525	0.483459	2.28882e-06
528.025	0.48349	0.000563354
528.465	0.483032	3.23486e-06
528.965	0.484009	1.09863e-06
529.465	0.484467	5.05066e-05
529.925	-0.699158	-0.0134033
530.405	0.483917	1.2207e-07
530.905	0.482971	2.5116e-05
531.365	-0.698456	-0.00672333
531.845	0.483917	-4.27246e-07
532.345	0.483368	1.37634e-05
532.825	-0.000320435	0.0105652
533.285	0.484344	-2.96021e-06
533.785	0.483429	1.00708e-05
534.265	0.000695801	0.00361847
534.725	0.484131	-1.83105e-06
535.225	0.483765	4.24194e-06
535.725	0.482849	0.000596313
536.165	0.482605	5.06592e-06
536.665	0.484436	-2.04468e-06
537.165	0.482788	6.62231e-05
537.625	-0.699371	-0.0134857
538.105	0.483704	8.23975e-07
538.605	0.482666	3.03955e-05
539.065	-0.699402	-0.00677368
539.545	0.483704	6.10352e-08
540.045	0.483582	1.3031e-05
540.525	-0.000189209	0.0105804
540.985	0.483063	5.34058e-06
541.485	0.483459	7.96509e-06
541.965	-0.000482178	0.00369598
542.425	0.484161	-2.96021e-06
542.925	0.483368	7.08008e-06
543.425	0.482849	0.000617981
543.865	0.483765	1.40381e-06
544.365	0.482697	9.3689e-06
544.865	0.483093	6.13098e-05
545.325	-0.699402	-0.0135803
545.805	0.484436	-3.50952e-06
546.305	0.482849	2.93274e-05
546.765	-0.699188	-0.00684143
547.245	0.482697	6.86646e-06
547.745	0.482971	1.62659e-05
548.225	-8.54492e-05	0.0106232
548.685	0.484314	-4.02832e-06
549.185	0.483826	7.50732e-06
549.665	0.000848389	0.00375122
550.125	0.483215	3.32642e-06
550.625	0.482819	1.18408e-05
551.125	0.482819	0.000643005
551.565	0.482605	5.98145e-06
552.065	0.483521	2.68555e-06
552.565	0.484283	5.60303e-05
553.025	-0.698242	-0.0136688
553.505	0.482697	8.48389e-06
554.005	0.482941	3.02124e-05
554.465	-0.699677	-0.00689697
554.945	0.482697	7.8125e-06
555.445	0.483582	1.09863e-05
555.925	0.000634766	0.0106354
556.385	0.482849	6.46973e-06
556.885	0.484253	3.479e-06
557.365	-1.2207e-05	0.003828125
557.825	0.482727	6.80542e-06
558.325	0.484344	-2.13623e-07
558.825	0.483185	0.000667419
559.265	0.482574	6.28662e-06
559.765	0.482727	8.5144e-06
560.265	0.482849	6.67114e-05
560.725	-0.699554	-0.0137512
561.205	0.483734	3.11279e-06
561.705	0.484009	2.06909e-05
562.165	-0.699951	-0.00696198
562.645	0.483185	4.3335e-06
563.145	0.483704	1.15967e-05
563.625	-0.0009765625	0.0106567
564.085	0.483459	1.5564e-06
564.585	0.483398	8.69751e-06
565.065	-0.000683594	0.00388275
565.525	0.484497	-3.87573e-06
566.025	0.483643	1.52588e-06
566.525	0.483429	0.000696106
566.965	0.483246	3.20435e-06
567.465	0.483154	6.80542e-06
567.965	0.48407	5.79834e-05
568.425	-0.698639	-0.0138214
568.905	0.483582	1.46484e-06
569.405	0.483124	2.55737e-05
569.865	-0.698975	-0.0070282
570.345	0.483124	6.01196e-06
570.845	0.484161	7.87354e-06
571.325	-0.000997925	0.0106781
571.785	0.484192	-2.34985e-06
572.285	0.482788	1.28174e-05
572.765	-0.000509644	0.00394867
573.225	0.482788	3.93677e-06
573.725	0.483826	4.82178e-06
574.225	0.483978	0.000716858
574.665	0.482941	4.63867e-06
575.165	0.48407	6.40869e-07
575.665	0.484344	5.84717e-05
576.125	-0.698456	-0.0139191
576.605	0.483429	2.68555e-06
577.105	0.483002	2.91138e-05
577.565	-0.699432	-0.00708466
578.045	0.483246	3.38745e-06
578.545	0.483093	1.61133e-05
579.025	-0.000839233	0.0106964
579.485	0.48291	7.14111e-06
579.985	0.483002	1.3031e-05
580.465	-0.000189209	0.00400665
580.925	0.483337	3.60107e-06
581.425	0.483185	6.71387e-06
581.925	0.483459	0.000756226
582.365	0.482788	7.04956e-06
582.865	0.484131	2.44141e-07
583.365	0.48349	6.5094e-05
583.825	-0.699432	-0.0139893
584.305	0.484039	-3.66211e-07
584.805	0.48407	2.1637e-05
585.265	-0.699677	-0.00714264
585.745	0.484253	-3.02124e-06
586.245	0.483459	1.70593e-05
586.725	0.000408936	0.0107178
587.185	0.482941	5.34058e-06
587.685	0.48291	1.31836e-05
588.165	0.000457764	0.00405609
588.625	0.483795	-1.25122e-06
589.125	0.483154	8.45337e-06
589.625	0.483002	0.000792542
590.065	0.482758	7.17163e-06
590.565	0.48407	-8.54492e-07
591.065	0.484009	6.10352e-05
591.525	-0.699371	-0.0140686
592.005	0.483521	3.50952e-06
592.505	0.482788	3.06396e-05
592.965	-0.69989	-0.00720062
593.445	0.484192	-2.80762e-06
593.945	0.484253	8.48389e-06
594.425	-0.000701904	0.0107513
594.885	0.482971	5.31006e-06
595.385	0.484192	3.78418e-06
595.865	2.13623e-05	0.00411194
596.325	0.483398	1.2207e-07
596.825	0.484436	1.37329e-06
597.325	0.483093	0.000828857
597.765	0.48288	4.97437e-06
598.265	0.483795	4.54712e-06
598.765	0.484253	6.06079e-05
599.225	-0.697845	-0.0141541
599.705	0.483948	-9.76562e-07
600.205	0.483154	2.65503e-05
600.665	-0.699768	-0.00726044
601.145	0.484283	-3.05176e-06
601.645	0.483032	1.61438e-05
602.125	0.000106812	0.0107513
602.585	0.48288	6.073e-06
603.085	0.484344	6.86646e-06
603.565	-0.000167847	0.0041687
604.025	0.482971	6.62231e-06
604.525	0.483612	4.94385e-06
605.025	0.483521	0.000868835
605.465	0.48288	5.21851e-06
605.965	0.483215	6.01196e-06
606.465	0.483826	6.45752e-05
606.925	-0.699371	-0.0142365
607.405	0.483032	5.5542e-06
607.905	0.482605	3.04871e-05
608.365	-0.699615	-0.00732361
608.845	0.482971	7.23267e-06
609.345	0.482971	1.74255e-05
609.825	0.000534058	0.0107758
610.285	0.484192	-1.98364e-06
610.785	0.484039	4.88281e-06
611.265	-7.32422e-05	0.00422607
611.725	0.484314	-3.93677e-06
612.225	0.48407	2.68555e-06
612.725	0.483063	0.000911865
613.165	0.484253	-5.0354e-06
613.665	0.483948	1.19019e-06
614.165	0.48407	6.61316e-05
614.625	-0.697968	-0.0143036
615.105	0.484192	-1.09863e-06
615.605	0.483643	2.55432e-05
616.065	-0.698425	-0.00738586
616.545	0.483002	5.34058e-06
617.045	0.483246	1.61133e-05
617.525	-0.000906372	0.010791
617.985	0.484283	-4.57764e-06
618.485	0.483337	1.23901e-05
618.965	-0.000228882	0.00427124
619.425	0.484222	-2.16675e-06
619.925	0.482819	9.33838e-06
620.425	0.483765	0.000953979
620.865	0.483582	6.40869e-07
621.365	0.4841	-3.05176e-07
621.865	0.483704	6.82373e-05
622.325	-0.699524	-0.0143738
622.805	0.482971	8.69751e-06
623.305	0.484314	2.01721e-05
623.765	-0.699341	-0.00743561
624.245	0.482635	8.63647e-06
624.745	0.484283	9.42993e-06
625.225	-0.000350952	0.0108093
625.685	0.482819	6.7749e-06
626.185	0.484131	4.45557e-06
626.665	-0.000479126	0.00431854
627.125	0.483215	2.0752e-06
627.625	0.483765	6.16455e-06
628.125	0.483185	0.00100739
628.565	0.483337	4.21143e-06
629.065	0.483978	7.32422e-07
629.565	0.482635	7.7179e-05
630.025	-0.697815	-0.0144623
630.505	0.482697	9.52148e-06
631.005	0.484192	2.23694e-05
631.465	-0.699341	-0.00749207
631.945	0.484253	-7.62939e-07
632.445	0.483459	1.46179e-05
632.925	-0.000592041	0.0108124
633.385	0.482788	6.65283e-06
633.885	0.484314	4.73022e-06
634.365	0.00032959	0.00437073
634.825	0.482666	6.86646e-06
635.325	0.484497	7.01904e-07
635.825	0.482819	0.00107025
636.265	0.484375	-5.5542e-06
636.765	0.48288	7.50732e-06
637.265	0.483307	7.10144e-05
637.725	-0.699127	-0.0145294
638.205	0.482849	7.35474e-06
638.705	0.484528	2.05994e-05
639.165	-0.698547	-0.00755005
639.645	0.482971	6.46973e-06
640.145	0.483551	1.51062e-05
640.625	0.000350952	0.0108368
641.085	0.483704	1.5564e-06
641.585	0.483032	1.18713e-05
642.065	0.000296021	0.00441437
642.525	0.484222	-3.2959e-06
643.025	0.48288	1.14136e-05
643.525	0.482941	0.00113373
643.965	0.483276	3.69263e-06
644.465	0.48407	6.40869e-07
644.965	0.483154	7.41882e-05
645.425	-0.697845	-0.0146027
645.905	0.483398	5.95093e-06
646.405	0.483368	2.76489e-05
646.865	-0.698608	-0.00761719
647.345	0.484436	-3.57056e-06
647.845	0.483124	1.76392e-05
648.325	0.000491333	0.0108307
648.785	0.484497	-4.27246e-06
649.285	0.482635	1.52893e-05
649.765	0.00112915	0.00445374
650.225	0.484436	-4.91333e-06
650.725	0.482941	1.08643e-05
651.225	0.483856	0.00118988
651.665	0.484467	-4.73022e-06
652.165	0.482941	8.05664e-06
652.665	0.484039	7.15332e-05
653.125	-0.698853	-0.014679
653.605	0.482635	1.01013e-05
654.105	0.4841	2.40784e-05
654.565	-0.698334	-0.00766602
655.045	0.482544	1.01929e-05
655.545	0.483734	1.00098e-05
656.025	0.000518799	0.0108551
656.485	0.482666	1.01013e-05
656.985	0.483643	6.13403e-06
657.465	0	0.00449738
657.925	0.482849	6.22559e-06
658.425	0.484467	-1.83105e-07
658.925	0.48288	0.00127655
659.365	0.483459	4.48608e-06
659.865	0.483093	3.78418e-06
660.365	0.484558	7.04651e-05
660.825	-0.69812	-0.0147339
661.305	0.484253	-2.74658e-07
661.805	0.482635	3.20435e-05
662.265	-0.699554	-0.007724
662.745	0.482727	8.5144e-06
663.245	0.484344	9.97925e-06
663.725	0.000613403	0.0108643
664.185	0.484344	-3.75366e-06
664.685	0.482635	1.54724e-05
665.165	0.000750732	0.00453613
665.625	0.484222	-2.99072e-06
666.125	0.483582	7.2937e-06
666.625	0.483215	0.00136017
667.065	0.483582	2.83813e-06
667.565	0.482574	1.08643e-05
668.065	0.484589	7.05872e-05
668.525	-0.698547	-0.0148132
669.005	0.484344	-2.86865e-06
669.505	0.483521	3.05786e-05
669.965	-0.698669	-0.00778503
670.445	0.484406	-4.21143e-06
670.945	0.482758	2.10876e-05
671.425	0.000808716	0.0108734
671.885	0.484619	-4.05884e-06
672.385	0.482513	1.73035e-05
672.865	0.000326538	0.00457642
673.325	0.484467	-3.41797e-06
673.825	0.482605	1.19934e-05
674.325	0.484131	0.00144897
674.765	0.483032	5.40161e-06
675.265	0.483856	2.10571e-06
675.765	0.483643	7.46155e-05
676.225	-0.69809	-0.0148712
676.705	0.484253	-1.40381e-06
677.205	0.48288	3.28979e-05
677.665	-0.6987	-0.00782776
678.145	0.484436	-3.35693e-06
678.645	0.482574	2.18506e-05
679.125	0.000469971	0.0108734
679.585	0.484528	-4.3335e-06
680.085	0.483826	1.02844e-05
680.565	0.00105591	0.00461487
681.025	0.484192	-3.08228e-06
681.525	0.482788	1.15662e-05
682.025	0.484589	0.00157166
682.465	0.482819	7.04956e-06
682.965	0.484161	8.23975e-07
683.465	0.483215	7.93762e-05
683.925	-0.699493	-0.0149231
684.405	0.483002	9.39941e-06
684.905	0.482544	3.6438e-05
685.365	-0.69809	-0.00789185
685.845	0.482788	7.69043e-06
686.345	0.484375	9.30786e-06
686.825	-0.000253296	0.0108978
687.285	0.483429	2.65503e-06
687.785	0.483276	1.11389e-05
688.265	-0.000158691	0.0046582
688.725	0.484253	-3.72314e-06
689.225	0.482666	1.35193e-05
689.725	0.484375	0.00168335
690.165	0.484314	-5.7373e-06
690.665	0.48291	9.30786e-06
691.165	0.484039	7.52258e-05
691.625	-0.697754	-0.0149933
692.105	0.484161	2.86865e-06
692.605	0.483337	3.34473e-05
693.065	-0.698059	-0.00792847
693.545	0.482635	9.24683e-06
694.045	0.484375	1.00098e-05
694.525	0.000134277	0.0108917
694.985	0.484161	-1.64795e-06
695.485	0.482758	1.54419e-05
695.965	-0.000546265	0.00469971
696.425	0.483459	1.49536e-06
696.925	0.484222	2.71606e-06
697.425	0.482941	0.00184998
697.865	0.4841	-2.83813e-06
698.365	0.482666	1.14441e-05
698.865	0.483948	7.64771e-05
699.325	-0.699554	-0.0150452
699.805	0.482758	5.58472e-06
700.305	0.483459	2.65198e-05
700.765	-0.698273	-0.00798645
701.245	0.483246	4.79126e-06
701.745	0.483795	1.54114e-05
702.225	-0.000326538	0.0109131
702.685	0.484436	-3.8147e-06
703.185	0.482819	1.53809e-05
703.665	-0.000344849	0.00472992
704.125	0.483856	3.35693e-07
704.625	0.482605	1.16577e-05
705.125	0.483826	0.00202637
705.565	0.484375	-3.2959e-06
706.065	0.483856	1.89209e-06
706.565	0.482941	8.58459e-05
707.025	-0.698273	-0.0151245
707.505	0.483917	3.38745e-06
708.005	0.482758	3.78723e-05
708.465	-0.698212	-0.00803528
708.945	0.484314	-1.34277e-06
709.445	0.482605	2.17285e-05
709.925	-0.000494385	0.0109009
710.385	0.482605	7.93457e-06
710.885	0.484589	2.53296e-06
711.365	-0.000726318	0.00476929
711.825	0.483398	3.05176e-06
712.325	0.483734	6.01196e-06
712.825	0.482941	0.00226318
713.265	0.484467	-3.75366e-06
713.765	0.483704	3.72314e-06
714.265	0.482697	8.8623e-05
714.725	-0.697845	-0.0151855
715.205	0.484467	-3.35693e-06
715.705	0.482697	3.66821e-05
716.165	-0.699402	-0.00807495
716.645	0.482819	9.12476e-06
717.145	0.484375	1.02844e-05
717.625	-0.000280762	0.0109253
718.085	0.484619	-2.80762e-06
718.585	0.483856	1.0437e-05
719.065	-6.10352e-05	0.00479706
719.525	0.484406	-2.7771e-06
720.025	0.482727	1.16577e-05
720.525	0.484741	0.00249725
720.965	0.483368	1.80054e-06
721.465	0.484039	1.0376e-06
721.965	0.483398	8.29468e-05
722.425	-0.698029	-0.0152435
722.905	0.484406	-1.46484e-06
723.405	0.482666	3.51257e-05
723.865	-0.699951	-0.00813293
724.345	0.483826	2.80762e-06
724.845	0.484039	1.37329e-05
725.325	-0.000256348	0.01091
725.785	0.484589	-5.7373e-06
726.285	0.483826	9.97925e-06
726.765	0.0003479	0.00483368
727.225	0.482666	7.26318e-06
727.725	0.484467	3.35693e-06
728.225	0.483337	0.00289032
728.665	0.482544	7.20215e-06
729.165	0.483307	4.48608e-06
729.665	0.484528	7.77283e-05
730.125	-0.698608	-0.0153015
730.605	0.482788	8.78906e-06
731.105	0.484039	2.76489e-05
731.565	-0.699127	-0.00818787
732.045	0.484039	-1.7395e-06
732.545	0.482819	2.2644e-05
733.025	-0.000393677	0.0109283
733.485	0.482666	8.97217e-06
733.985	0.484406	3.50952e-06
734.465	0.000601196	0.00485809
734.925	0.483765	-3.05176e-08
735.425	0.483093	8.88062e-06
735.925	0.483765	0.00322144
736.365	0.482513	6.53076e-06
736.865	0.482819	7.26318e-06
737.365	0.4841	8.00781e-05
737.825	-0.69931	-0.0153717
738.305	0.483093	6.53076e-06
738.805	0.483948	2.98767e-05
739.265	-0.699615	-0.00823975
739.745	0.482574	1.08948e-05
740.245	0.482483	2.21252e-05
740.725	-0.000830078	0.0109222
741.185	0.484344	-2.56348e-06
741.685	0.482605	1.59302e-05
742.165	-0.00072937	0.00490021
742.625	0.483795	1.00708e-06
743.125	0.482819	1.17493e-05
743.625	0.483307	0.00361877
744.065	0.483002	4.30298e-06
744.565	0.484406	-9.15527e-08
745.065	0.482849	9.22241e-05
745.525	-0.699524	-0.0154205
746.005	0.484436	-1.92261e-06
746.505	0.484344	2.65503e-05
746.965	-0.699921	-0.00829468
747.445	0.484253	-2.89917e-06
747.945	0.482788	2.19421e-05
748.425	-0.000442505	0.0109192
748.885	0.484009	-1.15967e-06
749.385	0.484436	5.21851e-06
749.865	-0.000738525	0.00493195
750.325	0.482483	7.47681e-06
750.825	0.484528	9.46045e-07
751.325	0.483124	0.00402985
751.765	0.482666	8.42285e-06
752.265	0.483826	2.28882e-06
752.765	0.484467	8.28857e-05
753.225	-0.699249	-0.0154877
753.705	0.482635	1.08948e-05
754.205	0.484467	2.58484e-05
754.665	-0.699158	-0.00835876
755.145	0.483551	1.61743e-06
755.645	0.484406	1.22681e-05
756.125	-0.000476074	0.0109283
756.585	0.482666	8.39233e-06
757.085	0.483765	6.2561e-06
757.565	-0.000650024	0.00496216
758.025	0.48407	-9.15527e-07
758.525	0.482605	1.26038e-05
759.025	0.48291	0.00437408
759.465	0.483612	4.57764e-07
759.965	0.484161	-1.2207e-07
760.465	0.484467	8.38928e-05
760.925	-0.698456	-0.0155487
761.405	0.484283	1.83105e-07
761.905	0.484283	2.81982e-05
762.365	-0.699524	-0.00839233
762.845	0.483032	6.31714e-06
763.345	0.484436	1.27869e-05
763.825	-0.000726318	0.0109314
764.285	0.483582	3.08228e-06
764.785	0.483917	9.79614e-06
765.265	-0.00055542	0.0049881
765.725	0.484375	-2.80762e-06
766.225	0.48288	1.23291e-05
766.725	0.483002	0.00469238
767.165	0.482483	9.33838e-06
767.665	0.483032	6.68335e-06
768.165	0.483307	9.21631e-05
768.625	-0.698395	-0.0155853
769.105	0.484375	-1.5564e-06
769.605	0.483093	3.74451e-05
770.065	-0.69812	-0.00844727
770.545	0.484253	1.2207e-07
771.045	0.484436	1.37939e-05
771.525	-0.000567627	0.0109497
771.985	0.483948	2.0752e-06
772.485	0.482819	1.51672e-05
772.965	0.00103455	0.00500885
773.425	0.484375	-3.90625e-06
773.925	0.48407	2.01416e-06
774.425	0.484406	0.00497803
774.865	0.484253	-3.05176e-06
775.365	0.483032	9.67407e-06
775.865	0.483612	9.06982e-05
776.325	-0.699341	-0.0156464
776.805	0.483673	1.19019e-06
777.305	0.483704	2.85339e-05
777.765	-0.698364	-0.00849915
778.245	0.483337	3.8147e-06
778.745	0.484344	1.09558e-05
779.225	0.000726318	0.0109436
779.685	0.483948	-2.80762e-06
780.185	0.484344	5.27954e-06
780.665	-0.000244141	0.00504059
781.125	0.484375	-3.63159e-06
781.625	0.482666	1.3855e-05
782.125	0.484009	0.00525208
782.565	0.482483	6.86646e-06
783.065	0.48291	8.54492e-06
783.565	0.483032	0.00010144
784.025	-0.697723	-0.0157043
784.505	0.48288	9.06372e-06
785.005	0.484009	2.95105e-05
785.465	-0.699951	-0.00853577
785.945	0.482849	6.83594e-06
786.445	0.482971	1.9165e-05
786.925	-0.000906372	0.0109528
787.385	0.484283	-3.11279e-06
787.885	0.484009	7.8125e-06
788.365	0.0009765625	0.00505524
788.825	0.484558	-3.63159e-06
789.325	0.483704	1.00098e-05
789.825	0.48288	0.00548523
790.265	0.482635	9.39941e-06
790.765	0.482697	1.19629e-05
791.265	0.483643	9.2865e-05
791.725	-0.698822	-0.0157593
792.205	0.483612	5.37109e-06
792.705	0.482635	3.84521e-05
793.165	-0.698059	-0.00858459
793.645	0.482666	1.15356e-05
794.145	0.482788	2.32239e-05
794.625	-0.000509644	0.0109344
795.085	0.483307	2.41089e-06
795.585	0.484344	6.95801e-06
796.065	-0.000753784	0.00509277
796.525	0.483978	-2.13623e-06
797.025	0.484406	2.19727e-06
797.525	0.484467	0.00568604
797.965	0.482544	6.56128e-06
798.465	0.483765	9.76562e-07
798.965	0.483337	9.58862e-05
799.425	-0.699646	-0.0158051
799.905	0.482849	8.75854e-06
800.405	0.483276	3.84827e-05
800.865	-0.699646	-0.00862427
801.345	0.482544	1.0498e-05
801.845	0.483002	1.80359e-05
802.325	-0.00038147	0.0109283
802.785	0.482574	9.06372e-06
803.285	0.483124	1.48621e-05
803.765	-0.000305176	0.00511871
804.225	0.483154	2.50244e-06
804.725	0.482483	1.34583e-05
805.225	0.484161	0.0058902
805.665	0.484406	-2.22778e-06
806.165	0.484375	9.76562e-07
806.665	0.484406	9.11865e-05
807.125	-0.699432	-0.01586
807.605	0.483337	2.04468e-06
808.105	0.483307	3.63464e-05
808.565	-0.698181	-0.00869141
809.045	0.482697	9.79614e-06
809.545	0.482849	2.19727e-05
810.025	-0.000366211	0.0109344
810.485	0.483887	6.40869e-07
810.985	0.484436	6.83594e-06
811.465	-0.000674438	0.0051413
811.925	0.484467	-2.96021e-06
812.425	0.483337	1.00403e-05
812.925	0.482635	0.00608551
813.365	0.484161	-2.0752e-06
813.865	0.48291	1.13525e-05
814.365	0.484161	9.22241e-05
814.825	-0.699127	-0.015918
815.305	0.482574	1.05896e-05
815.805	0.484161	2.8717e-05
816.265	-0.698181	-0.00873413
816.745	0.484406	-2.0752e-06
817.245	0.484131	1.41296e-05
817.725	-0.000244141	0.0109375
818.185	0.482788	6.5918e-06
818.685	0.482574	1.68457e-05
819.165	0.000759888	0.00515289
819.625	0.482605	8.17871e-06
820.125	0.484344	4.5166e-06
820.625	0.484436	0.00624268
821.065	0.484467	-3.14331e-06
821.565	0.484406	3.9978e-06
822.065	0.484161	9.33228e-05
822.525	-0.697754	-0.015976
823.005	0.483307	5.95093e-06
823.505	0.482819	4.02832e-05
823.965	-0.699097	-0.00877075
824.445	0.482849	6.7749e-06
824.945	0.484344	1.27563e-05
825.425	-0.0010437	0.0109497
825.885	0.484436	-2.89917e-06
826.385	0.482788	1.70898e-05
826.865	-0.000256348	0.00518158
827.325	0.483978	-9.46045e-07
827.825	0.483551	7.32422e-06
828.325	0.484192	0.00639069
828.765	0.483215	5.09644e-06
829.265	0.483887	3.20435e-06
829.765	0.484467	9.57336e-05
830.225	-0.699097	-0.0160095
830.705	0.482666	1.05591e-05
831.205	0.484436	2.948e-05
831.665	-0.698456	-0.00881653
832.145	0.482574	1.11084e-05
832.645	0.484009	1.70898e-05
833.125	0.000518799	0.0109436
833.585	0.483429	2.74658e-06
834.085	0.482849	1.53198e-05
834.565	-0.000823975	0.00520569
835.025	0.484467	-4.5166e-06
835.525	0.482544	1.52588e-05
836.025	0.482697	0.00654175
836.465	0.484161	-3.26538e-06
836.965	0.482849	1.17493e-05
837.465	0.483795	0.000101837
837.925	-0.697723	-0.0160675
838.405	0.482635	1.171875E-05
838.905	0.4841	3.31726e-05
839.365	-0.69809	-0.00886536
839.845	0.482849	9.64355e-06
840.345	0.48291	2.24915e-05
840.825	0.000106812	0.0109558
841.285	0.482758	9.18579e-06
841.785	0.484314	6.68335e-06
842.265	-0.000387573	0.00523224
842.725	0.484161	1.61743e-06
843.225	0.484406	7.01904e-07
843.725	0.483154	0.00667358
844.165	0.484436	-3.23486e-06
844.665	0.483032	1.05896e-05
845.165	0.482697	0.000109985
845.625	-0.697845	-0.0161133
846.105	0.4841	-1.12915e-06
846.605	0.482727	4.1687e-05
847.065	-0.699768	-0.00889893
847.545	0.483276	5.21851e-06
848.045	0.483521	1.94397e-05
848.525	0.000466919	0.0109406
848.985	0.4841	8.8501e-07
849.485	0.484161	8.14819e-06
849.965	-0.000704956	0.00525055
850.425	0.482697	9.21631e-06
850.925	0.482483	1.52588e-05
851.425	0.482819	0.00679596
851.865	0.484039	9.15527e-08
852.365	0.484406	9.15527e-08
852.865	0.484375	9.87549e-05
853.325	-0.697906	-0.0161652
853.805	0.484558	-5.18799e-07
854.305	0.482574	4.22668e-05
854.765	-0.698456	-0.00894165
855.245	0.482666	9.06372e-06
855.745	0.482697	2.52075e-05
856.225	0.000537109	0.0109375
856.685	0.484344	-1.67847e-06
857.185	0.484344	7.8125e-06
857.665	0.000445557	0.00526123
858.125	0.484406	-3.96729e-06
858.625	0.48288	1.25732e-05
859.125	0.483215	0.00694275
859.565	0.48291	6.13403e-06
860.065	0.482971	1.08643e-05
860.565	0.482727	0.000110626
861.025	-0.699463	-0.0161987
861.505	0.483368	6.68335e-06
862.005	0.484131	3.39355e-05
862.465	-0.69931	-0.00899658
862.945	0.483429	3.78418e-06
863.445	0.483093	2.20337e-05
863.925	-0.000228882	0.0109344
864.385	0.483459	4.15039e-06
864.885	0.484222	6.13403e-06
865.365	-0.000482178	0.0052829
865.825	0.484558	-3.96729e-06
866.325	0.483612	1.36414e-05
866.825	0.483551	0.00706604
867.265	0.482635	8.8501e-06
867.765	0.484039	4.79126e-06
868.265	0.484436	0.000101929
868.725	-0.698059	-0.0162567
869.205	0.484039	1.28174e-06
869.705	0.483643	3.49731e-05
870.165	-0.698151	-0.00903931
870.645	0.483948	3.05176e-07
871.145	0.484314	1.62354e-05
871.625	7.01904e-05	0.0109497
872.085	0.484406	-3.26538e-06
872.585	0.484406	6.80542e-06
873.065	-0.000390625	0.00530365
873.525	0.484467	-1.67847e-06
874.025	0.484436	3.14331e-06
874.525	0.484344	0.00718353
874.965	0.48288	6.74438e-06
875.465	0.483307	8.36182e-06
875.965	0.484131	0.000107544
876.425	-0.697845	-0.0163055
876.905	0.482941	8.36182e-06
877.405	0.482788	4.3335e-05
877.865	-0.699921	-0.00907288
878.345	0.484222	-3.05176e-07
878.845	0.484406	1.19629e-05
879.325	0.00050354	0.0109344
879.785	0.483459	5.67627e-06
880.285	0.484039	9.06372e-06
880.765	-0.000305176	0.00533142
881.225	0.482605	8.3313e-06
881.725	0.482635	1.35498e-05
882.225	0.48349	0.00729797
882.665	0.483124	5.12695e-06
883.165	0.483307	7.62939e-06
883.385	0.482635	6.28662e-06