File: Edgar/20240531/20240531/electrodeposition_pulsed_potential_20240531_A/pulses_7000_to_8000.txt
Time (s)	WE(1).Potential (V)	WE(1).Current (A)
5172.39	-0.698151	-0.0247711
5172.87	0.482727	4.12598e-05
5173.37	0.483276	0.00777283
5173.83	-0.699066	-0.0194153
5174.31	0.483521	2.90833e-05
5174.81	0.482788	0.0013147
5175.29	0.000430298	0.00526062
5175.75	0.482849	2.78931e-05
5176.25	0.483765	0.000319427
5176.73	-0.000531006	0.00368927
5177.19	0.483093	2.35291e-05
5177.69	0.484131	0.000122711
5178.19	0.483459	0.0153625
5178.63	0.484192	1.22681e-05
5179.13	0.482788	7.00378e-05
5179.63	0.482666	0.0114227
5180.09	-0.698242	-0.0248383
5180.57	0.484406	3.59802e-05
5181.07	0.482361	0.00787964
5181.53	-0.697754	-0.0194122
5182.01	0.483704	2.82593e-05
5182.51	0.482788	0.00137817
5182.99	0.000445557	0.00527405
5183.45	0.483459	2.38342e-05
5183.95	0.482758	0.000330048
5184.43	-0.000598145	0.00370514
5184.89	0.48291	2.45361e-05
5185.39	0.483154	0.000126556
5185.89	0.482086	0.015387
5186.33	0.484283	1.15051e-05
5186.83	0.484131	6.11877e-05
5187.33	0.483765	0.0114166
5187.79	-0.698547	-0.0248566
5188.27	0.483185	4.37317e-05
5188.77	0.482727	0.00790405
5189.23	-0.698303	-0.0194153
5189.71	0.483093	3.18909e-05
5190.21	0.482971	0.0014032
5190.69	1.83105e-05	0.00527863
5191.15	0.482849	2.76184e-05
5191.65	0.483154	0.000330383
5192.13	-1.83105e-05	0.00370239
5192.59	0.483459	2.04163e-05
5193.09	0.4841	0.000123657
5193.59	0.4823	0.015387
5194.03	0.484131	1.32141e-05
5194.53	0.483826	6.28662e-05
5195.03	0.48288	0.0114288
5195.49	-0.697571	-0.0248566
5195.97	0.482788	4.61731e-05
5196.47	0.483215	0.00791016
5196.93	-0.69751	-0.0194275
5197.41	0.48349	2.98767e-05
5197.91	0.482666	0.00142181
5198.39	-0.000405884	0.00527954
5198.85	0.484375	1.9043e-05
5199.35	0.483276	0.000332367
5199.83	-0.000311279	0.00370117
5200.29	0.483978	1.70593e-05
5200.79	0.48291	0.0001315
5201.29	0.482635	0.0153809
5201.73	0.482819	2.17896e-05
5202.23	0.484039	6.27441e-05
5202.73	0.483612	0.011438
5203.19	-0.697113	-0.0248718
5203.67	0.483704	3.95508e-05
5204.17	0.482666	0.00792847
5204.63	-0.697418	-0.0194397
5205.11	0.482971	3.32947e-05
5205.61	0.483246	0.00142853
5206.09	0.000506592	0.00527252
5206.55	0.483734	2.20337e-05
5207.05	0.483276	0.000335114
5207.53	0.000247192	0.00369873
5207.99	0.484314	1.41907e-05
5208.49	0.484375	0.000123108
5208.99	0.482056	0.01539
5209.43	0.483368	1.98669e-05
5209.93	0.484161	6.17981e-05
5210.43	0.482391	0.011441
5210.89	-0.697784	-0.0248901
5211.37	0.482819	4.70886e-05
5211.87	0.483978	0.00792847
5212.33	-0.69751	-0.0194519
5212.81	0.483704	2.84424e-05
5213.31	0.483948	0.00144073
5213.79	0.000814819	0.00526276
5214.25	0.483795	2.03857e-05
5214.75	0.482941	0.000337708
5215.23	-0.000631714	0.00370178
5215.69	0.482849	2.49634e-05
5216.19	0.484009	0.000127045
5216.69	0.482178	0.0153961
5217.13	0.482727	2.3468e-05
5217.63	0.482727	7.1991e-05
5218.13	0.483826	0.011441
5218.59	-0.6987	-0.0248779
5219.07	0.484344	3.66821e-05
5219.57	0.482483	0.00794373
5220.03	-0.697571	-0.0194519
5220.51	0.48291	3.53699e-05
5221.01	0.483795	0.00145203
5221.49	-0.000531006	0.00526733
5221.95	0.483887	1.99585e-05
5222.45	0.48288	0.000340424
5222.93	0.000149536	0.00369141
5223.39	0.482727	2.44446e-05
5223.89	0.484039	0.000128967
5224.39	0.483215	0.0153778
5224.83	0.484436	1.14441e-05
5225.33	0.483551	6.51245e-05
5225.83	0.482269	0.0114502
5226.29	-0.698547	-0.0248901
5226.77	0.48349	4.22363e-05
5227.27	0.483887	0.00794067
5227.73	-0.69754	-0.0194489
5228.21	0.483398	3.19824e-05
5228.71	0.483978	0.0014624
5229.19	-0.000622559	0.00525848
5229.65	0.482727	2.79236e-05
5230.15	0.482758	0.000343231
5230.63	-0.000509644	0.00369476
5231.09	0.482849	2.37732e-05
5231.59	0.483429	0.000130005
5232.09	0.483551	0.015387
5232.53	0.48407	1.3855e-05
5233.03	0.484314	6.20728e-05
5233.53	0.482208	0.0114502
5233.99	-0.698059	-0.0248901
5234.47	0.482788	4.71802e-05
5234.97	0.483856	0.00795288
5235.43	-0.69873	-0.0194489
5235.91	0.483276	3.07007e-05
5236.41	0.483185	0.00147888
5236.89	0.000466919	0.00524902
5237.35	0.484344	1.73035e-05
5237.85	0.483276	0.000341827
5238.33	0.000213623	0.00368439
5238.79	0.483093	2.17285e-05
5239.29	0.483643	0.000131836
5239.79	0.483582	0.0153931
5240.23	0.483307	1.9104e-05
5240.73	0.483704	6.61011e-05
5241.23	0.482483	0.0114655
5241.69	-0.697754	-0.0248932
5242.17	0.483673	4.11072e-05
5242.67	0.483612	0.00795593
5243.13	-0.699036	-0.0194702
5243.61	0.483276	3.15857e-05
5244.11	0.482605	0.00150085
5244.59	-0.000491333	0.00524628
5245.05	0.483612	2.18506e-05
5245.55	0.48349	0.000340363
5246.03	-0.000613403	0.00368683
5246.49	0.483246	1.9928e-05
5246.99	0.483582	0.000130615
5247.49	0.482513	0.0153931
5247.93	0.482788	2.19116e-05
5248.43	0.484192	6.29272e-05
5248.93	0.483612	0.0114502
5249.39	-0.698059	-0.0249054
5249.87	0.482758	4.79431e-05
5250.37	0.483551	0.00797424
5250.83	-0.697968	-0.0194763
5251.31	0.484161	2.53296e-05
5251.81	0.48291	0.00150909
5252.29	0.000842285	0.00523773
5252.75	0.482819	3.09448e-05
5253.25	0.484375	0.000339111
5253.73	0.000509644	0.00368011
5254.19	0.483917	1.62048e-05
5254.69	0.484314	0.000127289
5255.19	0.482788	0.0154083
5255.63	0.482758	1.94092e-05
5256.13	0.484161	6.34766e-05
5256.63	0.4823	0.0114594
5257.09	-0.698639	-0.0249023
5257.57	0.483887	4.19006e-05
5258.07	0.4841	0.00798035
5258.53	-0.697754	-0.0194946
5259.01	0.482727	3.60413e-05
5259.51	0.484375	0.00151031
5259.99	0.000952148	0.00522949
5260.45	0.483948	2.08435e-05
5260.95	0.484528	0.000339935
5261.43	-0.000708008	0.00368103
5261.89	0.484375	1.45569e-05
5262.39	0.482971	0.000137939
5262.89	0.48291	0.015387
5263.33	0.483154	1.98975e-05
5263.83	0.484406	6.35986e-05
5264.33	0.482239	0.0114746
5264.79	-0.698822	-0.0249176
5265.27	0.484314	3.70789e-05
5265.77	0.482574	0.00799561
5266.23	-0.699188	-0.0194885
5266.71	0.482941	3.3783e-05
5267.21	0.483307	0.00152832
5267.69	0.000732422	0.00522705
5268.15	0.483978	1.85547e-05
5268.65	0.484253	0.000342804
5269.13	-0.000213623	0.00367462
5269.59	0.483765	1.62659e-05
5270.09	0.484161	0.000129822
5270.59	0.483398	0.015387
5271.03	0.484375	1.07727e-05
5271.53	0.483368	7.01294e-05
5272.03	0.483276	0.0114594
5272.49	-0.697113	-0.0249176
5272.97	0.483124	4.56848e-05
5273.47	0.482391	0.00799561
5273.93	-0.697479	-0.0195007
5274.41	0.483063	3.39355e-05
5274.91	0.483765	0.00153137
5275.39	0.000219727	0.00522125
5275.85	0.484039	2.06299e-05
5276.35	0.483521	0.000349426
5276.83	2.74658e-05	0.00366669
5277.29	0.484283	1.48926e-05
5277.79	0.48407	0.00012973
5278.29	0.482544	0.015387
5278.73	0.484314	1.2085e-05
5279.23	0.48407	6.51855e-05
5279.73	0.483673	0.0114655
5280.19	-0.69754	-0.0249146
5280.67	0.484467	3.58276e-05
5281.17	0.483734	0.0079895
5281.63	-0.699158	-0.0195007
5282.11	0.484314	2.4353e-05
5282.61	0.483917	0.00154114
5283.09	-0.000683594	0.00522522
5283.55	0.484222	1.93481e-05
5284.05	0.483337	0.000353851
5284.53	-0.000582886	0.00367096
5284.99	0.484497	1.59607e-05
5285.49	0.483032	0.000138336
5285.99	0.482147	0.0153992
5286.43	0.483032	2.28882e-05
5286.93	0.482849	7.44629e-05
5287.43	0.482635	0.0114838
5287.89	-0.698425	-0.0249329
5288.37	0.483368	4.26941e-05
5288.87	0.483185	0.00800476
5289.33	-0.699005	-0.0195129
5289.81	0.483612	3.10974e-05
5290.31	0.483704	0.00155945
5290.79	0.000735474	0.00521332
5291.25	0.482758	2.96326e-05
5291.75	0.484283	0.000349365
5292.23	-0.000616455	0.00366913
5292.69	0.483887	1.73645e-05
5293.19	0.483063	0.000138794
5293.69	0.483612	0.0153931
5294.13	0.484009	1.62964e-05
5294.63	0.484131	6.43616e-05
5295.13	0.483826	0.0114807
5295.59	-0.697144	-0.0249481
5296.07	0.484283	3.62549e-05
5296.57	0.484039	0.00801392
5297.03	-0.698578	-0.0195343
5297.51	0.484161	2.6886e-05
5298.01	0.483246	0.00156311
5298.49	-0.000723267	0.00522186
5298.95	0.483246	2.49023e-05
5299.45	0.483643	0.000354523
5299.93	0.000973511	0.00365784
5300.39	0.484009	1.72729e-05
5300.89	0.484009	0.000133301
5301.39	0.483612	0.01539
5301.83	0.482697	2.2644e-05
5302.33	0.482819	7.30286e-05
5302.83	0.4823	0.0114929
5303.29	-0.697357	-0.0249451
5303.77	0.484314	3.77808e-05
5304.27	0.483948	0.00801697
5304.73	-0.697662	-0.0195435
5305.21	0.483948	2.75574e-05
5305.71	0.482727	0.00158142
5306.19	-0.000720215	0.00521423
5306.65	0.484161	1.93176e-05
5307.15	0.484314	0.000352112
5307.63	0.000405884	0.00365417
5308.09	0.483826	1.86768e-05
5308.59	0.484192	0.000131531
5309.09	0.482025	0.0154022
5309.53	0.484253	1.35193e-05
5310.03	0.483917	6.65588e-05
5310.53	0.483185	0.011499
5310.99	-0.697845	-0.024939
5311.47	0.482819	4.95605e-05
5311.97	0.48291	0.00801392
5312.43	-0.698853	-0.0195343
5312.91	0.482727	3.60718e-05
5313.41	0.484192	0.00157654
5313.89	-0.000335693	0.00520966
5314.35	0.483276	2.37122e-05
5314.85	0.48288	0.000366394
5315.33	-0.000750732	0.00365814
5315.79	0.484314	1.42212e-05
5316.29	0.48407	0.000137238
5316.79	0.481995	0.0154053
5317.23	0.483856	1.47095e-05
5317.73	0.482758	7.49207e-05
5318.23	0.482422	0.0114899
5318.69	-0.698792	-0.0249451
5319.17	0.483185	4.26025e-05
5319.67	0.484009	0.00802612
5320.13	-0.697388	-0.0195465
5320.61	0.483429	2.76489e-05
5321.11	0.482697	0.00159851
5321.59	0.000244141	0.00519257
5322.05	0.483002	3.07312e-05
5322.55	0.483398	0.00036084
5323.03	7.32422e-05	0.00364716
5323.49	0.484161	1.33972e-05
5323.99	0.482788	0.000144653
5324.49	0.483551	0.0153931
5324.93	0.482758	2.36206e-05
5325.43	0.48407	6.78101e-05
5325.93	0.482239	0.0114929
5326.39	-0.697174	-0.0249512
5326.87	0.482727	4.92859e-05
5327.37	0.484039	0.00803528
5327.83	-0.698364	-0.0195557
5328.31	0.484161	2.48108e-05
5328.81	0.482727	0.00160767
5329.29	-0.000695801	0.00519531
5329.75	0.483795	2.20642e-05
5330.25	0.483154	0.000366119
5330.73	-7.32422e-05	0.00364838
5331.19	0.483398	2.14233e-05
5331.69	0.482758	0.000146088
5332.19	0.482147	0.0154022
5332.63	0.483368	1.92871e-05
5333.13	0.483459	7.02515e-05
5333.63	0.482513	0.0115021
5334.09	-0.698639	-0.024942
5334.57	0.482758	4.97742e-05
5335.07	0.483124	0.00803833
5335.53	-0.698212	-0.0195557
5336.01	0.482727	3.60718e-05
5336.51	0.483337	0.00161591
5336.99	0.00083313	0.0051828
5337.45	0.483368	2.55737e-05
5337.95	0.483215	0.000365356
5338.43	-0.000473022	0.00364471
5338.89	0.482758	2.42004e-05
5339.39	0.483093	0.000143341
5339.89	0.483551	0.0153931
5340.33	0.484009	1.43433e-05
5340.83	0.483704	6.91528e-05
5341.33	0.483887	0.011496
5341.79	-0.698486	-0.0249451
5342.27	0.483826	4.07104e-05
5342.77	0.482849	0.00805054
5343.23	-0.697449	-0.0195618
5343.71	0.482788	3.61023e-05
5344.21	0.483276	0.0016275
5344.69	-0.000714111	0.00518158
5345.15	0.4841	2.03247e-05
5345.65	0.482788	0.000371002
5346.13	0.00057373	0.00363525
5346.59	0.483093	2.38342e-05
5347.09	0.482758	0.000144958
5347.59	0.482086	0.0154083
5348.03	0.483093	1.97449e-05
5348.53	0.4841	6.6925e-05
5349.03	0.483063	0.0115082
5349.49	-0.698425	-0.0249512
5349.97	0.483063	4.88586e-05
5350.47	0.482635	0.00804749
5350.93	-0.698364	-0.0195679
5351.41	0.483032	3.48816e-05
5351.91	0.483337	0.00163422
5352.39	-0.00045166	0.00517853
5352.85	0.482819	2.87476e-05
5353.35	0.482635	0.00037439
5353.83	-0.000576782	0.00363708
5354.29	0.483124	2.39258e-05
5354.79	0.482849	0.00014502
5355.29	0.481995	0.0154022
5355.73	0.483032	1.98669e-05
5356.23	0.482666	7.7301e-05
5356.73	0.482269	0.0115082
5357.19	-0.698578	-0.0249603
5357.67	0.483002	4.66003e-05
5358.17	0.483002	0.0080719
5358.63	-0.698608	-0.0195587
5359.11	0.484161	2.91443e-05
5359.61	0.483887	0.00164154
5360.09	-0.000457764	0.00516998
5360.55	0.48407	2.31934e-05
5361.05	0.482697	0.000375427
5361.53	0.00065918	0.00362335
5361.99	0.484283	1.34888e-05
5362.49	0.482849	0.000146973
5362.99	0.483063	0.0153992
5363.43	0.484375	1.26038e-05
5363.93	0.483521	7.09534e-05
5364.43	0.483826	0.0115021
5364.89	-0.698029	-0.0249542
5365.37	0.483002	4.81873e-05
5365.87	0.483368	0.0080658
5366.33	-0.697723	-0.0195831
5366.81	0.482849	3.70178e-05
5367.31	0.484253	0.00165497
5367.79	0.000811768	0.00515411
5368.25	0.483673	2.22168e-05
5368.75	0.484406	0.000367554
5369.23	-0.000479126	0.00362823
5369.69	0.484131	1.49841e-05
5370.19	0.483002	0.00014679
5370.69	0.482239	0.0153992
5371.13	0.483002	2.01721e-05
5371.63	0.483917	6.89087e-05
5372.13	0.483704	0.0115021
5372.59	-0.697266	-0.0249664
5373.07	0.483215	4.57458e-05
5373.57	0.483185	0.008078
5374.03	-0.6987	-0.0195709
5374.51	0.48349	3.21045e-05
5375.01	0.484314	0.00166809
5375.49	-0.000720215	0.00515686
5375.95	0.483154	2.72827e-05
5376.45	0.483032	0.000377441
5376.93	-0.000463867	0.00362305
5377.39	0.483337	2.14539e-05
5377.89	0.482819	0.000147217
5378.39	0.482178	0.0153961
5378.83	0.483093	2.13928e-05
5379.33	0.484314	6.7749e-05
5379.83	0.482513	0.0115173
5380.29	-0.697357	-0.0249786
5380.77	0.484039	4.14124e-05
5381.27	0.482452	0.00808105
5381.73	-0.698334	-0.0195984
5382.21	0.482941	3.55225e-05
5382.71	0.48288	0.00168823
5383.19	-0.000701904	0.00514801
5383.65	0.483826	2.32544e-05
5384.15	0.483337	0.000377014
5384.63	-0.000473022	0.0036145
5385.09	0.4841	1.74255e-05
5385.59	0.483826	0.000141449
5386.09	0.483643	0.01539
5386.53	0.483643	1.52588e-05
5387.03	0.482697	7.82166e-05
5387.53	0.48349	0.0115021
5387.99	-0.697266	-0.0249756
5388.47	0.482727	5.04761e-05
5388.97	0.483643	0.00809021
5389.43	-0.697876	-0.0195923
5389.91	0.482727	3.75671e-05
5390.41	0.483795	0.00168884
5390.89	0.000894165	0.00513733
5391.35	0.48291	2.92969e-05
5391.85	0.484131	0.000374664
5392.33	0.000292969	0.00360229
5392.79	0.484283	1.57776e-05
5393.29	0.482544	0.000151276
5393.79	0.482422	0.0153931
5394.23	0.484009	1.47705e-05
5394.73	0.482574	7.92847e-05
5395.23	0.483521	0.0115143
5395.69	-0.698578	-0.0249573
5396.17	0.484344	3.79028e-05
5396.67	0.483673	0.00808105
5397.13	-0.698883	-0.0195801
5397.61	0.482819	3.50342e-05
5398.11	0.483521	0.00169952
5398.59	-0.000662231	0.00513947
5399.05	0.48288	2.67029e-05
5399.55	0.48349	0.000380127
5400.03	-0.000598145	0.00360687
5400.49	0.484039	1.76086e-05
5400.99	0.483948	0.00014212
5401.49	0.48288	0.0153992
5401.93	0.484406	1.22375e-05
5402.43	0.483978	6.91528e-05
5402.93	0.483521	0.0115143
5403.39	-0.697113	-0.0249756
5403.87	0.483459	4.60815e-05
5404.37	0.483215	0.00808411
5404.83	-0.698639	-0.0195862
5405.31	0.483521	3.02734e-05
5405.81	0.482697	0.00171295
5406.29	0.000692749	0.00512054
5406.75	0.483002	2.68555e-05
5407.25	0.482941	0.000387787
5407.73	0.000656128	0.00359009
5408.19	0.483643	1.87073e-05
5408.69	0.483887	0.000147034
5409.19	0.483276	0.01539
5409.63	0.482849	2.16675e-05
5410.13	0.482666	7.83386e-05
5410.63	0.482574	0.0115234
5411.09	-0.697937	-0.0249756
5411.57	0.4841	3.89099e-05
5412.07	0.482361	0.00810547
5412.53	-0.69754	-0.0196014
5413.01	0.483002	3.46375e-05
5413.51	0.482697	0.00172516
5413.99	0.000735474	0.00511566
5414.45	0.483734	2.28577e-05
5414.95	0.482819	0.00038913
5415.43	0.000402832	0.00359497
5415.89	0.482788	2.70996e-05
5416.39	0.482819	0.000151184
5416.89	0.482422	0.0153961
5417.33	0.483124	1.98059e-05
5417.83	0.482727	8.02002e-05
5418.33	0.483582	0.0115265
5418.79	-0.698212	-0.0249786
5419.27	0.482758	5.03235e-05
5419.77	0.483612	0.00809631
5420.23	-0.698486	-0.0196106
5420.71	0.484192	2.58789e-05
5421.21	0.482697	0.00173218
5421.69	-0.000708008	0.0051239
5422.15	0.483612	2.45667e-05
5422.65	0.482758	0.000390442
5423.13	0.000726318	0.00358704
5423.59	0.48288	2.54822e-05
5424.09	0.4841	0.000143982
5424.59	0.483337	0.0153961
5425.03	0.483826	1.40686e-05
5425.53	0.482666	7.98645e-05
5426.03	0.482697	0.0115326
5426.49	-0.698334	-0.0249817
5426.97	0.483643	4.50134e-05
5427.47	0.483887	0.00811462
5427.93	-0.698608	-0.0196106
5428.41	0.483032	3.50342e-05
5428.91	0.484222	0.00172974
5429.39	-0.000299072	0.00511932
5429.85	0.483459	2.63062e-05
5430.35	0.483673	0.000388397
5430.83	0.00104675	0.00358551
5431.29	0.483612	1.76086e-05
5431.79	0.482605	0.000154327
5432.29	0.482056	0.0153961
5432.73	0.482788	2.21558e-05
5433.23	0.482666	7.92847e-05
5433.73	0.483429	0.0115204
5434.19	-0.697021	-0.0249786
5434.67	0.484314	3.95508e-05
5435.17	0.483978	0.00811157
5435.63	-0.698395	-0.0196106
5436.11	0.484314	2.53906e-05
5436.61	0.482758	0.0017569
5437.09	-0.000125122	0.0051059
5437.55	0.48291	2.64893e-05
5438.05	0.484192	0.000384735
5438.53	0.000299072	0.0035849
5438.99	0.483826	1.99585e-05
5439.49	0.483215	0.000151062
5439.99	0.483551	0.0153839
5440.43	0.483887	1.75171e-05
5440.93	0.484161	7.05566e-05
5441.43	0.483795	0.0115204
5441.89	-0.6987	-0.0249817
5442.37	0.482727	5.16052e-05
5442.87	0.483795	0.00811768
5443.33	-0.697815	-0.0196381
5443.81	0.483215	3.36914e-05
5444.31	0.483154	0.00176697
5444.79	0.000558472	0.00510071
5445.25	0.48288	2.91138e-05
5445.75	0.483337	0.000391205
5446.23	-0.000515747	0.00358337
5446.69	0.482727	2.63672e-05
5447.19	0.482849	0.000154968
5447.69	0.483582	0.015387
5448.13	0.48407	1.30615e-05
5448.63	0.484283	6.99158e-05
5449.13	0.48291	0.0115234
5449.59	-0.698608	-0.0249878
5450.07	0.484314	4.21448e-05
5450.57	0.483093	0.00812683
5451.03	-0.699005	-0.0196289
5451.51	0.482727	3.83911e-05
5452.01	0.483429	0.00177917
5452.49	0.000769043	0.00509033
5452.95	0.482697	3.07312e-05
5453.45	0.483826	0.000390778
5453.93	6.10352e-05	0.00358032
5454.39	0.484314	1.53809e-05
5454.89	0.484253	0.000145966
5455.39	0.482117	0.0153992
5455.83	0.4841	1.21155e-05
5456.33	0.482727	7.97729e-05
5456.83	0.482391	0.0115387
5457.29	-0.698578	-0.0249786
5457.77	0.48407	4.04663e-05
5458.27	0.483704	0.00812683
5458.73	-0.699066	-0.0196411
5459.21	0.482941	3.52478e-05
5459.71	0.48288	0.00178986
5460.19	0.000466919	0.00508453
5460.65	0.484467	1.92261e-05
5461.15	0.484344	0.000389069
5461.63	-2.13623e-05	0.00357056
5462.09	0.483948	1.97449e-05
5462.59	0.48349	0.000152618
5463.09	0.482239	0.0153992
5463.53	0.483459	2.05688e-05
5464.03	0.482849	7.99255e-05
5464.53	0.48233	0.0115448
5464.99	-0.698425	-0.0249939
5465.47	0.482788	5.05371e-05
5465.97	0.483002	0.00814819
5466.43	-0.698303	-0.0196533
5466.91	0.483246	3.51562e-05
5467.41	0.483459	0.00180023
5467.89	-0.000723267	0.00508789
5468.35	0.484344	2.005e-05
5468.85	0.483185	0.00039856
5469.33	-0.000405884	0.00357208
5469.79	0.483307	2.31018e-05
5470.29	0.482849	0.000157501
5470.79	0.482452	0.0153839
5471.23	0.484283	1.21155e-05
5471.73	0.484253	7.14111e-05
5472.23	0.483826	0.0115295
5472.69	-0.697266	-0.0250031
5473.17	0.482758	5.10254e-05
5473.67	0.483917	0.00813904
5474.13	-0.697571	-0.0196533
5474.61	0.483093	3.57971e-05
5475.11	0.482666	0.00182312
5475.59	0.000231934	0.00507568
5476.05	0.483093	2.73743e-05
5476.55	0.483154	0.000401886
5477.03	6.10352e-05	0.00356354
5477.49	0.483582	1.96228e-05
5477.99	0.483917	0.000150177
5478.49	0.482819	0.0153839
5478.93	0.484131	1.3916e-05
5479.43	0.483398	7.56226e-05
5479.93	0.483307	0.0115326
5480.39	-0.698547	-0.0249939
5480.87	0.484344	4.22058e-05
5481.37	0.482727	0.0081604
5481.83	-0.698425	-0.0196503
5482.31	0.482819	3.75671e-05
5482.81	0.484192	0.00182343
5483.29	0.000643921	0.00506256
5483.75	0.483124	2.65503e-05
5484.25	0.484192	0.000398407
5484.73	0.000598145	0.00355164
5485.19	0.483826	1.74866e-05
5485.69	0.484009	0.000151917
5486.19	0.481995	0.01539
5486.63	0.483521	1.76392e-05
5487.13	0.484161	7.24487e-05
5487.63	0.482452	0.0115387
5488.09	-0.697266	-0.0250031
5488.57	0.484314	4.12903e-05
5489.07	0.4823	0.0081665
5489.53	-0.69751	-0.0196716
5490.01	0.483032	3.5614e-05
5490.51	0.482666	0.00185425
5490.99	4.88281e-05	0.00505768
5491.45	0.483398	2.72217e-05
5491.95	0.483398	0.000403961
5492.43	-0.000341797	0.00355835
5492.89	0.484375	1.58081e-05
5493.39	0.483795	0.000151306
5493.89	0.482086	0.0153961
5494.33	0.482758	2.23694e-05
5494.83	0.483002	8.20007e-05
5495.33	0.483307	0.0115356
5495.79	-0.697144	-0.0250183
5496.27	0.482849	4.96521e-05
5496.77	0.482788	0.00816956
5497.23	-0.698792	-0.0196777
5497.71	0.482635	3.82385e-05
5498.21	0.483124	0.00187347
5498.69	0.000585937	0.00504944
5499.15	0.484375	2.04773e-05
5499.65	0.483063	0.000409912
5500.13	-0.000292969	0.00355011
5500.59	0.482849	2.42615e-05
5501.09	0.483063	0.000157471
5501.59	0.482727	0.0153778
5502.03	0.482941	2.18201e-05
5502.53	0.48288	8.09326e-05
5503.03	0.482361	0.0115479
5503.49	-0.698242	-0.0250061
5503.97	0.483185	4.92249e-05
5504.47	0.482513	0.00817566
5504.93	-0.698914	-0.0196808
5505.41	0.482666	3.73535e-05
5505.91	0.484222	0.00187286
5506.39	0.000671387	0.00504761
5506.85	0.48349	2.77405e-05
5507.35	0.484192	0.000404114
5507.83	0.000564575	0.00353699
5508.29	0.484192	1.77612e-05
5508.79	0.483673	0.000156097
5509.29	0.482269	0.0153839
5509.73	0.484344	1.24817e-05
5510.23	0.483612	7.8186e-05
5510.73	0.482208	0.0115509
5511.19	-0.69809	-0.0250214
5511.67	0.484283	4.29688e-05
5512.17	0.482544	0.00817261
5512.63	-0.697693	-0.0196869
5513.11	0.48288	3.78113e-05
5513.61	0.484192	0.00187805
5514.09	0.000961304	0.00503937
5514.55	0.482727	3.12195e-05
5515.05	0.483856	0.000410583
5515.53	-0.000720215	0.00354248
5515.99	0.484192	1.60217e-05
5516.49	0.484375	0.000153137
5516.99	0.483246	0.0153778
5517.43	0.483215	1.89819e-05
5517.93	0.482666	8.22754e-05
5518.43	0.482788	0.011557
5518.89	-0.69809	-0.0250183
5519.37	0.482697	5.32532e-05
5519.87	0.482422	0.00818787
5520.33	-0.699097	-0.0196838
5520.81	0.482697	3.75671e-05
5521.31	0.483276	0.00190308
5521.79	0.000460815	0.00503845
5522.25	0.484406	1.953125E-05
5522.75	0.482971	0.000418182
5523.23	0.000387573	0.00353363
5523.69	0.483276	1.93481e-05
5524.19	0.482788	0.000163483
5524.69	0.482208	0.0153839
5525.13	0.483856	1.76697e-05
5525.63	0.484375	7.38525e-05
5526.13	0.483643	0.0115448
5526.59	-0.698608	-0.0250092
5527.07	0.483246	4.8584e-05
5527.57	0.483032	0.00818481
5528.03	-0.698395	-0.0196899
5528.51	0.483582	3.22876e-05
5529.01	0.484009	0.00190552
5529.49	0.000860596	0.00502869
5529.95	0.482697	3.08838e-05
5530.45	0.482849	0.000419708
5530.93	0.000708008	0.00352448
5531.39	0.483887	1.76697e-05
5531.89	0.482941	0.000163269
5532.39	0.482544	0.0153748
5532.83	0.484161	1.25122e-05
5533.33	0.48288	8.4198e-05
5533.84	0.482605	0.011554
5534.3	-0.698456	-0.0250092
5534.78	0.484131	4.29077e-05
5535.28	0.483063	0.00818481
5535.74	-0.698975	-0.019693
5536.22	0.483398	3.479e-05
5536.72	0.483521	0.00192352
5537.2	-0.000576782	0.00502777
5537.66	0.482697	3.10669e-05
5538.16	0.484283	0.000412354
5538.64	1.52588e-05	0.00353241
5539.1	0.482849	2.52075e-05
5539.6	0.483063	0.000160217
5540.1	0.482483	0.015387
5540.54	0.482697	2.23694e-05
5541.04	0.483246	7.92847e-05
5541.54	0.482574	0.0115631
5542	-0.698883	-0.0250153
5542.48	0.48288	5.41382e-05
5542.98	0.482574	0.00819092
5543.44	-0.698029	-0.0197052
5543.92	0.483337	3.70483e-05
5544.42	0.484161	0.00192505
5544.9	-0.000238037	0.00502594
5545.36	0.484375	1.92261e-05
5545.86	0.484161	0.000414032
5546.34	-0.000512695	0.00352356
5546.8	0.484406	1.47095e-05
5547.3	0.482941	0.000165009
5547.8	0.483673	0.0153778
5548.24	0.482819	2.03857e-05
5548.74	0.483582	8.00781e-05
5549.24	0.483337	0.011554
5549.7	-0.697479	-0.0250183
5550.18	0.48288	5.41687e-05
5550.68	0.483826	0.00820007
5551.14	-0.698578	-0.019696
5551.62	0.483246	3.71399e-05
5552.12	0.483826	0.00193817
5552.6	9.76562e-05	0.00502014
5553.06	0.483032	2.8656e-05
5553.56	0.482971	0.000424255
5554.04	0.000689697	0.00351227
5554.5	0.483582	1.89514e-05
5555	0.484344	0.000155426
5555.5	0.482025	0.0153839
5555.94	0.482849	2.26135e-05
5556.44	0.483215	8.23059e-05
5556.94	0.483551	0.0115479
5557.4	-0.6987	-0.0250122
5557.88	0.483246	4.99573e-05
5558.38	0.484009	0.008203125
5558.84	-0.697815	-0.0197144
5559.32	0.483429	3.60718e-05
5559.82	0.484131	0.00194946
5560.3	-0.000640869	0.00501617
5560.76	0.4841	2.27356e-05
5561.26	0.482849	0.000428589
5561.74	-0.000695801	0.00351746
5562.2	0.484406	1.49536e-05
5562.7	0.483734	0.000162903
5563.2	0.482056	0.015387
5563.64	0.484222	1.32141e-05
5564.14	0.484467	7.46155e-05
5564.64	0.482727	0.0115692
5565.1	-0.698761	-0.0250214
5565.58	0.484406	4.20532e-05
5566.08	0.482605	0.00822144
5566.54	-0.699127	-0.0197052
5567.02	0.4841	2.85034e-05
5567.52	0.483521	0.00196991
5568	-0.000244141	0.00500397
5568.46	0.484192	2.17285e-05
5568.96	0.483856	0.000421204
5569.44	0.00078125	0.00350647
5569.9	0.483978	1.96228e-05
5570.4	0.484009	0.000159576
5570.9	0.483398	0.0153748
5571.34	0.484344	1.22375e-05
5571.84	0.484253	7.47375e-05
5572.34	0.483276	0.0115662
5572.8	-0.697266	-0.0250397
5573.28	0.484131	4.37012e-05
5573.78	0.483093	0.00821533
5574.24	-0.697479	-0.0197235
5574.72	0.482971	3.81775e-05
5575.22	0.48291	0.00198914
5575.7	0.000238037	0.0049942
5576.16	0.483154	2.92053e-05
5576.66	0.483765	0.000424072
5577.14	-0.000564575	0.00350647
5577.6	0.483582	2.24915e-05
5578.1	0.483368	0.000162811
5578.6	0.483673	0.0153748
5579.04	0.48407	1.50146e-05
5579.54	0.482758	8.59985e-05
5580.04	0.48291	0.011557
5580.5	-0.697083	-0.0250275
5580.98	0.482819	5.37109e-05
5581.48	0.483124	0.00823059
5581.94	-0.697784	-0.0197296
5582.42	0.482971	3.72925e-05
5582.92	0.484009	0.00199799
5583.4	0.000946045	0.00498657
5583.86	0.484283	2.15759e-05
5584.36	0.483948	0.000424011
5584.84	0.000653076	0.00350067
5585.3	0.484253	1.76086e-05
5585.8	0.484253	0.000160736
5586.3	0.482178	0.0153839
5586.74	0.482819	2.28882e-05
5587.24	0.484467	7.33948e-05
5587.74	0.483307	0.011557
5588.2	-0.697479	-0.0250427
5588.68	0.484436	4.22974e-05
5589.18	0.483795	0.00822754
5589.64	-0.698639	-0.0197327
5590.12	0.48407	3.16467e-05
5590.62	0.484253	0.00201538
5591.1	0.000811768	0.00498199
5591.56	0.482788	3.24097e-05
5592.06	0.48349	0.00043042
5592.54	0.000863647	0.00349243
5593	0.482971	2.43835e-05
5593.5	0.482758	0.000170685
5594	0.482666	0.0153839
5594.44	0.482727	2.39258e-05
5594.94	0.482849	8.5907e-05
5595.44	0.483032	0.0115784
5595.9	-0.697113	-0.0250488
5596.38	0.482971	5.25513e-05
5596.88	0.483429	0.00823975
5597.34	-0.698578	-0.0197418
5597.82	0.483795	3.125E-05
5598.32	0.483856	0.00203369
5598.8	0.000830078	0.00497833
5599.26	0.482666	3.15247e-05
5599.76	0.483002	0.000438416
5600.24	0.000674438	0.00349335
5600.7	0.484344	1.61743e-05
5601.2	0.483856	0.000163696
5601.7	0.481964	0.0153809
5602.14	0.483917	1.5686e-05
5602.64	0.483246	8.59375E-05
5603.14	0.482208	0.0115814
5603.6	-0.698181	-0.0250427
5604.08	0.482727	5.3894e-05
5604.58	0.482269	0.0082428
5605.04	-0.69751	-0.0197662
5605.52	0.482758	3.85437e-05
5606.02	0.484406	0.00204407
5606.5	0.000146484	0.00498444
5606.96	0.482727	3.10059e-05
5607.46	0.483032	0.000442474
5607.94	-0.000674438	0.00349274
5608.4	0.483276	2.12708e-05
5608.9	0.483704	0.000163727
5609.4	0.483643	0.0153656
5609.84	0.483765	1.62964e-05
5610.34	0.483063	8.29773e-05
5610.84	0.483063	0.0115814
5611.3	-0.698456	-0.0250488
5611.78	0.48349	4.71802e-05
5612.28	0.482697	0.008255
5612.74	-0.698364	-0.0197449
5613.22	0.483978	3.30505e-05
5613.72	0.483398	0.00205688
5614.2	0.000302124	0.00497467
5614.66	0.483459	2.67334e-05
5615.16	0.483826	0.000434357
5615.64	0.000238037	0.00349121
5616.1	0.483612	1.93481e-05
5616.6	0.482727	0.000173279
5617.1	0.483215	0.0153687
5617.54	0.483948	1.51672e-05
5618.04	0.483673	8.32825e-05
5618.54	0.482666	0.0115753
5619	-0.697632	-0.0250427
5619.48	0.484131	4.57153e-05
5619.98	0.483582	0.00824585
5620.44	-0.698242	-0.0197571
5620.92	0.483765	3.1189e-05
5621.42	0.482971	0.00207764
5621.9	-0.000167847	0.0049704
5622.36	0.484192	2.12708e-05
5622.86	0.482971	0.000445496
5623.34	-0.000653076	0.00348938
5623.8	0.484406	1.55029e-05
5624.3	0.484344	0.000162628
5624.8	0.482849	0.015387
5625.24	0.482788	2.42004e-05
5625.74	0.48407	7.76062e-05
5626.24	0.483185	0.0115875
5626.7	-0.698639	-0.0250488
5627.18	0.484253	4.57153e-05
5627.68	0.483917	0.00825195
5628.14	-0.698914	-0.0197693
5628.62	0.483337	3.50952e-05
5629.12	0.484314	0.00208771
5629.6	4.27246e-05	0.00496399
5630.06	0.48349	2.56958e-05
5630.56	0.483124	0.000445831
5631.04	-0.000598145	0.00348419
5631.5	0.483521	2.10571e-05
5632	0.483765	0.000168396
5632.5	0.482117	0.0153809
5632.94	0.482697	2.29492e-05
5633.44	0.484131	8.10852e-05
5633.94	0.482422	0.0115875
5634.4	-0.697601	-0.0250641
5634.88	0.484344	4.43726e-05
5635.38	0.48288	0.00827026
5635.84	-0.699036	-0.0197662
5636.32	0.482697	3.96423e-05
5636.82	0.483337	0.00210022
5637.3	-0.000808716	0.00496063
5637.76	0.483765	2.54822e-05
5638.26	0.484375	0.000437134
5638.74	0.000888062	0.00347473
5639.2	0.482727	2.65198e-05
5639.7	0.482727	0.000175903
5640.2	0.482391	0.0153687
5640.64	0.483368	1.95007e-05
5641.14	0.484467	7.93152e-05
5641.64	0.482178	0.0115906
5642.1	-0.696991	-0.0250549
5642.58	0.484314	4.29993e-05
5643.08	0.4823	0.00826721
5643.54	-0.697571	-0.0197815
5644.02	0.483032	3.61938e-05
5644.52	0.48288	0.00212311
5645	0.000375366	0.00494232
5645.46	0.482635	3.12195e-05
5645.96	0.484314	0.000440521
5646.44	-0.00065918	0.00347351
5646.9	0.484253	1.52893e-05
5647.4	0.483429	0.000170532
5647.9	0.482025	0.0153717
5648.34	0.484161	1.35803e-05
5648.84	0.482727	8.86536e-05
5649.34	0.483734	0.0115875
5649.8	-0.698425	-0.0250458
5650.28	0.4841	4.73328e-05
5650.78	0.483704	0.00827332
5651.24	-0.697601	-0.0197815
5651.72	0.48291	3.95203e-05
5652.22	0.483673	0.00213165
5652.7	-0.000112915	0.00493866
5653.16	0.484375	2.0752e-05
5653.66	0.483276	0.000451202
5654.14	0.000708008	0.00345734
5654.6	0.483154	2.36206e-05
5655.1	0.484344	0.00016571
5655.6	0.48233	0.0153778
5656.04	0.484039	1.50146e-05
5656.54	0.484375	7.92542e-05
5657.04	0.483948	0.0115906
5657.5	-0.698212	-0.0250641
5657.98	0.483795	4.91943e-05
5658.48	0.482239	0.00827942
5658.94	-0.698822	-0.0197815
5659.42	0.483521	3.48206e-05
5659.92	0.482819	0.00215668
5660.4	0.000979614	0.0049295
5660.86	0.484161	2.31628e-05
5661.36	0.482758	0.000456818
5661.84	0.00110168	0.00345459
5662.3	0.483826	1.9104e-05
5662.8	0.482971	0.000171783
5663.3	0.483215	0.0153656
5663.74	0.483643	1.68152e-05
5664.24	0.484406	7.77893e-05
5664.74	0.483337	0.0115814
5665.2	-0.698395	-0.0250671
5665.68	0.482727	5.43823e-05
5666.18	0.482422	0.00828857
5666.64	-0.697601	-0.0197968
5667.12	0.482971	4.08936e-05
5667.62	0.484344	0.00215851
5668.1	0.000827026	0.00492523
5668.56	0.482635	3.20435e-05
5669.06	0.48288	0.000457825
5669.54	-0.000366211	0.00345673
5670	0.484161	1.67847e-05
5670.5	0.482697	0.000178009
5671	0.482422	0.0153687
5671.44	0.482788	2.06299e-05
5671.94	0.483368	8.42285e-05
5672.44	0.482849	0.0115997
5672.9	-0.69751	-0.0250732
5673.38	0.484222	4.58679e-05
5673.88	0.48349	0.00828857
5674.34	-0.697449	-0.0197998
5674.82	0.484253	3.05786e-05
5675.32	0.482849	0.00218018
5675.8	-0.000674438	0.00492706
5676.26	0.483368	2.80762e-05
5676.76	0.482941	0.000458771
5677.24	0.000881958	0.00344604
5677.7	0.482727	2.61841e-05
5678.2	0.483063	0.000176147
5678.7	0.482819	0.0153656
5679.14	0.483276	2.06604e-05
5679.64	0.482788	9.08813e-05
5680.14	0.483917	0.0115967
5680.6	-0.697479	-0.0250702
5681.08	0.482788	5.52979e-05
5681.58	0.483887	0.00828552
5682.04	-0.698395	-0.0197937
5682.52	0.483856	3.3844e-05
5683.02	0.482635	0.00219574
5683.5	0.000967407	0.00491394
5683.96	0.484192	2.21863e-05
5684.46	0.483185	0.000460663
5684.94	-0.000656128	0.00344666
5685.4	0.483368	2.38037e-05
5685.9	0.483307	0.000174408
5686.4	0.483063	0.0153625
5686.84	0.483826	1.57166e-05
5687.34	0.483002	8.92639e-05
5687.84	0.482513	0.0115997
5688.3	-0.698273	-0.0250763
5688.78	0.484283	4.58984e-05
5689.28	0.483887	0.00829163
5689.74	-0.698181	-0.0197906
5690.22	0.483582	3.55835e-05
5690.72	0.482941	0.00221893
5691.2	0.000680542	0.00490662
5691.66	0.483032	3.11279e-05
5692.16	0.483398	0.000460999
5692.64	0.000735474	0.00343781
5693.1	0.483521	2.17285e-05
5693.6	0.482788	0.000180939
5694.1	0.483002	0.0153687
5694.54	0.482788	2.46887e-05
5695.04	0.483826	8.32825e-05
5695.54	0.482758	0.0115967
5696	-0.698212	-0.025061
5696.48	0.484253	4.56543e-05
5696.98	0.483734	0.00829468
5697.44	-0.698883	-0.0198029
5697.92	0.482788	4.03748e-05
5698.42	0.484192	0.00221832
5698.9	-0.000601196	0.00490997
5699.36	0.48288	3.2074e-05
5699.86	0.484253	0.000457855
5700.34	0.000363159	0.00343719
5700.8	0.483704	2.01111e-05
5701.3	0.484222	0.000172272
5701.8	0.482086	0.0153778
5702.24	0.483002	2.10266e-05
5702.74	0.483582	8.47168e-05
5703.24	0.4823	0.0116058
5703.7	-0.698364	-0.0250671
5704.18	0.483307	5.12085e-05
5704.68	0.482513	0.00830688
5705.14	-0.698792	-0.0198242
5705.62	0.483978	3.12805e-05
5706.12	0.483917	0.0022287
5706.6	3.66211e-05	0.00490784
5707.06	0.483429	2.83813e-05
5707.56	0.483704	0.000462219
5708.04	0.000732422	0.00343567
5708.5	0.483032	2.35596e-05
5709	0.484314	0.000173126
5709.5	0.483154	0.0153595
5709.94	0.484222	1.3855e-05
5710.44	0.483215	8.8562e-05
5710.94	0.482941	0.0115997
5711.4	-0.698059	-0.0250793
5711.88	0.484161	4.71802e-05
5712.38	0.483368	0.00831299
5712.84	-0.698395	-0.0198181
5713.32	0.483124	3.69263e-05
5713.82	0.483063	0.00224792
5714.3	0.000216675	0.00489594
5714.76	0.482941	2.93579e-05
5715.26	0.4841	0.000462067
5715.74	0.000588989	0.00342865
5716.2	0.483856	1.94397e-05
5716.7	0.482849	0.00018277
5717.2	0.483215	0.0153656
5717.64	0.484283	1.37634e-05
5718.14	0.483276	9.07898e-05
5718.64	0.48349	0.0116089
5719.1	-0.698395	-0.0250916
5719.58	0.482819	5.8197e-05
5720.08	0.482483	0.00830994
5720.54	-0.699036	-0.0198181
5721.02	0.482635	4.15039e-05
5721.52	0.484314	0.0022522
5722	-0.000354004	0.0048938
5722.46	0.484406	2.005e-05
5722.96	0.483337	0.000468506
5723.44	0.000772095	0.0034259
5723.9	0.483307	2.1759e-05
5724.4	0.483185	0.000181885
5724.9	0.482117	0.0153687
5725.34	0.482758	2.31934e-05
5725.84	0.483093	9.24988e-05
5726.34	0.483643	0.0116119
5726.8	-0.697449	-0.0250916
5727.28	0.4841	4.71191e-05
5727.78	0.483795	0.00831299
5728.24	-0.697876	-0.0198334
5728.72	0.48407	3.20435e-05
5729.22	0.483154	0.00228027
5729.7	0.000836182	0.00488312
5730.16	0.484039	2.3407e-05
5730.66	0.483093	0.000470276
5731.14	0.00090332	0.00341949
5731.6	0.482666	2.734375E-05
5732.1	0.483337	0.000179993
5732.6	0.481964	0.0153778
5733.04	0.482788	2.4353e-05
5733.54	0.483856	8.56018e-05
5734.04	0.482239	0.011618
5734.5	-0.6987	-0.0250885
5734.98	0.482697	5.70984e-05
5735.48	0.48349	0.00831604
5735.94	-0.697418	-0.0198456
5736.42	0.483246	3.67432e-05
5736.92	0.483582	0.00227844
5737.4	-0.00012207	0.00489105
5737.86	0.484283	2.23694e-05
5738.36	0.482635	0.000474945
5738.84	0.000494385	0.00341766
5739.3	0.483612	2.13318e-05
5739.8	0.484344	0.000174011
5740.3	0.483368	0.0153687
5740.74	0.483124	2.04773e-05
5741.24	0.483795	8.61511e-05
5741.74	0.482239	0.0116302
5742.2	-0.6987	-0.0250946
5742.68	0.48291	5.65491e-05
5743.18	0.483063	0.0083252
5743.64	-0.697571	-0.0198639
5744.12	0.483765	3.32336e-05
5744.62	0.483124	0.00230408
5745.1	-0.000418091	0.00488708
5745.56	0.482941	3.12195e-05
5746.06	0.482727	0.000477112
5746.54	-0.000350952	0.00342346
5747	0.483856	1.9928e-05
5747.5	0.484344	0.000174408
5748	0.483734	0.0153625
5748.44	0.482849	2.31934e-05
5748.94	0.483246	8.93555e-05
5749.44	0.483856	0.0116119
5749.9	-0.698578	-0.0250946
5750.38	0.483093	5.41992e-05
5750.88	0.483063	0.00834045
5751.34	-0.69754	-0.0198578
5751.82	0.482819	4.23889e-05
5752.32	0.483551	0.00232147
5752.8	2.13623e-05	0.00487366
5753.26	0.484344	2.34375e-05
5753.76	0.484283	0.000469025
5754.24	-0.000518799	0.00342194
5754.7	0.483154	2.62451e-05
5755.2	0.483643	0.000180786
5755.7	0.482422	0.0153748
5756.14	0.483459	1.72119e-05
5756.64	0.482819	9.37195e-05
5757.14	0.48349	0.0116119
5757.6	-0.698669	-0.0250977
5758.08	0.483551	5.33752e-05
5758.58	0.483948	0.0083374
5759.04	-0.698486	-0.01987
5759.52	0.484283	3.00598e-05
5760.02	0.482788	0.00235077
5760.5	0.000720215	0.00486572
5760.96	0.483246	2.77405e-05
5761.46	0.484039	0.000473846
5761.94	0.000674438	0.00340881
5762.4	0.483246	2.38037e-05
5762.9	0.483612	0.00018158
5763.4	0.483368	0.0153687
5763.84	0.484253	1.37329e-05
5764.34	0.483032	9.20715e-05
5764.84	0.483032	0.0116241
5765.3	-0.697235	-0.0250977
5765.78	0.483948	4.89502e-05
5766.28	0.483337	0.00834961
5766.74	-0.697662	-0.01987
5767.22	0.483276	3.80554e-05
5767.72	0.482941	0.00236206
5768.2	-0.000305176	0.00486694
5768.66	0.483002	3.13721e-05
5769.16	0.482849	0.000484955
5769.64	0	0.00340149
5770.1	0.483795	2.10876e-05
5770.6	0.483429	0.00018631
5771.1	0.482788	0.0153717
5771.54	0.484192	1.45569e-05
5772.04	0.483093	9.50928e-05
5772.54	0.482574	0.0116302
5773	-0.697723	-0.0250946
5773.48	0.482971	5.59692e-05
5773.98	0.482971	0.00834351
5774.44	-0.697937	-0.019873
5774.92	0.483826	3.57666e-05
5775.42	0.482849	0.0023822
5775.9	-0.000485229	0.00486206
5776.36	0.482697	3.31421e-05
5776.86	0.482819	0.000486084
5777.34	0.000799561	0.00339691
5777.8	0.483215	2.47192e-05
5778.3	0.484283	0.000178741
5778.8	0.482544	0.0153625
5779.24	0.484222	1.39465e-05
5779.74	0.482666	9.38416e-05
5780.24	0.482605	0.0116302
5780.7	-0.698029	-0.0251068
5781.18	0.483246	5.33142e-05
5781.68	0.483551	0.00835876
5782.14	-0.697723	-0.01987
5782.62	0.484253	3.08533e-05
5783.12	0.484222	0.00238464
5783.6	-3.05176e-05	0.00484955
5784.06	0.48407	2.37122e-05
5784.56	0.483704	0.00048175
5785.04	-0.000213623	0.00339966
5785.5	0.482758	2.67944e-05
5786	0.482941	0.000188385
5786.5	0.483704	0.0153625
5786.94	0.482727	2.49329e-05
5787.44	0.482697	9.60693e-05
5787.94	0.482849	0.0116211
5788.4	-0.697052	-0.0251099
5788.88	0.484375	4.66614e-05
5789.38	0.483673	0.00834656
5789.84	-0.69873	-0.0198822
5790.32	0.484375	3.00598e-05
5790.82	0.484436	0.00240143
5791.3	-0.00022583	0.0048526
5791.76	0.483459	2.60315e-05
5792.26	0.483398	0.000488312
5792.74	0.000665283	0.00339264
5793.2	0.482758	2.74353e-05
5793.7	0.482727	0.000192993
5794.2	0.481964	0.0153717
5794.64	0.483398	1.94092e-05
5795.14	0.483643	8.9447e-05
5795.64	0.483887	0.011618
5796.1	-0.697571	-0.0251007
5796.58	0.483154	5.49622e-05
5797.08	0.482391	0.00836487
5797.54	-0.698792	-0.0198792
5798.02	0.483521	3.78113e-05
5798.52	0.483063	0.00241608
5799	0.00072937	0.00483948
5799.46	0.482971	3.16162e-05
5799.96	0.48291	0.000492126
5800.44	0.000924683	0.00338593
5800.9	0.484375	1.67542e-05
5801.4	0.482758	0.000192108
5801.9	0.482941	0.0153656
5802.34	0.482788	2.35901e-05
5802.84	0.483673	9.14307e-05
5803.34	0.482391	0.0116302
5803.8	-0.697601	-0.0250977
5804.28	0.484375	4.81873e-05
5804.78	0.482758	0.00835571
5805.24	-0.697388	-0.0198792
5805.72	0.483398	3.55835e-05
5806.22	0.48288	0.00243073
5806.7	0.000738525	0.00483124
5807.16	0.483276	2.95715e-05
5807.66	0.48407	0.000484863
5808.14	0.000268555	0.00338226
5808.6	0.484344	1.55945e-05
5809.1	0.484161	0.000183838
5809.6	0.483521	0.0153625
5810.04	0.483002	2.45361e-05
5810.54	0.482971	9.60083e-05
5811.04	0.482819	0.0116394
5811.5	-0.698486	-0.0251007
5811.98	0.484375	4.87671e-05
5812.48	0.483887	0.00836792
5812.94	-0.698608	-0.0198792
5813.42	0.484253	3.14941e-05
5813.92	0.483398	0.00244232
5814.4	8.54492e-05	0.00483307
5814.86	0.483734	2.44141e-05
5815.36	0.483551	0.000491699
5815.84	-0.000436401	0.00338409
5816.3	0.484344	1.61438e-05
5816.8	0.482788	0.0001953125
5817.3	0.482391	0.0153656
5817.74	0.482941	2.23999e-05
5818.24	0.483765	9.09729e-05
5818.74	0.483459	0.0116333
5819.2	-0.698273	-0.0251038
5819.68	0.4841	4.87671e-05
5820.18	0.482635	0.00836792
5820.64	-0.698456	-0.0198792
5821.12	0.484161	3.12195e-05
5821.62	0.484161	0.00245819
5822.1	-0.000750732	0.00482819
5822.56	0.482819	3.10669e-05
5823.06	0.483826	0.000494324
5823.54	-0.000518799	0.00337616
5824	0.483032	2.62756e-05
5824.5	0.482727	0.00019635
5825	0.483307	0.0153534
5825.44	0.483063	2.18811e-05
5825.94	0.483795	9.22852e-05
5826.44	0.483429	0.0116364
5826.9	-0.697144	-0.025116
5827.38	0.483917	5.49011e-05
5827.88	0.482422	0.00838013
5828.34	-0.698212	-0.0198853
5828.82	0.482758	4.37622e-05
5829.32	0.483704	0.0024762
5829.8	-0.00072937	0.00482422
5830.26	0.482697	3.28979e-05
5830.76	0.482971	0.000499237
5831.24	0.000326538	0.00337616
5831.7	0.483276	2.44751e-05
5832.2	0.482758	0.000195709
5832.7	0.483643	0.0153564
5833.14	0.483063	2.14844e-05
5833.64	0.48288	9.68628e-05
5834.14	0.483337	0.0116425
5834.6	-0.697235	-0.025119
5835.08	0.482758	6.06079e-05
5835.58	0.483276	0.00838318
5836.04	-0.698425	-0.0199066
5836.52	0.48288	4.12903e-05
5837.02	0.483643	0.00249542
5837.5	0.000744629	0.00481079
5837.96	0.483795	2.61536e-05
5838.46	0.482727	0.000503113
5838.94	0.000653076	0.00337158
5839.4	0.484344	1.8219e-05
5839.9	0.483856	0.000188843
5840.4	0.483124	0.0153656
5840.84	0.483887	1.40991e-05
5841.34	0.484344	8.87146e-05
5841.84	0.483582	0.0116333
5842.3	-0.698639	-0.025119
5842.78	0.48349	5.45654e-05
5843.28	0.483154	0.00838318
5843.74	-0.698975	-0.0199036
5844.22	0.484375	3.21655e-05
5844.72	0.482849	0.00251923
5845.2	-0.000265503	0.00481018
5845.66	0.484222	2.30103e-05
5846.16	0.483978	0.000496521
5846.64	-0.000146484	0.00336853
5847.1	0.483521	2.24609e-05
5847.6	0.484131	0.000188049
5848.1	0.483307	0.0153503
5848.54	0.484192	1.43127e-05
5849.04	0.484344	8.81348e-05
5849.54	0.482849	0.0116486
5850	-0.697845	-0.025116
5850.48	0.484375	4.92249e-05
5850.98	0.483765	0.00840149
5851.44	-0.698242	-0.0199036
5851.92	0.483826	3.61023e-05
5852.42	0.484406	0.00252655
5852.9	0.000521851	0.00480652
5853.36	0.484406	2.27356e-05
5853.86	0.484222	0.000496216
5854.34	0.000799561	0.00336426
5854.8	0.484344	1.67236e-05
5855.3	0.482941	0.000197998
5855.8	0.483368	0.0153473
5856.24	0.484131	1.5625e-05
5856.74	0.484283	8.71887e-05
5857.24	0.482697	0.0116394
5857.7	-0.697479	-0.025116
5858.18	0.483459	5.79529e-05
5858.68	0.483551	0.00840454
5859.14	-0.697418	-0.0199219
5859.62	0.482605	4.21448e-05
5860.12	0.482941	0.00255096
5860.6	0.000146484	0.00480164
5861.06	0.483826	2.85645e-05
5861.56	0.484283	0.000498657
5862.04	-0.000637817	0.00336731
5862.5	0.484009	2.19116e-05
5863	0.483459	0.00019278
5863.5	0.482513	0.0153534
5863.94	0.483948	1.55334e-05
5864.44	0.482788	9.93042e-05
5864.94	0.483704	0.0116425
5865.4	-0.698151	-0.025116
5865.88	0.48291	5.9021e-05
5866.38	0.483917	0.00839539
5866.84	-0.698914	-0.0199219
5867.32	0.483612	3.81775e-05
5867.82	0.483948	0.00257263
5868.3	0.000344849	0.00479126
5868.76	0.484009	2.54822e-05
5869.26	0.482697	0.000513306
5869.74	-3.05176e-05	0.00335419
5870.2	0.484283	1.76697e-05
5870.7	0.482758	0.000198975
5871.2	0.482422	0.0153717
5871.64	0.484009	1.64795e-05
5872.14	0.484283	8.84705e-05
5872.36	0.483978	1.43127e-05