File: Edgar/20240531/20240531/electrodeposition_pulsed_potential_20240531_A/pulses_6000_to_7000.txt
Time (s)	WE(1).Potential (V)	WE(1).Current (A)
4459.87	-0.698395	-0.0244263
4460.35	0.482758	3.29895e-05
4460.85	0.482452	0.00688873
4461.31	-0.699158	-0.0187469
4461.79	0.483246	2.37122e-05
4462.29	0.48349	0.000674744
4462.77	0.000558472	0.00594666
4463.23	0.484406	1.27869e-05
4463.73	0.484314	0.000171112
4464.21	-0.000244141	0.00416748
4464.67	0.484497	9.52148e-06
4465.17	0.482758	8.1604e-05
4465.67	0.482635	0.0154297
4466.11	0.484406	8.45337e-06
4466.61	0.484192	3.94287e-05
4467.11	0.483215	0.0111115
4467.57	-0.697327	-0.0244904
4468.05	0.483063	3.48816e-05
4468.55	0.483032	0.00704376
4469.01	-0.698547	-0.0187469
4469.49	0.48349	2.4353e-05
4469.99	0.482727	0.000703125
4470.47	-0.000491333	0.00597321
4470.93	0.48349	2.12708e-05
4471.43	0.483002	0.000179718
4471.91	0.00102844	0.00417297
4472.37	0.484314	1.13831e-05
4472.87	0.484406	7.23877e-05
4473.37	0.482025	0.0154388
4473.81	0.483368	1.46179e-05
4474.31	0.482697	5.15747e-05
4474.81	0.482819	0.0111115
4475.27	-0.698792	-0.0245117
4475.75	0.483154	3.48816e-05
4476.25	0.483185	0.00707062
4476.71	-0.697479	-0.0187469
4477.19	0.48291	2.93884e-05
4477.69	0.484253	0.000702209
4478.17	0.000753784	0.00595612
4478.63	0.482697	2.59705e-05
4479.13	0.484222	0.000174835
4479.61	0.000506592	0.00417114
4480.07	0.483246	1.77612e-05
4480.57	0.484314	7.05872e-05
4481.07	0.48233	0.0154358
4481.51	0.483154	1.61438e-05
4482.01	0.483429	4.91943e-05
4482.51	0.482239	0.0111328
4482.97	-0.69873	-0.0245087
4483.45	0.484314	2.50549e-05
4483.95	0.483398	0.00708862
4484.41	-0.697998	-0.0187469
4484.89	0.483368	2.80151e-05
4485.39	0.483704	0.000713501
4485.87	-0.000521851	0.00595947
4486.33	0.484222	1.50757e-05
4486.83	0.482758	0.00018631
4487.31	0.000463867	0.00417206
4487.77	0.484131	1.53503e-05
4488.27	0.483154	8.15125e-05
4488.77	0.483795	0.0154358
4489.21	0.482788	2.14844e-05
4489.71	0.484375	3.87878e-05
4490.21	0.483276	0.0111176
4490.67	-0.697876	-0.02453
4491.15	0.483063	3.52783e-05
4491.65	0.484192	0.00709839
4492.11	-0.697784	-0.0187561
4492.59	0.484192	2.14844e-05
4493.09	0.482849	0.000724487
4493.57	-0.000143433	0.00595215
4494.03	0.482758	2.72827e-05
4494.53	0.482697	0.00018692
4495.01	-0.000302124	0.00417938
4495.47	0.482819	2.21252e-05
4495.97	0.483459	7.76672e-05
4496.47	0.483154	0.0154358
4496.91	0.484222	9.27734e-06
4497.41	0.483276	4.84924e-05
4497.91	0.483826	0.0111328
4498.37	-0.698608	-0.0245209
4498.85	0.484131	2.7832e-05
4499.35	0.483887	0.00711426
4499.81	-0.698669	-0.0187592
4500.29	0.484222	2.06604e-05
4500.79	0.482697	0.000731812
4501.27	0.000769043	0.00594025
4501.73	0.482941	2.31018e-05
4502.23	0.483551	0.000185059
4502.71	0.00067749	0.00417206
4503.17	0.483276	1.94702e-05
4503.67	0.482635	8.50525e-05
4504.17	0.482666	0.0154449
4504.61	0.483459	1.54419e-05
4505.11	0.482605	5.18188e-05
4505.61	0.483429	0.0111359
4506.07	-0.6987	-0.0245331
4506.55	0.484375	2.57874e-05
4507.05	0.482483	0.00713959
4507.51	-0.698212	-0.0187592
4507.99	0.484375	1.98669e-05
4508.49	0.484314	0.000728149
4508.97	0.000653076	0.00593109
4509.43	0.483856	1.74866e-05
4509.93	0.484222	0.000179901
4510.41	-0.000604248	0.00416656
4510.87	0.483307	2.04163e-05
4511.37	0.483826	7.8064e-05
4511.87	0.482147	0.0154449
4512.31	0.483154	1.71509e-05
4512.81	0.483551	4.5166e-05
4513.31	0.482544	0.0111572
4513.77	-0.697083	-0.0245392
4514.25	0.482727	3.65601e-05
4514.75	0.483337	0.00714661
4515.21	-0.697479	-0.0187744
4515.69	0.484253	1.78528e-05
4516.19	0.484344	0.000736389
4516.67	0.000708008	0.00592316
4517.13	0.484436	1.39465e-05
4517.63	0.482849	0.000191864
4518.11	0.000775146	0.00415222
4518.57	0.482666	2.39563e-05
4519.07	0.483093	8.05969e-05
4519.57	0.482178	0.0154327
4520.01	0.484467	1.00403e-05
4520.51	0.483307	4.72107e-05
4521.01	0.483276	0.0111389
4521.47	-0.69751	-0.0245514
4521.95	0.482727	3.68958e-05
4522.45	0.482422	0.00716858
4522.91	-0.698914	-0.0187836
4523.39	0.483826	2.32544e-05
4523.89	0.483643	0.000751953
4524.37	-0.000680542	0.00592377
4524.83	0.484222	1.59912e-05
4525.33	0.484222	0.000185272
4525.81	-0.00020752	0.00415283
4526.27	0.483398	1.74255e-05
4526.77	0.482666	8.56018e-05
4527.27	0.482208	0.0154388
4527.71	0.483185	1.68762e-05
4528.21	0.482819	5.32227e-05
4528.71	0.483765	0.0111603
4529.17	-0.698761	-0.0245361
4529.65	0.484253	2.77405e-05
4530.15	0.483093	0.00717773
4530.61	-0.698822	-0.0187836
4531.09	0.483948	2.11182e-05
4531.59	0.483429	0.000756531
4532.07	0.000827026	0.00590851
4532.53	0.484009	1.76086e-05
4533.03	0.484161	0.000185791
4533.51	0.000350952	0.00415039
4533.97	0.484344	1.15051e-05
4534.47	0.483673	7.88269e-05
4534.97	0.482056	0.015448
4535.41	0.484344	1.03149e-05
4535.91	0.483398	4.67834e-05
4536.41	0.482422	0.0111664
4536.87	-0.698456	-0.0245544
4537.35	0.483521	3.12195e-05
4537.85	0.482971	0.00719116
4538.31	-0.697906	-0.0187958
4538.79	0.483459	2.13928e-05
4539.29	0.4841	0.000758972
4539.77	-5.18799e-05	0.00590973
4540.23	0.483276	1.87988e-05
4540.73	0.484406	0.000184082
4541.21	-0.000485229	0.00415039
4541.67	0.483063	1.77002e-05
4542.17	0.483154	8.26111e-05
4542.67	0.481995	0.0154449
4543.11	0.484375	1.08643e-05
4543.61	0.483337	4.67529e-05
4544.11	0.484009	0.0111603
4544.57	-0.697723	-0.0245544
4545.05	0.482666	3.87878e-05
4545.55	0.482483	0.00720459
4546.01	-0.699066	-0.0188049
4546.49	0.482697	3.0365e-05
4546.99	0.483673	0.00077179
4547.47	3.05176e-06	0.00589294
4547.93	0.484314	1.45264e-05
4548.43	0.483826	0.000188141
4548.91	-0.000195313	0.00413666
4549.37	0.482727	2.21558e-05
4549.87	0.483215	8.18481e-05
4550.37	0.483185	0.0154297
4550.81	0.484253	1.02844e-05
4551.31	0.483093	4.98962e-05
4551.81	0.483948	0.0111725
4552.27	-0.697601	-0.0245575
4552.75	0.483185	3.50952e-05
4553.25	0.48407	0.00720795
4553.71	-0.697693	-0.0188202
4554.19	0.483154	2.86255e-05
4554.69	0.483734	0.0007724
4555.17	-0.000640869	0.00589813
4555.63	0.483856	1.66016e-05
4556.13	0.483337	0.000192902
4556.61	-0.000518799	0.00414032
4557.07	0.484039	1.33667e-05
4557.57	0.484131	7.8125E-05
4558.07	0.482758	0.0154327
4558.51	0.482819	2.02942e-05
4559.01	0.48291	5.27954e-05
4559.51	0.483887	0.0111694
4559.97	-0.698212	-0.0245636
4560.45	0.484406	2.63977e-05
4560.95	0.48288	0.00723022
4561.41	-0.697784	-0.0188324
4561.89	0.482849	3.12195e-05
4562.39	0.483368	0.000785217
4562.87	0.000689697	0.00587646
4563.33	0.482635	2.43225e-05
4563.83	0.483734	0.000193085
4564.31	-0.000622559	0.00413239
4564.77	0.482574	2.37122e-05
4565.27	0.483185	8.3313e-05
4565.77	0.482788	0.0154449
4566.21	0.482574	2.10266e-05
4566.71	0.483887	4.59595e-05
4567.21	0.484009	0.0111786
4567.67	-0.698669	-0.0245667
4568.15	0.482971	3.68347e-05
4568.65	0.483612	0.00724121
4569.11	-0.69751	-0.0188263
4569.59	0.483978	2.15149e-05
4570.09	0.483002	0.0007901
4570.57	0.000857544	0.00586456
4571.03	0.484131	1.66321e-05
4571.53	0.484131	0.000191315
4572.01	-0.000735474	0.00412598
4572.47	0.483826	1.50146e-05
4572.97	0.483917	8.17566e-05
4573.47	0.482269	0.0154449
4573.91	0.482697	1.93481e-05
4574.41	0.484406	4.23584e-05
4574.91	0.482819	0.0111755
4575.37	-0.697388	-0.0245819
4575.85	0.483307	3.30505e-05
4576.35	0.483612	0.00724823
4576.81	-0.698761	-0.0188293
4577.29	0.483978	2.14539e-05
4577.79	0.483185	0.000800171
4578.27	-0.000497437	0.00586945
4578.73	0.48288	2.41394e-05
4579.23	0.482849	0.000202545
4579.71	0.0009765625	0.00411041
4580.17	0.48291	2.28882e-05
4580.67	0.48291	8.5907e-05
4581.17	0.483551	0.0154327
4581.61	0.482697	2.10876e-05
4582.11	0.482666	5.36499e-05
4582.61	0.482422	0.0111969
4583.07	-0.698639	-0.0245667
4583.55	0.483826	3.26538e-05
4584.05	0.483917	0.0072583
4584.51	-0.698792	-0.0188354
4584.99	0.484436	1.76086e-05
4585.49	0.48407	0.000800781
4585.97	0.00057373	0.00585266
4586.43	0.482697	2.47192e-05
4586.93	0.484009	0.000196381
4587.41	0.000393677	0.00410919
4587.87	0.483063	2.31628e-05
4588.37	0.484009	7.86743e-05
4588.87	0.483002	0.0154449
4589.31	0.483337	1.51672e-05
4589.81	0.483093	4.92554e-05
4590.31	0.483948	0.0111908
4590.77	-0.698822	-0.0245819
4591.25	0.484131	2.89612e-05
4591.75	0.483368	0.00727142
4592.21	-0.698364	-0.0188629
4592.69	0.482849	3.0304e-05
4593.19	0.482758	0.00081665
4593.67	2.74658e-05	0.00585266
4594.13	0.483551	2.02332e-05
4594.63	0.482941	0.000206451
4595.11	-0.00027771	0.004104
4595.57	0.484161	1.30615e-05
4596.07	0.483887	8.00476e-05
4596.57	0.482147	0.0154419
4597.01	0.483765	1.49536e-05
4597.51	0.483337	4.7821e-05
4598.01	0.482422	0.0111969
4598.47	-0.698578	-0.0245819
4598.95	0.483002	3.68652e-05
4599.45	0.483948	0.00728363
4599.91	-0.698975	-0.018866
4600.39	0.484009	2.16064e-05
4600.89	0.482788	0.000823669
4601.37	-0.000195313	0.00583832
4601.83	0.482758	2.57263e-05
4602.33	0.4841	0.000197052
4602.81	0.000271606	0.00409943
4603.27	0.484375	1.21155e-05
4603.77	0.483215	8.56323e-05
4604.27	0.481964	0.0154358
4604.71	0.482788	2.03857e-05
4605.21	0.484222	4.36096e-05
4605.71	0.483917	0.0111908
4606.17	-0.697083	-0.0245941
4606.65	0.484039	2.88086e-05
4607.15	0.48291	0.00729828
4607.61	-0.697693	-0.0188843
4608.09	0.484406	1.89514e-05
4608.59	0.482697	0.00083252
4609.07	-1.52588e-05	0.00582916
4609.53	0.483337	1.97449e-05
4610.03	0.484314	0.000198517
4610.51	-0.000549316	0.0040976
4610.97	0.483704	1.44348e-05
4611.47	0.482941	8.89893e-05
4611.97	0.482727	0.0154358
4612.41	0.483643	1.63574e-05
4612.91	0.482788	5.41077e-05
4613.41	0.482483	0.0112122
4613.87	-0.697906	-0.024585
4614.35	0.484039	2.92664e-05
4614.85	0.483398	0.00731262
4615.31	-0.698761	-0.0188751
4615.79	0.482666	3.02124e-05
4616.29	0.483429	0.000838623
4616.77	-0.000579834	0.00582916
4617.23	0.483887	1.68152e-05
4617.73	0.483368	0.000209015
4618.21	0.000814819	0.00408081
4618.67	0.4841	1.36108e-05
4619.17	0.483459	8.73718e-05
4619.67	0.482391	0.0154297
4620.11	0.483368	1.72729e-05
4620.61	0.483093	5.09338e-05
4621.11	0.482452	0.0112061
4621.57	-0.69873	-0.0245972
4622.05	0.484253	2.80151e-05
4622.55	0.483765	0.00731445
4623.01	-0.698395	-0.0188782
4623.49	0.482758	2.97546e-05
4623.99	0.482758	0.000844116
4624.47	0.000302124	0.00581116
4624.93	0.483856	1.71204e-05
4625.43	0.482788	0.00021344
4625.91	0.000921631	0.00407715
4626.37	0.4841	1.23901e-05
4626.87	0.483765	8.68225e-05
4627.37	0.482056	0.0154388
4627.81	0.482758	2.17896e-05
4628.31	0.484283	4.35791e-05
4628.81	0.483765	0.011203
4629.27	-0.697693	-0.0246094
4629.75	0.483032	3.65295e-05
4630.25	0.482513	0.00733124
4630.71	-0.699127	-0.0188904
4631.19	0.482849	3.04871e-05
4631.69	0.482635	0.000849915
4632.17	0.000759888	0.00580505
4632.63	0.483704	2.24609e-05
4633.13	0.483917	0.000205048
4633.61	-0.000524902	0.00408661
4634.07	0.483093	2.23694e-05
4634.57	0.483551	8.52661e-05
4635.07	0.483368	0.0154358
4635.51	0.482666	1.97754e-05
4636.01	0.484314	4.46167e-05
4636.51	0.483582	0.011203
4636.97	-0.697388	-0.0246094
4637.45	0.482697	3.89099e-05
4637.95	0.482422	0.0073407
4638.41	-0.698608	-0.0189087
4638.89	0.483917	2.20642e-05
4639.39	0.482971	0.000848083
4639.87	0.000845337	0.00579865
4640.33	0.483978	1.70898e-05
4640.83	0.483948	0.000207611
4641.31	0.000180054	0.00407196
4641.77	0.484039	1.42822e-05
4642.27	0.482574	9.25598e-05
4642.77	0.482086	0.015451
4643.21	0.483307	1.59302e-05
4643.71	0.484375	4.5105e-05
4644.21	0.482819	0.0112091
4644.67	-0.698639	-0.0246063
4645.15	0.482819	3.79639e-05
4645.65	0.482483	0.00735321
4646.11	-0.698364	-0.0189087
4646.59	0.482727	3.22266e-05
4647.09	0.482666	0.000864258
4647.57	0.00010376	0.00579651
4648.03	0.483856	1.8219e-05
4648.53	0.482758	0.00021582
4649.01	0.000753784	0.00406403
4649.47	0.483765	1.65405e-05
4649.97	0.482941	9.021e-05
4650.47	0.481995	0.0154449
4650.91	0.483276	1.5686e-05
4651.41	0.482697	5.45349e-05
4651.91	0.483398	0.0112122
4652.37	-0.697235	-0.0246307
4652.85	0.48407	3.07007e-05
4653.35	0.482635	0.00736389
4653.81	-0.699188	-0.0189148
4654.29	0.483398	2.76184e-05
4654.79	0.484253	0.000860291
4655.27	0.000183105	0.00578156
4655.73	0.483795	2.10266e-05
4656.23	0.484253	0.000207062
4656.71	-0.000405884	0.00406921
4657.17	0.482941	2.44141e-05
4657.67	0.482697	9.39331e-05
4658.17	0.483429	0.0154388
4658.61	0.482635	2.15149e-05
4659.11	0.484253	4.48608e-05
4659.61	0.482178	0.0112274
4660.07	-0.697693	-0.0246185
4660.55	0.482941	3.7262e-05
4661.05	0.482513	0.0073761
4661.51	-0.698975	-0.018924
4661.99	0.483856	2.25525e-05
4662.49	0.483429	0.000867615
4662.97	0.000201416	0.00577118
4663.43	0.483215	2.35291e-05
4663.93	0.484192	0.000209808
4664.41	-0.000738525	0.00405823
4664.87	0.482727	2.35901e-05
4665.37	0.483398	8.63647e-05
4665.87	0.482452	0.0154297
4666.31	0.483398	1.59912e-05
4666.81	0.483154	5.28564e-05
4667.31	0.483246	0.0112213
4667.77	-0.697845	-0.0246399
4668.25	0.482727	4.02832e-05
4668.75	0.483002	0.00738068
4669.21	-0.697815	-0.0189331
4669.69	0.482697	3.24402e-05
4670.19	0.483643	0.000880127
4670.67	-7.01904e-05	0.00577118
4671.13	0.483398	2.20337e-05
4671.63	0.482666	0.000221344
4672.11	-0.000427246	0.00405518
4672.57	0.482727	2.33154e-05
4673.07	0.484222	8.33435e-05
4673.57	0.482361	0.0154297
4674.01	0.482727	2.09961e-05
4674.51	0.483215	5.16357e-05
4675.01	0.482361	0.0112335
4675.47	-0.697266	-0.0246307
4675.95	0.48407	3.0365e-05
4676.45	0.483154	0.00739014
4676.91	-0.699097	-0.0189453
4677.39	0.483337	2.64282e-05
4677.89	0.484222	0.000881958
4678.37	-0.000222778	0.00576416
4678.83	0.484283	1.52588e-05
4679.33	0.484222	0.000212585
4679.81	0.000265503	0.00404663
4680.27	0.482727	2.47192e-05
4680.77	0.484222	8.34351e-05
4681.27	0.483612	0.0154236
4681.71	0.483551	1.76086e-05
4682.21	0.482727	5.43823e-05
4682.71	0.483032	0.0112366
4683.17	-0.698181	-0.0246338
4683.65	0.484161	2.95105e-05
4684.15	0.482819	0.0073996
4684.61	-0.699188	-0.0189545
4685.09	0.483093	2.7832e-05
4685.59	0.482574	0.0008984375
4686.07	0.000793457	0.00574738
4686.53	0.483795	1.92566e-05
4687.03	0.482605	0.000224884
4687.51	-0.000732422	0.00404694
4687.97	0.484192	1.3855e-05
4688.47	0.482666	9.33533e-05
4688.97	0.483551	0.0154327
4689.41	0.483612	1.38855e-05
4689.91	0.484406	4.34875e-05
4690.41	0.483612	0.0112274
4690.87	-0.698761	-0.0246338
4691.35	0.483582	3.09143e-05
4691.85	0.482941	0.00741272
4692.31	-0.698792	-0.0189453
4692.79	0.482727	2.98157e-05
4693.29	0.484344	0.000896301
4693.77	-0.000592041	0.00574646
4694.23	0.484406	1.57776e-05
4694.73	0.483398	0.000221558
4695.21	-0.000210571	0.00403778
4695.67	0.484344	1.297e-05
4696.17	0.483673	8.88062e-05
4696.67	0.483704	0.0154236
4697.11	0.483093	1.69678e-05
4697.61	0.483429	5.22461e-05
4698.11	0.483948	0.0112274
4698.57	-0.697205	-0.024646
4699.05	0.484406	2.74353e-05
4699.55	0.483002	0.00741974
4700.01	-0.698914	-0.0189636
4700.49	0.483917	2.17285e-05
4700.99	0.483093	0.00091217
4701.47	-0.000744629	0.00574432
4701.93	0.483826	1.91956e-05
4702.43	0.484161	0.000216583
4702.91	0.000299072	0.00403137
4703.37	0.484406	1.21155e-05
4703.87	0.482788	9.60999e-05
4704.37	0.481964	0.0154388
4704.81	0.483276	2.07825e-05
4705.31	0.483002	5.42603e-05
4705.81	0.48233	0.0112488
4706.27	-0.697266	-0.0246429
4706.75	0.484131	2.97241e-05
4707.25	0.482544	0.00742798
4707.71	-0.699158	-0.0189728
4708.19	0.484283	2.08435e-05
4708.69	0.482635	0.0009198
4709.17	-0.000735474	0.005737
4709.63	0.483124	2.48108e-05
4710.13	0.483002	0.000229614
4710.61	-0.000143433	0.00403259
4711.07	0.482697	2.40173e-05
4711.57	0.4841	8.57239e-05
4712.07	0.482208	0.0154297
4712.51	0.482788	2.13928e-05
4713.01	0.482758	5.74646e-05
4713.51	0.482697	0.0112549
4713.97	-0.697296	-0.024646
4714.45	0.482666	4.07104e-05
4714.95	0.484131	0.00743164
4715.41	-0.699219	-0.0189819
4715.89	0.482788	3.14331e-05
4716.39	0.483978	0.000918884
4716.87	-0.000665283	0.00572968
4717.33	0.482971	2.69775e-05
4717.83	0.4841	0.000219147
4718.31	0.000704956	0.00401611
4718.77	0.482697	2.37427e-05
4719.27	0.483032	9.47876e-05
4719.77	0.481873	0.0154266
4720.21	0.482788	2.16064e-05
4720.71	0.482941	5.53894e-05
4721.21	0.482361	0.0112488
4721.67	-0.698761	-0.024646
4722.15	0.484375	2.92358e-05
4722.65	0.482971	0.00744812
4723.11	-0.698639	-0.018985
4723.59	0.484314	2.02332e-05
4724.09	0.483917	0.000925293
4724.57	0.000570679	0.00571228
4725.03	0.483765	1.9165e-05
4725.53	0.483948	0.000224731
4726.01	0.000396729	0.0040155
4726.47	0.484406	1.20239e-05
4726.97	0.48407	8.89282e-05
4727.47	0.483246	0.0154297
4727.91	0.482697	1.98059e-05
4728.41	0.484344	4.57458e-05
4728.91	0.4823	0.0112579
4729.37	-0.698608	-0.0246552
4729.85	0.484222	2.97546e-05
4730.35	0.482391	0.00746063
4730.81	-0.69754	-0.0190094
4731.29	0.484253	2.0813e-05
4731.79	0.482819	0.000936279
4732.27	-0.000576782	0.00571869
4732.73	0.484131	1.61133e-05
4733.23	0.484283	0.000224762
4733.71	0.000134277	0.00401764
4734.17	0.483917	1.49841e-05
4734.67	0.483643	9.44214e-05
4735.17	0.481995	0.0154297
4735.61	0.482727	2.07825e-05
4736.11	0.48291	5.70984e-05
4736.61	0.483093	0.0112518
4737.07	-0.697296	-0.0246613
4737.55	0.482666	3.94287e-05
4738.05	0.484131	0.00745941
4738.51	-0.698273	-0.0190155
4738.99	0.483521	2.69165e-05
4739.49	0.484192	0.000939026
4739.97	-0.000115967	0.00570068
4740.43	0.484283	1.54419e-05
4740.93	0.483612	0.000229095
4741.41	0.00083313	0.00400116
4741.87	0.482788	2.38037e-05
4742.37	0.484222	8.92029e-05
4742.87	0.483551	0.0154297
4743.31	0.484192	1.1322e-05
4743.81	0.484253	4.78821e-05
4744.31	0.483429	0.011264
4744.77	-0.697815	-0.0246704
4745.25	0.482941	3.86353e-05
4745.75	0.48291	0.00747833
4746.21	-0.699005	-0.0190216
4746.69	0.482758	3.19214e-05
4747.19	0.483063	0.000955505
4747.67	0.000808716	0.00568939
4748.13	0.484344	1.78223e-05
4748.63	0.484161	0.000224854
4749.11	-7.32422e-05	0.00400543
4749.57	0.483276	1.92871e-05
4750.07	0.483124	9.51538e-05
4750.57	0.482117	0.0154297
4751.01	0.484497	8.27026e-06
4751.51	0.482666	5.7373e-05
4752.01	0.483185	0.0112701
4752.47	-0.69873	-0.0246643
4752.95	0.484406	2.87476e-05
4753.45	0.482544	0.00749084
4753.91	-0.699127	-0.0190186
4754.39	0.484314	2.09961e-05
4754.89	0.483124	0.00096283
4755.37	0.000720215	0.0056781
4755.83	0.4841	1.69678e-05
4756.33	0.482697	0.000236328
4756.81	-0.000646973	0.00399628
4757.27	0.483154	1.9928e-05
4757.77	0.483551	9.729e-05
4758.27	0.482147	0.0154327
4758.71	0.483887	1.26038e-05
4759.21	0.483002	5.4657e-05
4759.71	0.48288	0.0112701
4760.17	-0.698517	-0.0246735
4760.65	0.483185	3.52173e-05
4761.15	0.483582	0.00749817
4761.61	-0.698151	-0.0190369
4762.09	0.483246	2.69775e-05
4762.59	0.483093	0.000968323
4763.07	0.000842285	0.00567261
4763.53	0.484406	1.50146e-05
4764.03	0.483521	0.000233063
4764.51	7.62939e-05	0.00398682
4764.97	0.48349	1.95007e-05
4765.47	0.482819	9.97314e-05
4765.97	0.483826	0.0154236
4766.41	0.483643	1.62354e-05
4766.91	0.482727	5.65491e-05
4767.41	0.4841	0.0112671
4767.87	-0.698273	-0.0246826
4768.35	0.482758	3.93372e-05
4768.85	0.482666	0.00752258
4769.31	-0.698151	-0.019046
4769.79	0.484375	2.10571e-05
4770.29	0.484344	0.000970459
4770.77	6.40869e-05	0.00566284
4771.23	0.482758	2.70386e-05
4771.73	0.483185	0.000236572
4772.21	0.000314331	0.00398407
4772.67	0.484344	1.25732e-05
4773.17	0.482788	9.86328e-05
4773.67	0.482452	0.0154144
4774.11	0.482727	2.11792e-05
4774.61	0.483551	5.06897e-05
4775.11	0.482971	0.0112823
4775.57	-0.698334	-0.0246735
4776.05	0.48407	3.11584e-05
4776.55	0.48407	0.00750732
4777.01	-0.698578	-0.0190338
4777.49	0.483002	3.07007e-05
4777.99	0.483826	0.000978699
4778.47	0.000878906	0.00565704
4778.93	0.482819	2.6886e-05
4779.43	0.483002	0.00024176
4779.91	0.000552368	0.0039743
4780.37	0.483887	1.66321e-05
4780.87	0.482941	9.93652e-05
4781.37	0.483002	0.0154297
4781.81	0.483856	1.40991e-05
4782.31	0.48291	5.68848e-05
4782.81	0.482422	0.0112823
4783.27	-0.697754	-0.0246826
4783.75	0.484314	3.08228e-05
4784.25	0.482391	0.00752563
4784.71	-0.698669	-0.0190399
4785.19	0.484344	2.04468e-05
4785.69	0.4841	0.000983887
4786.17	0.000463867	0.00564941
4786.63	0.484253	1.74561e-05
4787.13	0.484375	0.000232178
4787.61	0.000881958	0.00396332
4788.07	0.483978	1.51062e-05
4788.57	0.484222	9.2865e-05
4789.07	0.483124	0.0154236
4789.51	0.482666	2.27356e-05
4790.01	0.484131	4.89197e-05
4790.51	0.482269	0.0112823
4790.97	-0.697601	-0.0246826
4791.45	0.482849	3.9917e-05
4791.95	0.483307	0.00753479
4792.41	-0.698975	-0.0190521
4792.89	0.482941	3.02124e-05
4793.39	0.483368	0.000997314
4793.87	-0.000158691	0.00565216
4794.33	0.483887	1.9104e-05
4794.83	0.482971	0.000241821
4795.31	0.000881958	0.00395752
4795.77	0.484406	1.19324e-05
4796.27	0.483948	9.74426e-05
4796.77	0.481964	0.0154236
4797.21	0.482727	2.15454e-05
4797.71	0.4841	5.15442e-05
4798.21	0.483887	0.0112793
4798.67	-0.698669	-0.0246918
4799.15	0.4841	3.34167e-05
4799.65	0.48291	0.00755005
4800.11	-0.697968	-0.0190521
4800.59	0.484344	2.16064e-05
4801.09	0.482849	0.00100616
4801.57	0.000784302	0.00563324
4802.03	0.483521	2.10266e-05
4802.53	0.484375	0.000235535
4803.01	8.23975e-05	0.00396118
4803.47	0.484131	1.36719e-05
4803.97	0.484314	9.23157e-05
4804.47	0.482178	0.0154175
4804.91	0.4841	1.26038e-05
4805.41	0.483398	5.36194e-05
4805.91	0.483185	0.0112915
4806.37	-0.69873	-0.0246857
4806.85	0.483887	3.43323e-05
4807.35	0.482544	0.00755005
4807.81	-0.698914	-0.0190552
4808.29	0.483948	2.29797e-05
4808.79	0.4841	0.001008
4809.27	-0.000741577	0.00563721
4809.73	0.483032	2.4353e-05
4810.23	0.484192	0.000239319
4810.71	-0.000372314	0.00395569
4811.17	0.482727	2.35291e-05
4811.67	0.483704	9.57642e-05
4812.17	0.482025	0.0154266
4812.61	0.482727	2.14539e-05
4813.11	0.483795	5.04761e-05
4813.61	0.482208	0.0112976
4814.07	-0.697876	-0.024704
4814.55	0.482971	3.92456e-05
4815.05	0.482544	0.0075592
4815.51	-0.697723	-0.0190826
4815.99	0.484131	2.24609e-05
4816.49	0.482635	0.00102295
4816.97	-0.000726318	0.00563049
4817.43	0.48407	1.75781e-05
4817.93	0.483704	0.000245941
4818.41	0.000784302	0.00394165
4818.87	0.484314	1.18408e-05
4819.37	0.483002	0.00010022
4819.87	0.483429	0.0154175
4820.31	0.484039	1.13525e-05
4820.81	0.484253	4.81262e-05
4821.31	0.48349	0.0112854
4821.77	-0.697205	-0.024707
4822.25	0.483246	4.15955e-05
4822.75	0.483948	0.00755615
4823.21	-0.697601	-0.0190826
4823.69	0.4841	2.54822e-05
4824.19	0.483429	0.00102905
4824.67	-0.000234985	0.00561798
4825.13	0.483734	2.18811e-05
4825.63	0.482727	0.000252106
4826.11	0.000732422	0.0039386
4826.57	0.483521	1.80969e-05
4827.07	0.484253	9.35974e-05
4827.57	0.483765	0.0154083
4828.01	0.484161	1.01013e-05
4828.51	0.483612	5.21851e-05
4829.01	0.4823	0.0112976
4829.47	-0.69873	-0.0246979
4829.95	0.483856	3.52783e-05
4830.45	0.483276	0.00756836
4830.91	-0.697418	-0.0190979
4831.39	0.482788	3.20129e-05
4831.89	0.48288	0.0010379
4832.37	-0.00072937	0.00561249
4832.83	0.482758	2.66724e-05
4833.33	0.482819	0.000253693
4833.81	0.000579834	0.00393555
4834.27	0.483337	1.76392e-05
4834.77	0.483307	9.92126e-05
4835.27	0.483063	0.0154053
4835.71	0.483459	1.70593e-05
4836.21	0.48349	5.48706e-05
4836.71	0.483398	0.0113037
4837.17	-0.697144	-0.0247162
4837.65	0.483246	3.69263e-05
4838.15	0.482605	0.00759277
4838.61	-0.699066	-0.0190979
4839.09	0.484375	2.17285e-05
4839.59	0.482697	0.00104797
4840.07	0.000262451	0.00559509
4840.53	0.483612	2.11792e-05
4841.03	0.484314	0.000242828
4841.51	0.000894165	0.00392761
4841.97	0.483337	1.84937e-05
4842.47	0.48349	0.000100769
4842.97	0.483307	0.0154144
4843.41	0.482941	1.87073e-05
4843.91	0.482758	6.02417e-05
4844.41	0.483887	0.0112976
4844.87	-0.698639	-0.0247131
4845.35	0.482666	4.06799e-05
4845.85	0.483002	0.00759583
4846.31	-0.699036	-0.0191162
4846.79	0.483337	3.09143e-05
4847.29	0.484192	0.00104919
4847.77	-0.000308228	0.00559662
4848.23	0.484528	1.63574e-05
4848.73	0.483032	0.000254303
4849.21	-0.000567627	0.0039328
4849.67	0.484344	1.4679e-05
4850.17	0.482697	0.000106049
4850.67	0.483459	0.0154022
4851.11	0.482605	2.28271e-05
4851.61	0.482635	5.96924e-05
4852.11	0.483765	0.0113007
4852.57	-0.697021	-0.0247192
4853.05	0.484131	3.15552e-05
4853.55	0.483795	0.00759277
4854.01	-0.699158	-0.0191132
4854.49	0.484344	2.22778e-05
4854.99	0.482635	0.00106659
4855.47	0.00093689	0.00558105
4855.93	0.483887	1.96228e-05
4856.43	0.483124	0.000254425
4856.91	0.00105591	0.00391541
4857.37	0.482697	2.41394e-05
4857.87	0.483246	0.000101837
4858.37	0.482208	0.0154144
4858.81	0.484375	1.01013e-05
4859.31	0.482971	5.64575e-05
4859.81	0.483856	0.0113037
4860.27	-0.697174	-0.0247192
4860.75	0.484375	2.86255e-05
4861.25	0.483734	0.00762024
4861.71	-0.69873	-0.0191223
4862.19	0.483124	2.78931e-05
4862.69	0.48291	0.00107574
4863.17	-0.000646973	0.00558014
4863.63	0.483337	2.25525e-05
4864.13	0.48291	0.000260895
4864.61	-0.000579834	0.0039209
4865.07	0.482788	2.38647e-05
4865.57	0.482758	0.000107025
4866.07	0.483521	0.0153992
4866.51	0.483093	2.02332e-05
4867.01	0.482758	6.17371e-05
4867.51	0.482391	0.011322
4867.97	-0.697174	-0.0247284
4868.45	0.482697	4.17175e-05
4868.95	0.483093	0.00763245
4869.41	-0.697662	-0.0191345
4869.89	0.48407	2.32239e-05
4870.39	0.483856	0.0010733
4870.87	-0.000369263	0.00557373
4871.33	0.484314	1.66931e-05
4871.83	0.482758	0.000261627
4872.31	-0.000369263	0.00391327
4872.77	0.482666	2.42004e-05
4873.27	0.484314	9.72595e-05
4873.77	0.483246	0.0154114
4874.21	0.483734	1.66016e-05
4874.71	0.483215	5.87769e-05
4875.21	0.483093	0.0113068
4875.67	-0.698303	-0.0247192
4876.15	0.483215	3.75061e-05
4876.65	0.482452	0.00762939
4877.11	-0.697754	-0.0191376
4877.59	0.482758	3.28979e-05
4878.09	0.484161	0.00108124
4878.57	-0.000210571	0.0055661
4879.03	0.484253	1.75781e-05
4879.53	0.482697	0.000264496
4880.01	-0.000543213	0.00391022
4880.47	0.484222	1.31226e-05
4880.97	0.482727	0.000109192
4881.47	0.481964	0.0154144
4881.91	0.483276	1.59912e-05
4882.41	0.484375	4.94385e-05
4882.91	0.483429	0.0113098
4883.37	-0.697205	-0.0247284
4883.85	0.483337	3.43628e-05
4884.35	0.483704	0.0076416
4884.81	-0.698303	-0.0191528
4885.29	0.4841	2.14539e-05
4885.79	0.484314	0.00108856
4886.27	-0.000726318	0.00555756
4886.73	0.483887	1.58691e-05
4887.23	0.483337	0.000262512
4887.71	0.000952148	0.00389343
4888.17	0.482574	2.37732e-05
4888.67	0.483887	0.000101288
4889.17	0.481964	0.0154083
4889.61	0.483124	1.98059e-05
4890.11	0.483398	5.92041e-05
4890.61	0.483795	0.011322
4891.07	-0.6987	-0.0247253
4891.55	0.483978	3.36914e-05
4892.05	0.483673	0.00765686
4892.51	-0.697876	-0.0191437
4892.99	0.484161	2.31934e-05
4893.49	0.482574	0.00110687
4893.97	-0.000732422	0.00554749
4894.43	0.484161	1.76086e-05
4894.93	0.484436	0.000257751
4895.41	-0.000177002	0.00390167
4895.87	0.482819	2.31628e-05
4896.37	0.484528	9.91211e-05
4896.87	0.481995	0.0154114
4897.31	0.482697	2.1759e-05
4897.81	0.483917	5.58472e-05
4898.31	0.482452	0.0113312
4898.77	-0.697052	-0.0247314
4899.25	0.482727	4.18396e-05
4899.75	0.482513	0.00765381
4900.21	-0.698578	-0.0191437
4900.69	0.484344	2.1698e-05
4901.19	0.483673	0.00110596
4901.67	0.000820923	0.00553467
4902.13	0.483551	2.18201e-05
4902.63	0.483337	0.000264496
4903.11	-0.000640869	0.00389496
4903.57	0.482788	2.38342e-05
4904.07	0.484192	9.99146e-05
4904.57	0.483459	0.0154114
4905.01	0.482941	1.87378e-05
4905.51	0.483673	5.72815e-05
4906.01	0.483826	0.0113251
4906.47	-0.697174	-0.0247437
4906.95	0.483887	3.41492e-05
4907.45	0.483154	0.00767212
4907.91	-0.698151	-0.0191559
4908.39	0.483612	2.79541e-05
4908.89	0.483643	0.00111389
4909.37	-0.000418091	0.00553375
4909.83	0.483154	2.36816e-05
4910.33	0.484222	0.000260468
4910.81	0.000183105	0.00388245
4911.27	0.483582	1.93176e-05
4911.77	0.482941	0.000108276
4912.27	0.483643	0.0154053
4912.71	0.484344	1.01013e-05
4913.21	0.484131	5.19714e-05
4913.71	0.483398	0.0113312
4914.17	-0.697845	-0.0247345
4914.65	0.483368	4.07104e-05
4915.15	0.483795	0.00766907
4915.61	-0.698761	-0.0191681
4916.09	0.482758	3.30811e-05
4916.59	0.482666	0.0011319
4917.07	0.000622559	0.00552063
4917.53	0.483154	2.44751e-05
4918.03	0.482727	0.000273682
4918.51	3.35693e-05	0.00388153
4918.97	0.483246	2.11182e-05
4919.47	0.482849	0.000110199
4919.97	0.482605	0.0154144
4920.41	0.483185	1.79749e-05
4920.91	0.484314	5.14221e-05
4921.41	0.482483	0.0113373
4921.87	-0.698853	-0.0247437
4922.35	0.4841	3.42102e-05
4922.85	0.483185	0.00767822
4923.31	-0.697357	-0.0191833
4923.79	0.484406	2.42615e-05
4924.29	0.483704	0.00113159
4924.77	0.000897217	0.00551147
4925.23	0.484039	2.28271e-05
4925.73	0.483185	0.000270752
4926.21	-0.00022583	0.00388
4926.67	0.484467	1.39465e-05
4927.17	0.483917	0.00010202
4927.67	0.48291	0.0153992
4928.11	0.484406	9.97925e-06
4928.61	0.482727	6.28052e-05
4929.11	0.482941	0.0113525
4929.57	-0.697418	-0.0247498
4930.05	0.48291	4.10461e-05
4930.55	0.482758	0.00767822
4931.01	-0.697479	-0.0191925
4931.49	0.483459	2.84729e-05
4931.99	0.484283	0.00113403
4932.47	0.000769043	0.00551208
4932.93	0.483978	1.9928e-05
4933.43	0.4841	0.000270111
4933.91	-0.000543213	0.00386993
4934.37	0.484131	1.40686e-05
4934.87	0.484283	9.96704e-05
4935.37	0.481964	0.0154114
4935.81	0.483582	1.38245e-05
4936.31	0.483063	6.17371e-05
4936.81	0.482849	0.0113373
4937.27	-0.697266	-0.0247528
4937.75	0.484497	3.27759e-05
4938.25	0.483978	0.00769043
4938.71	-0.698944	-0.0191803
4939.19	0.483215	3.14026e-05
4939.69	0.4841	0.00113953
4940.17	1.52588e-05	0.0055069
4940.63	0.483337	2.20642e-05
4941.13	0.482727	0.00027774
4941.61	0.000924683	0.00385803
4942.07	0.482727	2.44751e-05
4942.57	0.484406	0.000101135
4943.07	0.482941	0.0153931
4943.51	0.484406	1.12305e-05
4944.01	0.483643	5.7312e-05
4944.51	0.483459	0.0113495
4944.97	-0.698639	-0.0247528
4945.45	0.483032	4.01306e-05
4945.95	0.482452	0.00770874
4946.41	-0.699005	-0.0191986
4946.89	0.482849	3.23181e-05
4947.39	0.483978	0.00115234
4947.87	0.000299072	0.00549133
4948.33	0.48407	1.93481e-05
4948.83	0.484253	0.000268646
4949.31	0.000723267	0.00385498
4949.77	0.48407	1.41296e-05
4950.27	0.483093	0.000111481
4950.77	0.482361	0.0154205
4951.21	0.483459	1.5564e-05
4951.71	0.483521	5.5542e-05
4952.21	0.482239	0.0113586
4952.67	-0.697754	-0.0247528
4953.15	0.482727	4.2572e-05
4953.65	0.483368	0.00770569
4954.11	-0.699127	-0.0192139
4954.59	0.483124	3.11279e-05
4955.09	0.483795	0.00116638
4955.57	-0.000665283	0.00548767
4956.03	0.484039	1.88904e-05
4956.53	0.48407	0.000272461
4957.01	0.000808716	0.00384918
4957.47	0.483765	2.00195e-05
4957.97	0.484283	0.000102966
4958.47	0.483612	0.0154114
4958.91	0.483032	2.05078e-05
4959.41	0.483643	5.69458e-05
4959.91	0.482422	0.0113556
4960.37	-0.698761	-0.0247559
4960.85	0.484039	3.49731e-05
4961.35	0.482544	0.0077179
4961.81	-0.699066	-0.0192261
4962.29	0.483398	3.0365e-05
4962.79	0.483215	0.00117737
4963.27	0.00012207	0.00547394
4963.73	0.484192	1.93787e-05
4964.23	0.483673	0.00027652
4964.71	-0.000143433	0.00384918
4965.17	0.482849	2.01111e-05
4965.67	0.483154	0.000111816
4966.17	0.483185	0.0154083
4966.61	0.48407	1.35803e-05
4967.11	0.484253	5.42297e-05
4967.61	0.483002	0.0113647
4968.07	-0.697266	-0.0247772
4968.55	0.484161	3.37219e-05
4969.05	0.483429	0.0077301
4969.51	-0.69754	-0.0192383
4969.99	0.484161	2.30408e-05
4970.49	0.482727	0.00119019
4970.97	0.000894165	0.0054657
4971.43	0.483734	1.98669e-05
4971.93	0.482635	0.000285095
4972.41	0.000683594	0.00384491
4972.87	0.484283	1.31226e-05
4973.37	0.482788	0.000116547
4973.87	0.4823	0.0154114
4974.31	0.484222	1.20544e-05
4974.81	0.482605	6.35376e-05
4975.31	0.483459	0.0113525
4975.77	-0.696991	-0.0247894
4976.25	0.482849	4.03748e-05
4976.75	0.483429	0.00774536
4977.21	-0.697723	-0.0192535
4977.69	0.483826	2.6947e-05
4978.19	0.48291	0.00120148
4978.67	-0.000741577	0.00546722
4979.13	0.482666	2.81372e-05
4979.63	0.482788	0.000287659
4980.11	0.000888062	0.00383484
4980.57	0.484222	1.3855e-05
4981.07	0.482849	0.00011615
4981.57	0.483215	0.0154144
4982.01	0.484192	1.17798e-05
4982.51	0.484344	5.42603e-05
4983.01	0.482391	0.011377
4983.47	-0.698608	-0.0247864
4983.95	0.482697	4.33655e-05
4984.45	0.484009	0.00774536
4984.91	-0.698639	-0.0192383
4985.39	0.483154	3.125E-05
4985.89	0.482666	0.00121033
4986.37	-0.000482178	0.00546234
4986.83	0.483032	2.54517e-05
4987.33	0.483093	0.000286102
4987.81	-0.000482178	0.00384186
4988.27	0.483459	1.94092e-05
4988.77	0.482788	0.00011734
4989.27	0.483429	0.0154083
4989.71	0.483978	1.30005e-05
4990.21	0.484161	5.49316e-05
4990.71	0.482422	0.0113708
4991.17	-0.69754	-0.0247925
4991.65	0.483978	3.44543e-05
4992.15	0.482605	0.00775757
4992.61	-0.697784	-0.0192688
4993.09	0.482971	3.302e-05
4993.59	0.483704	0.00121368
4994.07	-0.000125122	0.00545258
4994.53	0.48291	2.67029e-05
4995.03	0.484009	0.000282288
4995.51	0.000784302	0.00382782
4995.97	0.48291	2.28882e-05
4996.47	0.483429	0.000111694
4996.97	0.482849	0.0154144
4997.41	0.484009	1.07422e-05
4997.91	0.482758	6.40869e-05
4998.41	0.482666	0.0113678
4998.87	-0.69754	-0.0248108
4999.35	0.484009	3.58582e-05
4999.85	0.484009	0.00775757
5000.31	-0.697723	-0.0192688
5000.79	0.484009	2.45667e-05
5001.29	0.483002	0.00123169
5001.77	0.000469971	0.00543793
5002.23	0.483917	1.80969e-05
5002.73	0.483093	0.000288147
5003.21	-0.000286865	0.00382843
5003.67	0.483398	2.04163e-05
5004.17	0.483337	0.000114899
5004.67	0.48349	0.0154083
5005.11	0.483398	1.50452e-05
5005.61	0.484253	5.46265e-05
5006.11	0.482574	0.011377
5006.57	-0.698181	-0.0247986
5007.05	0.484039	3.61938e-05
5007.55	0.482605	0.00777893
5008.01	-0.699036	-0.0192749
5008.49	0.483856	2.53906e-05
5008.99	0.483917	0.00123505
5009.47	0.000756836	0.00542511
5009.93	0.482758	2.83813e-05
5010.43	0.484253	0.000284729
5010.91	-0.000543213	0.00382019
5011.37	0.483948	1.52283e-05
5011.87	0.48288	0.000115814
5012.37	0.483093	0.0154022
5012.81	0.483917	1.37939e-05
5013.31	0.482758	6.21643e-05
5013.81	0.483917	0.0113678
5014.27	-0.698792	-0.0248016
5014.75	0.482605	4.5105e-05
5015.25	0.482391	0.00778809
5015.71	-0.697327	-0.0192871
5016.19	0.484497	2.2583e-05
5016.69	0.484161	0.00123779
5017.17	-6.40869e-05	0.00542633
5017.63	0.483398	2.6062e-05
5018.13	0.483185	0.000292877
5018.61	-0.0006073	0.00382019
5019.07	0.483307	1.85852e-05
5019.57	0.484161	0.000107666
5020.07	0.482025	0.0154114
5020.51	0.4841	1.06812e-05
5021.01	0.484283	5.44434e-05
5021.51	0.482239	0.0113892
5021.97	-0.697998	-0.0248077
5022.45	0.48407	3.46069e-05
5022.95	0.48288	0.00779724
5023.41	-0.698883	-0.019278
5023.89	0.482788	3.48511e-05
5024.39	0.483002	0.0012616
5024.87	0.000827026	0.00541351
5025.33	0.48349	2.33154e-05
5025.83	0.48291	0.000298981
5026.31	0.000582886	0.00379913
5026.77	0.484283	1.37939e-05
5027.27	0.483032	0.000119263
5027.77	0.483368	0.0153992
5028.21	0.482849	2.05078e-05
5028.71	0.483246	6.20728e-05
5029.21	0.482361	0.0113861
5029.67	-0.697266	-0.0248169
5030.15	0.484314	3.54919e-05
5030.65	0.483612	0.00779724
5031.11	-0.697388	-0.0192993
5031.59	0.483368	2.67944e-05
5032.09	0.483887	0.00126099
5032.57	0.000827026	0.00540192
5033.03	0.482727	3.07312e-05
5033.53	0.483002	0.00029776
5034.01	-6.10352e-06	0.00379883
5034.47	0.484009	1.38245e-05
5034.97	0.482788	0.000119263
5035.47	0.482513	0.0154083
5035.91	0.484436	9.79614e-06
5036.41	0.483704	5.7251e-05
5036.91	0.482056	0.0113892
5037.37	-0.697784	-0.0248138
5037.85	0.484314	3.36609e-05
5038.35	0.482605	0.0078125
5038.81	-0.697754	-0.0193054
5039.29	0.484314	2.19116e-05
5039.79	0.482483	0.00127533
5040.27	0.000866699	0.00540253
5040.73	0.483856	2.17896e-05
5041.23	0.482605	0.000301239
5041.71	-0.000292969	0.00379517
5042.17	0.482788	2.39563e-05
5042.67	0.48291	0.000121826
5043.17	0.483185	0.0153961
5043.61	0.484283	1.07727e-05
5044.11	0.483826	5.97229e-05
5044.61	0.483795	0.0113861
5045.07	-0.697449	-0.0248291
5045.55	0.483307	3.98865e-05
5046.05	0.483917	0.00780945
5046.51	-0.698242	-0.0193115
5046.99	0.483765	2.46582e-05
5047.49	0.483429	0.00128113
5047.97	-0.000411987	0.00539917
5048.43	0.482971	2.48413e-05
5048.93	0.483398	0.000299469
5049.41	-0.000656128	0.00379547
5049.87	0.483002	2.24915e-05
5050.37	0.483734	0.000115082
5050.87	0.483673	0.0154022
5051.31	0.483521	1.89819e-05
5051.81	0.484375	5.63354e-05
5052.31	0.48291	0.0113983
5052.77	-0.698425	-0.0248108
5053.25	0.484283	3.42102e-05
5053.75	0.482635	0.00780945
5054.21	-0.69751	-0.0193176
5054.69	0.484283	2.35901e-05
5055.19	0.484192	0.00128448
5055.67	0.000970459	0.00538116
5056.13	0.483521	2.23694e-05
5056.63	0.483002	0.000305542
5057.11	0.00055542	0.00378601
5057.57	0.484283	1.45264e-05
5058.07	0.484314	0.000110687
5058.57	0.482452	0.0153992
5059.01	0.484192	1.28174e-05
5059.51	0.48407	5.71594e-05
5060.01	0.4823	0.0114014
5060.47	-0.69873	-0.0248199
5060.95	0.482971	4.15649e-05
5061.45	0.482605	0.00782471
5061.91	-0.698914	-0.0193085
5062.39	0.482727	3.46375e-05
5062.89	0.484314	0.00129456
5063.37	-0.000567627	0.005383
5063.83	0.483551	2.29187e-05
5064.33	0.482635	0.000308411
5064.81	-0.000537109	0.00378601
5065.27	0.483856	1.60522e-05
5065.77	0.483246	0.0001203
5066.27	0.481873	0.0154022
5066.71	0.483124	1.66931e-05
5067.21	0.482819	6.60706e-05
5067.71	0.482269	0.0114075
5068.17	-0.698059	-0.0248169
5068.65	0.483185	4.0863e-05
5069.15	0.483643	0.00783081
5069.61	-0.697693	-0.0193298
5070.09	0.482788	3.33557e-05
5070.59	0.484161	0.00130371
5071.07	0.000109863	0.0053717
5071.53	0.483185	2.56653e-05
5072.03	0.48288	0.000308777
5072.51	-0.00065918	0.00378418
5072.97	0.482758	2.29797e-05
5073.47	0.483002	0.000121735
5073.97	0.48233	0.0154083
5074.41	0.484009	1.38855e-05
5074.91	0.483521	6.50024e-05
5075.41	0.483093	0.0113922
5075.87	-0.697693	-0.024823
5076.35	0.484344	3.52173e-05
5076.85	0.483978	0.00783081
5077.31	-0.697876	-0.0193268
5077.79	0.483246	2.98157e-05
5078.29	0.48291	0.00131958
5078.77	0.000665283	0.00536407
5079.23	0.483032	2.53296e-05
5079.73	0.483154	0.000308533
5080.21	0.000793457	0.0037677
5080.67	0.48291	2.13928e-05
5081.17	0.484131	0.000114746
5081.67	0.483246	0.01539
5082.11	0.484314	9.91821e-06
5082.61	0.483459	6.45142e-05
5083.11	0.482819	0.0114075
5083.57	-0.697418	-0.0248383
5084.05	0.483459	4.08936e-05
5084.55	0.483948	0.00783997
5085.01	-0.698181	-0.0193298
5085.49	0.482941	3.33252e-05
5085.99	0.483215	0.00132782
5086.47	-0.000747681	0.00536713
5086.93	0.4841	1.79138e-05
5087.43	0.482727	0.000313507
5087.91	0.000900269	0.00376373
5088.37	0.483093	2.12708e-05
5088.87	0.484344	0.000114746
5089.37	0.483124	0.01539
5089.81	0.483398	1.37024e-05
5090.31	0.484375	5.73425e-05
5090.81	0.483795	0.0114044
5091.27	-0.69751	-0.0248291
5091.75	0.483276	4.05579e-05
5092.25	0.482513	0.00785522
5092.71	-0.699066	-0.019339
5093.19	0.483551	2.96631e-05
5093.69	0.484283	0.00133179
5094.17	0.000619507	0.00534729
5094.63	0.482819	2.89001e-05
5095.13	0.482727	0.000314636
5095.61	0.000491333	0.00375854
5096.07	0.484314	1.41907e-05
5096.57	0.483948	0.000116852
5097.07	0.483612	0.0153931
5097.51	0.484314	1.13525e-05
5098.01	0.482941	6.64368e-05
5098.51	0.483856	0.0114044
5098.97	-0.697266	-0.0248413
5099.45	0.484314	3.41492e-05
5099.95	0.483215	0.00785217
5100.41	-0.698456	-0.0193573
5100.89	0.483765	2.8717e-05
5101.39	0.48349	0.00134857
5101.87	-0.000720215	0.00535004
5102.33	0.482941	2.55432e-05
5102.83	0.482697	0.000315674
5103.31	0.000927734	0.00375244
5103.77	0.483093	2.54517e-05
5104.27	0.484375	0.000114288
5104.77	0.482056	0.0154083
5105.21	0.482697	2.24609e-05
5105.71	0.483246	6.56433e-05
5106.21	0.4823	0.0114166
5106.67	-0.697266	-0.0248474
5107.15	0.483002	4.39453e-05
5107.65	0.482422	0.00787354
5108.11	-0.698944	-0.0193542
5108.59	0.48349	2.90833e-05
5109.09	0.484314	0.00135132
5109.57	0.000921631	0.00533264
5110.03	0.484009	2.07214e-05
5110.53	0.482727	0.000317627
5111.01	0.000775146	0.00375
5111.47	0.483124	2.23389e-05
5111.97	0.482635	0.000128174
5112.47	0.481995	0.0153961
5112.91	0.48291	1.98975e-05
5113.41	0.483429	6.53992e-05
5113.91	0.48349	0.0114136
5114.37	-0.69751	-0.0248596
5114.85	0.48349	4.37012e-05
5115.35	0.482971	0.00786743
5115.81	-0.699036	-0.0193604
5116.29	0.483276	2.69775e-05
5116.79	0.484039	0.00136841
5117.27	-0.000619507	0.00533325
5117.73	0.484528	1.8219e-05
5118.23	0.483337	0.000317902
5118.71	0.000888062	0.00374054
5119.17	0.484222	1.55334e-05
5119.67	0.483063	0.000125153
5120.17	0.483459	0.01539
5120.61	0.482635	2.39258e-05
5121.11	0.484344	5.7312e-05
5121.61	0.482178	0.0114136
5122.07	-0.697113	-0.0248596
5122.55	0.48288	4.48914e-05
5123.05	0.482422	0.00789185
5123.51	-0.698425	-0.0193634
5123.99	0.484253	2.46887e-05
5124.49	0.484131	0.00136963
5124.97	0.000540161	0.00531799
5125.43	0.483917	2.20947e-05
5125.93	0.483826	0.000313538
5126.41	0.000872803	0.00373688
5126.87	0.483459	2.19116e-05
5127.37	0.484406	0.000115448
5127.87	0.482819	0.0153992
5128.31	0.484161	1.27563e-05
5128.81	0.483612	6.09741e-05
5129.31	0.482239	0.0114258
5129.77	-0.697296	-0.0248627
5130.25	0.484467	3.48511e-05
5130.75	0.482819	0.00788574
5131.21	-0.697906	-0.0193695
5131.69	0.484009	2.88391e-05
5132.19	0.482666	0.00139099
5132.67	0.00045166	0.00531403
5133.13	0.482941	2.49634e-05
5133.63	0.482727	0.000324585
5134.11	-0.000561523	0.00374237
5134.57	0.484253	1.41296e-05
5135.07	0.48288	0.000127136
5135.57	0.482544	0.0154083
5136.01	0.483887	1.51062e-05
5136.51	0.484314	5.8136e-05
5137.01	0.483856	0.0114258
5137.47	-0.6987	-0.0248505
5137.95	0.482666	4.48914e-05
5138.45	0.48288	0.00789185
5138.91	-0.698334	-0.0193787
5139.39	0.48288	3.25623e-05
5139.89	0.483093	0.00139252
5140.37	-0.00083313	0.00531738
5140.83	0.483551	2.22473e-05
5141.33	0.482697	0.000325256
5141.81	-3.96729e-05	0.00374054
5142.27	0.484314	1.34888e-05
5142.77	0.482727	0.000126465
5143.27	0.483582	0.015387
5143.71	0.484192	1.23291e-05
5144.21	0.483917	5.896e-05
5144.71	0.483276	0.0114288
5145.17	-0.697937	-0.0248444
5145.65	0.483948	3.9978e-05
5146.15	0.482574	0.00791016
5146.61	-0.698181	-0.0193939
5147.09	0.482727	3.66516e-05
5147.59	0.482819	0.00140137
5148.07	0.000820923	0.00530701
5148.53	0.484436	1.76392e-05
5149.03	0.484344	0.00031665
5149.51	-0.000454712	0.0037384
5149.97	0.483307	2.23083e-05
5150.47	0.482971	0.000127472
5150.97	0.483063	0.0153992
5151.41	0.484375	1.08948e-05
5151.91	0.484344	5.91431e-05
5152.41	0.483398	0.0114136
5152.87	-0.697113	-0.0248657
5153.35	0.482819	4.63867e-05
5153.85	0.48288	0.00791626
5154.31	-0.69809	-0.0193909
5154.79	0.483765	2.85034e-05
5155.29	0.484253	0.00139954
5155.77	-0.000643921	0.00530334
5156.23	0.483398	2.39563e-05
5156.73	0.482697	0.000326782
5157.21	-4.57764e-05	0.00373383
5157.67	0.484009	1.51367e-05
5158.17	0.483826	0.000120422
5158.67	0.482513	0.0153961
5159.11	0.483521	1.87378e-05
5159.61	0.484253	5.85327e-05
5159.83	0.482605	2.0752e-05