File: Edgar/20240531/20240531/electrodeposition_pulsed_potential_20240531_A/pulses_4000_to_5000.txt
Time (s)	WE(1).Potential (V)	WE(1).Current (A)
3034.28	-0.698578	-0.0233612
3034.76	0.482819	2.23999e-05
3035.26	0.483826	0.000859985
3035.72	-0.699249	-0.0166718
3036.2	0.484406	1.0437e-05
3036.7	0.484283	0.000121124
3037.18	0.00065918	0.00767517
3037.64	0.483643	1.34888e-05
3038.14	0.483002	5.88074e-05
3038.62	-0.000518799	0.00523621
3039.08	0.482758	1.77612e-05
3039.58	0.484497	2.78931e-05
3040.08	0.483673	0.0151489
3040.52	0.484467	5.24902e-06
3041.02	0.484406	1.97754e-05
3041.52	0.483948	0.00958862
3041.98	-0.697723	-0.0233948
3042.46	0.483551	1.85852e-05
3042.96	0.484406	0.000987854
3043.42	-0.698853	-0.0166779
3043.9	0.483643	1.32446e-05
3044.4	0.483154	0.000132202
3044.88	-0.000897217	0.00769348
3045.34	0.484314	1.06812e-05
3045.84	0.484283	4.95911e-05
3046.32	-0.00012207	0.00525787
3046.78	0.483521	1.29395e-05
3047.28	0.483459	3.41797e-05
3047.78	0.483398	0.0151642
3048.22	0.484375	3.66211e-06
3048.72	0.483856	2.27356e-05
3049.22	0.483795	0.00961304
3049.68	-0.69812	-0.023407
3050.16	0.484344	1.44653e-05
3050.66	0.482819	0.00104431
3051.12	-0.698395	-0.0166992
3051.6	0.484283	1.46179e-05
3052.1	0.484009	0.000128021
3052.58	-0.000463867	0.00768127
3053.04	0.4841	1.20544e-05
3053.54	0.483856	5.42297e-05
3054.02	0.000891113	0.00524384
3054.48	0.482941	1.71204e-05
3054.98	0.484131	2.99072e-05
3055.48	0.483337	0.0151733
3055.92	0.482544	1.76697e-05
3056.42	0.483673	2.39563e-05
3056.92	0.484039	0.0096405
3057.38	-0.697479	-0.0234375
3057.86	0.483246	2.19116e-05
3058.36	0.482666	0.00108063
3058.82	-0.698914	-0.0166931
3059.3	0.484467	1.15967e-05
3059.8	0.484253	0.000127197
3060.28	-0.000805664	0.00768433
3060.74	0.482941	1.92261e-05
3061.24	0.482758	6.17981e-05
3061.72	0.000949097	0.00524872
3062.18	0.483887	9.39941e-06
3062.68	0.483704	3.50647e-05
3063.18	0.483398	0.0151825
3063.62	0.484375	3.78418e-06
3064.12	0.482758	3.25623e-05
3064.62	0.482178	0.00966187
3065.08	-0.697479	-0.0234467
3065.56	0.482788	2.41699e-05
3066.06	0.483551	0.00111176
3066.52	-0.697662	-0.0167175
3067	0.483948	1.51978e-05
3067.5	0.484039	0.000132904
3067.98	0.000219727	0.00766296
3068.44	0.48291	1.88599e-05
3068.94	0.482849	6.14014e-05
3069.42	0.000744629	0.00524658
3069.88	0.483398	1.29089e-05
3070.38	0.484375	2.98462e-05
3070.88	0.482605	0.0151978
3071.32	0.484497	5.18799e-06
3071.82	0.484375	2.19116e-05
3072.32	0.482239	0.00967407
3072.78	-0.698914	-0.0234528
3073.26	0.483002	2.51465e-05
3073.76	0.484314	0.00112915
3074.22	-0.697632	-0.0167389
3074.7	0.483978	1.20239e-05
3075.2	0.483612	0.000134155
3075.68	-0.000292969	0.00765991
3076.14	0.484314	8.66699e-06
3076.64	0.482758	6.5033e-05
3077.12	-0.000735474	0.00524689
3077.58	0.482727	1.94702e-05
3078.08	0.482819	4.07104e-05
3078.58	0.482452	0.0151917
3079.02	0.482635	1.80969e-05
3079.52	0.484039	2.24609e-05
3080.02	0.483887	0.00968933
3080.48	-0.697601	-0.023468
3080.96	0.484344	1.474e-05
3081.46	0.484314	0.00116699
3081.92	-0.698761	-0.0167358
3082.4	0.483459	1.74255e-05
3082.9	0.484253	0.000132599
3083.38	-0.000842285	0.00763855
3083.84	0.483582	1.3092e-05
3084.34	0.483398	5.98145e-05
3084.82	0.000921631	0.00523499
3085.28	0.484283	7.75146e-06
3085.78	0.482941	3.98865e-05
3086.28	0.483704	0.0151947
3086.72	0.484497	5.37109e-06
3087.22	0.482666	3.25928e-05
3087.72	0.484009	0.00971375
3088.18	-0.697235	-0.0234833
3088.66	0.482727	2.56653e-05
3089.16	0.484344	0.00119049
3089.62	-0.699432	-0.0167603
3090.1	0.484253	1.37939e-05
3090.6	0.484009	0.000134125
3091.08	-0.000369263	0.00762939
3091.54	0.483093	1.474e-05
3092.04	0.483826	5.69763e-05
3092.52	-0.000643921	0.00523987
3092.98	0.484222	8.05664e-06
3093.48	0.484131	3.18909e-05
3093.98	0.482971	0.0151947
3094.42	0.484558	5.76782e-06
3094.92	0.483429	2.70386e-05
3095.42	0.4823	0.00973511
3095.88	-0.697205	-0.0234924
3096.36	0.483826	2.03247e-05
3096.86	0.482666	0.00123566
3097.32	-0.698181	-0.0167725
3097.8	0.484375	1.35193e-05
3098.3	0.484131	0.000133209
3098.78	-0.000918579	0.00762024
3099.24	0.482788	1.92261e-05
3099.74	0.483887	5.78003e-05
3100.22	-0.000231934	0.00522339
3100.68	0.482666	1.74866e-05
3101.18	0.484467	3.03345e-05
3101.68	0.482941	0.0152191
3102.12	0.484344	4.18091e-06
3102.62	0.482727	3.19519e-05
3103.12	0.483978	0.00974121
3103.58	-0.697388	-0.0235107
3104.06	0.483917	2.00195e-05
3104.56	0.482635	0.00126892
3105.02	-0.69928	-0.0167938
3105.5	0.48407	1.22681e-05
3106	0.483307	0.000140564
3106.48	-0.000939941	0.00761719
3106.94	0.483459	1.46484e-05
3107.44	0.483795	5.67627e-05
3107.92	0.00105896	0.00521912
3108.38	0.483276	1.29089e-05
3108.88	0.482666	4.18396e-05
3109.38	0.482544	0.0152283
3109.82	0.484406	4.88281e-06
3110.32	0.484253	2.38037e-05
3110.82	0.483215	0.00977173
3111.28	-0.698792	-0.0235199
3111.76	0.48288	2.59399e-05
3112.26	0.484314	0.00129303
3112.72	-0.699341	-0.0168243
3113.2	0.482635	2.47192e-05
3113.7	0.484283	0.000136261
3114.18	-0.000610352	0.00760498
3114.64	0.483673	1.30005e-05
3115.14	0.4841	5.58777e-05
3115.62	0.00085144	0.00521729
3116.08	0.482758	1.87073e-05
3116.58	0.483917	3.02429e-05
3117.08	0.482025	0.0152344
3117.52	0.484344	5.52368e-06
3118.02	0.484375	2.24609e-05
3118.52	0.483887	0.00977173
3118.98	-0.698883	-0.0235291
3119.46	0.482727	2.74048e-05
3119.96	0.484161	0.00133423
3120.42	-0.697632	-0.0168518
3120.9	0.483032	2.27051e-05
3121.4	0.483368	0.000143402
3121.88	0.000567627	0.00758972
3122.34	0.483063	1.77612e-05
3122.84	0.484253	5.35889e-05
3123.32	-2.13623e-05	0.00521271
3123.78	0.484375	8.3313e-06
3124.28	0.483765	3.75061e-05
3124.78	0.482697	0.0152405
3125.22	0.482971	1.62964e-05
3125.72	0.483459	2.64587e-05
3126.22	0.483459	0.00979614
3126.68	-0.698883	-0.0235321
3127.16	0.483246	2.11792e-05
3127.66	0.483856	0.00137604
3128.12	-0.698273	-0.0168549
3128.6	0.484375	1.18103e-05
3129.1	0.482666	0.000151367
3129.58	-0.00071106	0.00758362
3130.04	0.483032	1.74561e-05
3130.54	0.483154	6.06995e-05
3131.02	-0.000698853	0.00521698
3131.48	0.482697	1.94702e-05
3131.98	0.483124	4.26331e-05
3132.48	0.483521	0.0152283
3132.92	0.48291	1.5686e-05
3133.42	0.484253	2.18506e-05
3133.92	0.483948	0.00979919
3134.38	-0.697235	-0.0235504
3134.86	0.483673	1.92261e-05
3135.36	0.483124	0.00141144
3135.82	-0.699219	-0.0168671
3136.3	0.483795	1.70898e-05
3136.8	0.482758	0.000151367
3137.28	-0.000946045	0.00757446
3137.74	0.484436	8.91113e-06
3138.24	0.483368	6.05774e-05
3138.72	-0.000762939	0.00520813
3139.18	0.484253	8.69751e-06
3139.68	0.483887	3.41797e-05
3140.18	0.483734	0.0152374
3140.62	0.483429	1.33667e-05
3141.12	0.482605	3.31116e-05
3141.62	0.483551	0.0098114
3142.08	-0.698883	-0.0235535
3142.56	0.483643	2.18506e-05
3143.06	0.484375	0.00144135
3143.52	-0.699249	-0.0168884
3144	0.483643	1.58386e-05
3144.5	0.484222	0.00014267
3144.98	0.000253296	0.007547
3145.44	0.482605	2.18811e-05
3145.94	0.4841	5.71594e-05
3146.42	0.000726318	0.00519226
3146.88	0.484161	9.30786e-06
3147.38	0.483002	4.15039e-05
3147.88	0.48233	0.0152527
3148.32	0.483185	1.43127e-05
3148.82	0.482605	3.28064e-05
3149.32	0.48349	0.00983582
3149.78	-0.697968	-0.0235687
3150.26	0.484131	1.67847e-05
3150.76	0.483032	0.00149323
3151.22	-0.698975	-0.0169006
3151.7	0.483337	1.72119e-05
3152.2	0.482727	0.000155457
3152.68	-0.000927734	0.0075531
3153.14	0.483734	1.15662e-05
3153.64	0.483704	6.14624e-05
3154.12	-0.000616455	0.00519379
3154.58	0.483551	1.32446e-05
3155.08	0.483704	3.62244e-05
3155.58	0.482117	0.0152466
3156.02	0.483063	1.48621e-05
3156.52	0.484192	2.48108e-05
3157.02	0.484039	0.00984802
3157.48	-0.698212	-0.0235748
3157.96	0.484375	1.66321e-05
3158.46	0.484406	0.00153442
3158.92	-0.698669	-0.0169098
3159.4	0.482727	2.35596e-05
3159.9	0.482574	0.000156647
3160.38	-0.000744629	0.00754395
3160.84	0.483032	1.72119e-05
3161.34	0.482697	6.86035e-05
3161.82	-0.000619507	0.00518616
3162.28	0.48407	1.00403e-05
3162.78	0.482727	4.30908e-05
3163.28	0.482178	0.0152618
3163.72	0.484283	5.95093e-06
3164.22	0.484283	2.20642e-05
3164.72	0.4823	0.00986633
3165.18	-0.698853	-0.023584
3165.66	0.483948	1.61133e-05
3166.16	0.482758	0.00159119
3166.62	-0.69873	-0.0169373
3167.1	0.484344	1.16577e-05
3167.6	0.482697	0.000157074
3168.08	0.000308228	0.00753784
3168.54	0.484192	1.13525e-05
3169.04	0.483002	6.39954e-05
3169.52	-0.000628662	0.00518036
3169.98	0.483551	1.12915e-05
3170.48	0.48291	4.25415e-05
3170.98	0.483459	0.0152405
3171.42	0.484375	6.89697e-06
3171.92	0.483765	2.48413e-05
3172.42	0.483673	0.00987549
3172.88	-0.697357	-0.0235962
3173.36	0.482635	2.78625e-05
3173.86	0.48407	0.00164673
3174.32	-0.69873	-0.0169403
3174.8	0.484406	1.15662e-05
3175.3	0.483002	0.000156433
3175.78	-0.000726318	0.00751038
3176.24	0.48288	1.89209e-05
3176.74	0.483124	6.32935e-05
3177.22	-0.000756836	0.00517456
3177.68	0.482727	1.86462e-05
3178.18	0.482666	4.36401e-05
3178.68	0.482849	0.0152527
3179.12	0.483582	8.20923e-06
3179.62	0.484253	2.44141e-05
3180.12	0.482178	0.00989075
3180.58	-0.697388	-0.0236145
3181.06	0.482727	2.67944e-05
3181.56	0.482727	0.00171204
3182.02	-0.697662	-0.0169769
3182.5	0.484467	1.00403e-05
3183	0.483124	0.000157074
3183.48	-0.000213623	0.00749298
3183.94	0.483063	1.93787e-05
3184.44	0.484375	5.67017e-05
3184.92	-0.000579834	0.00516937
3185.38	0.484375	7.04956e-06
3185.88	0.482819	4.38232e-05
3186.38	0.482178	0.0152679
3186.82	0.482697	1.72729e-05
3187.32	0.483002	2.98157e-05
3187.82	0.483643	0.0098938
3188.28	-0.698639	-0.0236145
3188.76	0.484222	1.70288e-05
3189.26	0.484406	0.00176208
3189.72	-0.697784	-0.0169922
3190.2	0.483459	1.89514e-05
3190.7	0.482666	0.000161377
3191.18	0.000234985	0.00748016
3191.64	0.48288	1.88904e-05
3192.14	0.482971	6.59485e-05
3192.62	0.000549316	0.00515472
3193.08	0.483704	1.26038e-05
3193.58	0.483887	3.61328e-05
3194.08	0.482971	0.0152771
3194.52	0.482941	1.52588e-05
3195.02	0.483154	2.89001e-05
3195.52	0.483856	0.00990906
3195.98	-0.698792	-0.0236267
3196.46	0.484222	1.63269e-05
3196.96	0.483673	0.00180695
3197.42	-0.699036	-0.0170013
3197.9	0.483032	2.11182e-05
3198.4	0.483337	0.000157135
3198.88	-0.000704956	0.00748108
3199.34	0.484314	1.32141e-05
3199.84	0.482635	6.7627e-05
3200.32	0.000692749	0.00514587
3200.78	0.482788	1.81885e-05
3201.28	0.482727	4.3335e-05
3201.78	0.482056	0.015274
3202.22	0.482697	1.62964e-05
3202.72	0.483978	2.15149e-05
3203.22	0.482849	0.00993042
3203.68	-0.697479	-0.0236389
3204.16	0.483063	2.4231e-05
3204.66	0.483795	0.00186523
3205.12	-0.697693	-0.0170197
3205.6	0.48291	2.23999e-05
3206.1	0.482605	0.000167084
3206.58	-0.000848389	0.00746765
3207.04	0.483063	1.89209e-05
3207.54	0.483948	5.88989e-05
3208.02	0.0009552	0.00514008
3208.48	0.484192	8.11768e-06
3208.98	0.483765	3.66821e-05
3209.48	0.483459	0.0152771
3209.92	0.482697	1.79443e-05
3210.42	0.482697	3.31116e-05
3210.92	0.482361	0.00994263
3211.38	-0.698914	-0.0236389
3211.86	0.482635	2.59399e-05
3212.36	0.482727	0.00192719
3212.82	-0.698761	-0.0170288
3213.3	0.482727	2.29797e-05
3213.8	0.484436	0.000154297
3214.28	-0.000942993	0.00745331
3214.74	0.483521	1.45264e-05
3215.24	0.48407	6.11877e-05
3215.72	5.49316e-05	0.00513702
3216.18	0.483124	1.57776e-05
3216.68	0.483337	3.86963e-05
3217.18	0.482056	0.0152832
3217.62	0.482635	1.74561e-05
3218.12	0.484344	2.19727e-05
3218.62	0.48233	0.00996704
3219.08	-0.697174	-0.0236633
3219.56	0.483429	2.20642e-05
3220.06	0.484406	0.00200256
3220.52	-0.69931	-0.017038
3221	0.482788	2.32849e-05
3221.5	0.482758	0.00016806
3221.98	-0.000845337	0.00744232
3222.44	0.483765	1.32446e-05
3222.94	0.484406	5.99976e-05
3223.42	-0.000247192	0.0051355
3223.88	0.483795	1.10779e-05
3224.38	0.483154	4.14429e-05
3224.88	0.483154	0.0152771
3225.32	0.484222	9.27734e-06
3225.82	0.483032	3.13416e-05
3226.32	0.48407	0.00997314
3226.78	-0.697357	-0.0236725
3227.26	0.483429	2.09961e-05
3227.76	0.484314	0.00206573
3228.22	-0.699005	-0.0170624
3228.7	0.483185	2.09961e-05
3229.2	0.482727	0.000170166
3229.68	-0.000793457	0.00742798
3230.14	0.484344	1.05896e-05
3230.64	0.484375	6.0791e-05
3231.12	-0.000692749	0.00512695
3231.58	0.484161	9.70459e-06
3232.08	0.483643	3.84216e-05
3232.58	0.483307	0.015271
3233.02	0.483887	1.03455e-05
3233.52	0.482635	3.38135e-05
3234.02	0.483948	0.0099762
3234.48	-0.69809	-0.0236694
3234.96	0.483521	2.34375e-05
3235.46	0.483093	0.00215118
3235.92	-0.699188	-0.0170685
3236.4	0.484436	1.13831e-05
3236.9	0.484406	0.000159424
3237.38	0.000793457	0.00740906
3237.84	0.484283	8.72803e-06
3238.34	0.484283	6.10657e-05
3238.82	0.00071106	0.00511169
3239.28	0.482727	1.85547e-05
3239.78	0.484406	3.3905e-05
3240.28	0.483673	0.0152802
3240.72	0.484436	6.80542e-06
3241.22	0.483276	2.82898e-05
3241.72	0.4823	0.0100006
3242.18	-0.698303	-0.0236725
3242.66	0.483185	2.4292e-05
3243.16	0.483185	0.00221832
3243.62	-0.698334	-0.0170929
3244.1	0.482666	2.4292e-05
3244.6	0.483398	0.000169342
3245.08	0.000814819	0.00740326
3245.54	0.484344	9.09424e-06
3246.04	0.484406	6.05469e-05
3246.52	0.000588989	0.00510284
3246.98	0.484222	7.90405e-06
3247.48	0.484375	3.3783e-05
3247.98	0.482697	0.0152802
3248.42	0.483887	1.25122e-05
3248.92	0.483887	2.49634e-05
3249.42	0.483948	0.0100006
3249.88	-0.697906	-0.0236816
3250.36	0.483917	1.95007e-05
3250.86	0.483612	0.0022644
3251.32	-0.698273	-0.0170837
3251.8	0.483673	1.84631e-05
3252.3	0.4841	0.000164307
3252.78	0.000601196	0.00738739
3253.24	0.483673	1.47095e-05
3253.74	0.484314	6.03638e-05
3254.22	-0.000765991	0.00511078
3254.68	0.483521	1.27563e-05
3255.18	0.483154	4.41589e-05
3255.68	0.48291	0.0152863
3256.12	0.483734	1.02234e-05
3256.62	0.484131	2.67639e-05
3257.12	0.4823	0.010022
3257.58	-0.697327	-0.0237
3258.06	0.482788	2.65198e-05
3258.56	0.482635	0.00234283
3259.02	-0.699188	-0.0171112
3259.5	0.482758	2.3407e-05
3260	0.484344	0.000165009
3260.48	-0.000787354	0.007388
3260.94	0.482971	1.86768e-05
3261.44	0.483032	7.10449e-05
3261.92	0.000369263	0.00509216
3262.38	0.482727	1.87073e-05
3262.88	0.483124	4.21143e-05
3263.38	0.483276	0.0152832
3263.82	0.483765	1.12305e-05
3264.32	0.482605	3.39661e-05
3264.82	0.482391	0.0100311
3265.28	-0.697571	-0.0237152
3265.76	0.482697	2.84119e-05
3266.26	0.484131	0.00241364
3266.72	-0.699036	-0.0171295
3267.2	0.484344	1.41602e-05
3267.7	0.483032	0.000172974
3268.18	-5.18799e-05	0.00737244
3268.64	0.483551	1.53809e-05
3269.14	0.483765	6.34155e-05
3269.62	0.000939941	0.00508423
3270.08	0.484436	6.7749e-06
3270.58	0.484222	3.51562e-05
3271.08	0.482452	0.0152832
3271.52	0.483032	1.26648e-05
3272.02	0.484131	2.42004e-05
3272.52	0.483063	0.0100342
3272.98	-0.697632	-0.0237213
3273.46	0.483887	1.80359e-05
3273.96	0.484131	0.00249054
3274.42	-0.697906	-0.0171448
3274.9	0.484375	1.38245e-05
3275.4	0.482849	0.000178833
3275.88	-0.000820923	0.0073645
3276.34	0.484161	1.07117e-05
3276.84	0.482635	7.33643e-05
3277.32	-0.000836182	0.00508972
3277.78	0.482941	1.63879e-05
3278.28	0.48291	4.14429e-05
3278.78	0.482178	0.0153015
3279.22	0.484314	7.90405e-06
3279.72	0.482758	3.36304e-05
3280.22	0.482178	0.0100525
3280.68	-0.69873	-0.0237091
3281.16	0.483826	1.91956e-05
3281.66	0.482819	0.00256836
3282.12	-0.69928	-0.0171448
3282.6	0.484283	1.20239e-05
3283.1	0.484009	0.00017099
3283.58	-0.000772095	0.00735229
3284.04	0.484131	1.10779e-05
3284.54	0.483398	6.5979e-05
3285.02	-0.000689697	0.00507965
3285.48	0.484222	8.78906e-06
3285.98	0.482971	4.29382e-05
3286.48	0.483368	0.0153015
3286.92	0.484314	6.16455e-06
3287.42	0.482635	3.23486e-05
3287.92	0.483551	0.0100677
3288.38	-0.698883	-0.0237244
3288.86	0.483887	1.91345e-05
3289.36	0.484161	0.00267395
3289.82	-0.697601	-0.0171692
3290.3	0.482758	2.19727e-05
3290.8	0.484467	0.000170868
3291.28	-0.000216675	0.00733398
3291.74	0.483887	1.34277e-05
3292.24	0.483704	6.47278e-05
3292.72	-0.000689697	0.00507233
3293.18	0.484436	7.53784e-06
3293.68	0.483826	3.89709e-05
3294.18	0.483093	0.0152893
3294.62	0.482758	1.68457e-05
3295.12	0.483063	3.10059e-05
3295.62	0.484009	0.0100677
3296.08	-0.698792	-0.0237427
3296.56	0.482941	2.20032e-05
3297.06	0.483612	0.00276184
3297.52	-0.698486	-0.0171814
3298	0.482758	2.32239e-05
3298.5	0.482788	0.000184784
3298.98	0.000411987	0.00732178
3299.44	0.482697	2.16064e-05
3299.94	0.483978	6.23779e-05
3300.42	-0.000289917	0.00506165
3300.88	0.482666	1.95923e-05
3301.38	0.484375	3.41187e-05
3301.88	0.483246	0.0152985
3302.32	0.482758	1.92261e-05
3302.82	0.48291	3.31421e-05
3303.32	0.483643	0.01008
3303.78	-0.697723	-0.0237549
3304.26	0.482666	2.70691e-05
3304.76	0.484222	0.00285248
3305.22	-0.697845	-0.0172028
3305.7	0.482574	2.45667e-05
3306.2	0.484406	0.000176605
3306.68	-0.000213623	0.00731598
3307.14	0.483643	1.51062e-05
3307.64	0.483215	7.05872e-05
3308.12	-0.000534058	0.00506042
3308.58	0.482758	1.85547e-05
3309.08	0.482605	4.62646e-05
3309.58	0.482758	0.0153168
3310.02	0.48407	7.8125e-06
3310.52	0.484131	2.38953e-05
3311.02	0.483429	0.0100983
3311.48	-0.697144	-0.023764
3311.96	0.482666	2.80762e-05
3312.46	0.484467	0.00294861
3312.92	-0.697784	-0.017218
3313.4	0.483856	1.60217e-05
3313.9	0.484161	0.000178192
3314.38	0.000793457	0.00729309
3314.84	0.484344	7.8125e-06
3315.34	0.48349	7.15942e-05
3315.82	0.000335693	0.00504486
3316.28	0.484436	5.85937e-06
3316.78	0.483276	4.07715e-05
3317.28	0.483398	0.0153168
3317.72	0.484436	7.14111e-06
3318.22	0.483429	2.89001e-05
3318.72	0.482361	0.0101227
3319.18	-0.697266	-0.0237793
3319.66	0.482544	2.71912e-05
3320.16	0.483063	0.00307434
3320.62	-0.698853	-0.0172211
3321.1	0.482697	2.50244e-05
3321.6	0.484283	0.000180573
3322.08	0.00027771	0.00728485
3322.54	0.48407	1.04065e-05
3323.04	0.484344	6.31104e-05
3323.52	-0.000732422	0.00505035
3323.98	0.484039	9.85718e-06
3324.48	0.482605	4.72107e-05
3324.98	0.482819	0.0153229
3325.42	0.482758	1.84631e-05
3325.92	0.482666	3.50037e-05
3326.42	0.483704	0.0101135
3326.88	-0.69873	-0.0237793
3327.36	0.484009	1.82495e-05
3327.86	0.482727	0.00318512
3328.32	-0.698425	-0.0172516
3328.8	0.484222	1.37634e-05
3329.3	0.484039	0.00018277
3329.78	-0.000350952	0.00727844
3330.24	0.484467	9.39941e-06
3330.74	0.483307	7.22046e-05
3331.22	-0.000671387	0.00504089
3331.68	0.484344	8.48389e-06
3332.18	0.482849	4.61121e-05
3332.68	0.482361	0.0153137
3333.12	0.484009	7.59888e-06
3333.62	0.484497	2.4231e-05
3334.12	0.482269	0.010144
3334.58	-0.697296	-0.0238068
3335.06	0.483002	2.6123e-05
3335.56	0.483429	0.00327362
3336.02	-0.699127	-0.0172638
3336.5	0.483063	2.14539e-05
3337	0.484222	0.000187286
3337.48	0.000906372	0.00726288
3337.94	0.484222	1.03455e-05
3338.44	0.484039	6.64978e-05
3338.92	-0.000650024	0.0050351
3339.38	0.483002	1.42212e-05
3339.88	0.482727	4.61731e-05
3340.38	0.483368	0.0153137
3340.82	0.483002	1.70288e-05
3341.32	0.484131	2.58484e-05
3341.82	0.484009	0.0101379
3342.28	-0.697144	-0.0238037
3342.76	0.483704	2.15149e-05
3343.26	0.484375	0.00334473
3343.72	-0.697449	-0.017276
3344.2	0.483856	1.33057e-05
3344.7	0.482697	0.000197479
3345.18	0.00078125	0.00724945
3345.64	0.483398	1.70288e-05
3346.14	0.484314	6.53992e-05
3346.62	-0.000695801	0.00502899
3347.08	0.484314	8.05664e-06
3347.58	0.484467	3.63464e-05
3348.08	0.481964	0.015332
3348.52	0.48291	1.63574e-05
3349.02	0.482819	3.44543e-05
3349.52	0.483917	0.0101532
3349.98	-0.698639	-0.0238068
3350.46	0.484314	1.79138e-05
3350.96	0.484009	0.00344482
3351.42	-0.699188	-0.0172913
3351.9	0.483734	1.58691e-05
3352.4	0.4841	0.000189514
3352.88	-0.000717163	0.00724854
3353.34	0.483032	1.88599e-05
3353.84	0.482666	7.61108e-05
3354.32	-0.000653076	0.00502045
3354.78	0.483521	1.19324e-05
3355.28	0.482819	4.54712e-05
3355.78	0.483765	0.0153229
3356.22	0.482666	1.6449e-05
3356.72	0.484344	2.37122e-05
3357.22	0.483948	0.0101685
3357.68	-0.69873	-0.023819
3358.16	0.484497	1.62964e-05
3358.66	0.483612	0.00352905
3359.12	-0.698914	-0.0172913
3359.6	0.483459	1.8158e-05
3360.1	0.484222	0.000191223
3360.58	-0.000152588	0.00723328
3361.04	0.483673	1.58997e-05
3361.54	0.482635	7.87964e-05
3362.02	-0.000598145	0.0050177
3362.48	0.484283	7.59888e-06
3362.98	0.483246	4.12598e-05
3363.48	0.483398	0.0153168
3363.92	0.484253	7.2937e-06
3364.42	0.482697	3.50342e-05
3364.92	0.483856	0.0101715
3365.38	-0.69754	-0.0238281
3365.86	0.482697	2.82898e-05
3366.36	0.484192	0.00359741
3366.82	-0.697845	-0.0173248
3367.3	0.483856	1.63574e-05
3367.8	0.484161	0.000193176
3368.28	0.000335693	0.00721558
3368.74	0.482574	2.07825e-05
3369.24	0.482727	7.85522e-05
3369.72	0.000793457	0.00499695
3370.18	0.483795	1.25427e-05
3370.68	0.483337	4.00391e-05
3371.18	0.482208	0.0153259
3371.62	0.483337	1.44958e-05
3372.12	0.482635	3.59802e-05
3372.62	0.482544	0.010202
3373.08	-0.698578	-0.0238251
3373.56	0.484283	1.74866e-05
3374.06	0.484406	0.00368347
3374.52	-0.69754	-0.0173279
3375	0.482666	2.45667e-05
3375.5	0.484375	0.000194733
3375.98	0.000830078	0.00720428
3376.44	0.482819	2.09961e-05
3376.94	0.484528	6.69556e-05
3377.42	0.000973511	0.00499237
3377.88	0.484375	8.14819e-06
3378.38	0.483643	4.20532e-05
3378.88	0.482788	0.015332
3379.32	0.482605	1.90735e-05
3379.82	0.483704	2.73743e-05
3380.32	0.483368	0.0101929
3380.78	-0.697205	-0.0238434
3381.26	0.483551	2.11792e-05
3381.76	0.484009	0.00376007
3382.22	-0.69873	-0.0173279
3382.7	0.482666	2.55127e-05
3383.2	0.482788	0.000205963
3383.68	0.000692749	0.00719208
3384.14	0.484467	9.64355e-06
3384.64	0.484222	6.91528e-05
3385.12	-0.000704956	0.00499268
3385.58	0.484344	8.66699e-06
3386.08	0.482788	4.62036e-05
3386.58	0.483521	0.015332
3387.02	0.483215	1.37329e-05
3387.52	0.484314	2.36816e-05
3388.02	0.482605	0.0102112
3388.48	-0.698395	-0.0238495
3388.96	0.484406	1.69983e-05
3389.46	0.482758	0.00381714
3389.92	-0.698334	-0.0173553
3390.4	0.483185	2.11182e-05
3390.9	0.482727	0.000209137
3391.38	-0.000366211	0.00718781
3391.84	0.484222	1.08948e-05
3392.34	0.482971	7.90405e-05
3392.82	-0.000714111	0.00498352
3393.28	0.483551	1.32141e-05
3393.78	0.484314	3.79028e-05
3394.28	0.483215	0.0153381
3394.72	0.482849	1.59302e-05
3395.22	0.484192	2.52686e-05
3395.72	0.482391	0.0102203
3396.18	-0.698059	-0.0238556
3396.66	0.482941	2.59399e-05
3397.16	0.483246	0.00388489
3397.62	-0.697632	-0.0173676
3398.1	0.484406	1.26343e-05
3398.6	0.484283	0.000199585
3399.08	-0.000177002	0.00718231
3399.54	0.482727	2.22778e-05
3400.04	0.483337	7.3761e-05
3400.52	0.000622559	0.00497223
3400.98	0.483734	1.13831e-05
3401.48	0.483185	4.53186e-05
3401.98	0.481903	0.0153412
3402.42	0.482971	1.60522e-05
3402.92	0.482819	3.41187e-05
3403.42	0.483917	0.0102264
3403.88	-0.698608	-0.0238525
3404.36	0.484375	1.61438e-05
3404.86	0.482941	0.003974
3405.32	-0.698029	-0.0173767
3405.8	0.482849	2.11487e-05
3406.3	0.483032	0.000212555
3406.78	-0.000827026	0.0071701
3407.24	0.483246	1.78833e-05
3407.74	0.484009	7.24487e-05
3408.22	0.000802612	0.00496216
3408.68	0.482758	1.8219e-05
3409.18	0.482697	4.88281e-05
3409.68	0.483215	0.0153412
3410.12	0.482605	1.81885e-05
3410.62	0.483643	2.74353e-05
3411.12	0.483704	0.0102325
3411.58	-0.698334	-0.0238586
3412.06	0.482727	2.79846e-05
3412.56	0.482819	0.00405273
3413.02	-0.697632	-0.0173981
3413.5	0.483337	2.05383e-05
3414	0.483582	0.000210876
3414.48	-0.000570679	0.00715637
3414.94	0.48288	2.15149e-05
3415.44	0.484314	6.86646e-05
3415.92	-0.000558472	0.00496857
3416.38	0.483795	9.82666e-06
3416.88	0.482758	4.87366e-05
3417.38	0.483154	0.0153351
3417.82	0.483368	1.47095e-05
3418.32	0.482605	3.63464e-05
3418.82	0.483276	0.01026
3419.28	-0.698914	-0.0238739
3419.76	0.482544	2.89001e-05
3420.26	0.482849	0.00412964
3420.72	-0.697601	-0.0174103
3421.2	0.484192	1.34888e-05
3421.7	0.484314	0.000207062
3422.18	-0.000772095	0.00715302
3422.64	0.483826	1.26648e-05
3423.14	0.483276	7.57141e-05
3423.62	-0.000650024	0.00495789
3424.08	0.484161	8.97217e-06
3424.58	0.483063	4.51355e-05
3425.08	0.483551	0.015332
3425.52	0.4841	1.14441e-05
3426.02	0.482666	3.6438e-05
3426.52	0.483124	0.0102509
3426.98	-0.698212	-0.0238831
3427.46	0.48291	2.78015e-05
3427.96	0.484314	0.00418121
3428.42	-0.697601	-0.0174286
3428.9	0.483734	1.76697e-05
3429.4	0.484406	0.000208344
3429.88	-0.000827026	0.00713745
3430.34	0.484009	1.15356e-05
3430.84	0.484406	6.97632e-05
3431.32	0.00065918	0.00494324
3431.78	0.482635	1.96838e-05
3432.28	0.482941	4.62952e-05
3432.78	0.482239	0.0153564
3433.22	0.483032	1.68457e-05
3433.72	0.482605	3.6377e-05
3434.22	0.482758	0.0102783
3434.68	-0.697113	-0.0238922
3435.16	0.483246	2.71912e-05
3435.66	0.483032	0.00423981
3436.12	-0.698547	-0.0174255
3436.6	0.48288	2.45056e-05
3437.1	0.483154	0.000219788
3437.58	0.000933838	0.00711792
3438.04	0.483765	1.51672e-05
3438.54	0.482697	8.23059e-05
3439.02	-0.000585937	0.00494934
3439.48	0.482666	1.94702e-05
3439.98	0.482727	4.88892e-05
3440.48	0.483185	0.0153473
3440.92	0.482605	1.84326e-05
3441.42	0.483551	2.97241e-05
3441.92	0.482574	0.0102783
3442.38	-0.698395	-0.0239014
3442.86	0.484009	1.9104e-05
3443.36	0.483063	0.00431061
3443.82	-0.698975	-0.0174469
3444.3	0.483459	1.86157e-05
3444.8	0.482971	0.000223206
3445.28	-0.000805664	0.00711731
3445.74	0.483826	1.61743e-05
3446.24	0.484406	7.1106e-05
3446.72	-0.000738525	0.00494263
3447.18	0.48288	1.98975e-05
3447.68	0.483612	3.99475e-05
3448.18	0.48233	0.0153503
3448.62	0.483856	9.27734e-06
3449.12	0.484406	2.21252e-05
3449.62	0.483459	0.0102814
3450.08	-0.697906	-0.0238983
3450.56	0.482605	3.0365e-05
3451.06	0.482727	0.00436279
3451.52	-0.697632	-0.0174652
3452	0.484192	1.52588e-05
3452.5	0.482758	0.000226807
3452.98	0.000878906	0.0070929
3453.44	0.482849	2.23083e-05
3453.94	0.482971	7.96814e-05
3454.42	0.00071106	0.00492981
3454.88	0.483734	1.32446e-05
3455.38	0.484253	3.84827e-05
3455.88	0.482544	0.0153442
3456.32	0.48288	1.74866e-05
3456.82	0.484375	2.51465e-05
3457.32	0.482971	0.0102966
3457.78	-0.697205	-0.0239197
3458.26	0.48288	2.82288e-05
3458.76	0.483246	0.00442688
3459.22	-0.697784	-0.0174774
3459.7	0.484344	1.5564e-05
3460.2	0.484375	0.000218231
3460.68	-0.000747681	0.00709351
3461.14	0.482758	1.84631e-05
3461.64	0.482697	8.18481e-05
3462.12	0.000897217	0.00491608
3462.58	0.48288	1.84937e-05
3463.08	0.484344	3.72009e-05
3463.58	0.483093	0.0153442
3464.02	0.482727	1.828e-05
3464.52	0.484039	2.49634e-05
3465.02	0.4823	0.0103149
3465.48	-0.697388	-0.0239227
3465.96	0.482727	3.00293e-05
3466.46	0.483704	0.0044519
3466.92	-0.699249	-0.0174744
3467.4	0.483948	1.51978e-05
3467.9	0.483734	0.000224884
3468.38	0.000631714	0.00707153
3468.84	0.48291	1.97754e-05
3469.34	0.484314	7.45544e-05
3469.82	0.000402832	0.00490845
3470.28	0.482758	2.01721e-05
3470.78	0.483429	4.31519e-05
3471.28	0.482147	0.0153564
3471.72	0.482758	1.79443e-05
3472.22	0.4841	2.48108e-05
3472.72	0.482269	0.0103149
3473.18	-0.697662	-0.0239288
3473.66	0.482666	2.96326e-05
3474.16	0.482727	0.0045166
3474.62	-0.699188	-0.0174805
3475.1	0.482849	2.4353e-05
3475.6	0.483948	0.000227203
3476.08	0.00032959	0.00706787
3476.54	0.483185	2.14539e-05
3477.04	0.483948	7.44629e-05
3477.52	4.57764e-05	0.00490601
3477.98	0.484406	7.44629e-06
3478.48	0.482941	4.84314e-05
3478.98	0.483673	0.0153595
3479.42	0.48291	1.70593e-05
3479.92	0.484131	2.67334e-05
3480.42	0.483856	0.0103271
3480.88	-0.698853	-0.0239258
3481.36	0.482605	2.78625e-05
3481.86	0.482849	0.00457794
3482.32	-0.699158	-0.0174957
3482.8	0.482849	2.27356e-05
3483.3	0.483887	0.000229034
3483.78	-0.000314331	0.00705933
3484.24	0.483521	1.6571e-05
3484.74	0.482666	8.48694e-05
3485.22	-0.00078125	0.00490631
3485.68	0.484039	1.05286e-05
3486.18	0.483337	4.80347e-05
3486.68	0.482758	0.0153442
3487.12	0.483826	8.94165e-06
3487.62	0.482697	3.51868e-05
3488.12	0.483337	0.0103455
3488.58	-0.697174	-0.0239563
3489.06	0.483856	2.18811e-05
3489.56	0.484222	0.00462494
3490.02	-0.698792	-0.0175201
3490.5	0.483673	1.61743e-05
3491	0.482635	0.000241058
3491.48	-0.000790405	0.00704956
3491.94	0.4841	1.17798e-05
3492.44	0.482727	8.5907e-05
3492.92	0.000512695	0.00488953
3493.38	0.48288	2.14539e-05
3493.88	0.483002	4.79126e-05
3494.38	0.482056	0.0153656
3494.82	0.484314	7.14111e-06
3495.32	0.48349	3.01208e-05
3495.82	0.483368	0.0103424
3496.28	-0.697418	-0.0239502
3496.76	0.482758	2.93884e-05
3497.26	0.484192	0.00468475
3497.72	-0.699188	-0.0175201
3498.2	0.484314	1.14441e-05
3498.7	0.483551	0.000237183
3499.18	-0.000512695	0.00703644
3499.64	0.483368	1.60522e-05
3500.14	0.482849	8.40149e-05
3500.62	0.000701904	0.00488007
3501.08	0.483429	1.60828e-05
3501.58	0.484375	3.88489e-05
3502.08	0.48233	0.0153687
3502.52	0.48407	8.69751e-06
3503.02	0.483765	3.13416e-05
3503.52	0.483124	0.0103516
3503.98	-0.698608	-0.0239594
3504.46	0.484344	1.67847e-05
3504.96	0.48407	0.00472565
3505.42	-0.697632	-0.0175476
3505.9	0.484131	1.67847e-05
3506.4	0.4841	0.000235413
3506.88	0.000982666	0.00701721
3507.34	0.483673	1.52893e-05
3507.84	0.482758	8.70056e-05
3508.32	7.62939e-05	0.00488251
3508.78	0.483887	1.18713e-05
3509.28	0.483246	4.73328e-05
3509.78	0.481934	0.0153595
3510.22	0.484467	5.67627e-06
3510.72	0.482727	3.61938e-05
3511.22	0.483887	0.0103607
3511.68	-0.698853	-0.0239594
3512.16	0.482697	2.99988e-05
3512.66	0.484039	0.00476532
3513.12	-0.698578	-0.0175598
3513.6	0.483154	2.0813e-05
3514.1	0.484039	0.000238525
3514.58	0.00072937	0.007005
3515.04	0.484161	1.37024e-05
3515.54	0.4841	7.74536e-05
3516.02	0.00088501	0.00486877
3516.48	0.48407	1.06201e-05
3516.98	0.484344	3.93372e-05
3517.48	0.4823	0.0153717
3517.92	0.483643	9.18579e-06
3518.42	0.484375	2.63062e-05
3518.92	0.48291	0.0103729
3519.38	-0.698517	-0.0239624
3519.86	0.482635	3.16772e-05
3520.36	0.484009	0.00481262
3520.82	-0.698059	-0.0175781
3521.3	0.484131	1.58386e-05
3521.8	0.48407	0.000240265
3522.28	0.000738525	0.0069931
3522.74	0.484314	1.04065e-05
3523.24	0.484375	7.53479e-05
3523.72	0.000302124	0.00486847
3524.18	0.48349	1.23901e-05
3524.68	0.483276	4.96521e-05
3525.18	0.481995	0.0153595
3525.62	0.482697	1.95923e-05
3526.12	0.484192	2.60315e-05
3526.62	0.483002	0.0103729
3527.08	-0.69754	-0.0239838
3527.56	0.482666	2.88086e-05
3528.06	0.48291	0.00485748
3528.52	-0.697632	-0.0175751
3529	0.483368	1.91956e-05
3529.5	0.483521	0.000250244
3529.98	-0.0003479	0.00699799
3530.44	0.483429	1.88599e-05
3530.94	0.483368	7.95593e-05
3531.42	-0.00012207	0.00485901
3531.88	0.484161	1.1322e-05
3532.38	0.482697	5.09033e-05
3532.88	0.483215	0.0153625
3533.32	0.482605	1.95923e-05
3533.82	0.484192	2.71301e-05
3534.32	0.482666	0.0103973
3534.78	-0.697693	-0.0239807
3535.26	0.483948	2.30103e-05
3535.76	0.483002	0.00490509
3536.22	-0.698883	-0.0175903
3536.7	0.483276	2.23389e-05
3537.2	0.483673	0.000251038
3537.68	0.000112915	0.00697601
3538.14	0.482788	1.9043e-05
3538.64	0.482819	8.75244e-05
3539.12	0.000524902	0.00485077
3539.58	0.483734	1.24817e-05
3540.08	0.483948	4.19006e-05
3540.58	0.482574	0.0153534
3541.02	0.484344	8.39233e-06
3541.52	0.483612	3.01514e-05
3542.02	0.483826	0.0103943
3542.48	-0.698547	-0.0239807
3542.96	0.483459	2.54517e-05
3543.46	0.483551	0.00494781
3543.92	-0.699188	-0.0175934
3544.4	0.484283	1.46179e-05
3544.9	0.484344	0.000248322
3545.38	0.000802612	0.00696198
3545.84	0.484406	1.0498e-05
3546.34	0.484039	7.87048e-05
3546.82	-0.00067749	0.0048465
3547.28	0.483276	1.50146e-05
3547.78	0.482941	4.64783e-05
3548.28	0.482239	0.0153564
3548.72	0.484009	9.8877e-06
3549.22	0.484009	2.63062e-05
3549.72	0.483612	0.0103943
3550.18	-0.697327	-0.023999
3550.66	0.482605	2.94495e-05
3551.16	0.482849	0.0049823
3551.62	-0.698212	-0.0176025
3552.1	0.482941	2.36511e-05
3552.6	0.484467	0.000249786
3553.08	0.000335693	0.00696167
3553.54	0.484406	1.16272e-05
3554.04	0.48288	8.86536e-05
3554.52	0.000473022	0.00483856
3554.98	0.484497	8.23975e-06
3555.48	0.484192	4.22363e-05
3555.98	0.483704	0.0153595
3556.42	0.48288	1.69067e-05
3556.92	0.484161	2.7771e-05
3557.42	0.482391	0.0104065
3557.88	-0.697418	-0.0240021
3558.36	0.482727	2.88391e-05
3558.86	0.483521	0.00501404
3559.32	-0.697998	-0.0176239
3559.8	0.482971	2.56348e-05
3560.3	0.483582	0.000257965
3560.78	0.000524902	0.0069458
3561.24	0.484283	1.1322e-05
3561.74	0.483795	8.37097e-05
3562.22	-0.000570679	0.00483765
3562.68	0.482788	1.92871e-05
3563.18	0.483215	4.69971e-05
3563.68	0.482025	0.0153656
3564.12	0.484161	8.69751e-06
3564.62	0.482635	3.8269e-05
3565.12	0.483826	0.0104156
3565.58	-0.697021	-0.023999
3566.06	0.482758	3.00293e-05
3566.56	0.482758	0.00505249
3567.02	-0.698181	-0.0176239
3567.5	0.484253	1.49231e-05
3568	0.483063	0.000263763
3568.48	0.000787354	0.00693176
3568.94	0.484344	9.94873e-06
3569.44	0.483154	8.89893e-05
3569.92	0.00103149	0.00481995
3570.38	0.483154	1.60522e-05
3570.88	0.483215	5.04761e-05
3571.38	0.483521	0.0153534
3571.82	0.482666	1.94702e-05
3572.32	0.482697	3.61633e-05
3572.82	0.48288	0.010437
3573.28	-0.697235	-0.0240051
3573.76	0.483917	2.15759e-05
3574.26	0.483582	0.00507935
3574.72	-0.698425	-0.0176331
3575.2	0.484222	1.49536e-05
3575.7	0.483704	0.000264832
3576.18	2.74658e-05	0.00692963
3576.64	0.483093	1.7334e-05
3577.14	0.484192	8.32214e-05
3577.62	0.0009552	0.00480988
3578.08	0.483276	1.64185e-05
3578.58	0.482788	5.19104e-05
3579.08	0.483398	0.0153503
3579.52	0.483032	1.27563e-05
3580.02	0.483246	3.302e-05
3580.52	0.483643	0.0104279
3580.98	-0.6987	-0.023999
3581.46	0.48407	2.11792e-05
3581.96	0.484222	0.00511505
3582.42	-0.697723	-0.0176575
3582.9	0.484375	1.33057e-05
3583.4	0.484192	0.00026236
3583.88	-0.000732422	0.00692078
3584.34	0.483429	2.05078e-05
3584.84	0.484253	8.14514e-05
3585.32	-0.000323486	0.00481323
3585.78	0.483734	1.12e-05
3586.28	0.483124	5.00488e-05
3586.78	0.483673	0.0153595
3587.22	0.483948	9.49097e-06
3587.72	0.48407	2.89001e-05
3588.22	0.483582	0.0104431
3588.68	-0.697388	-0.0240234
3589.16	0.482574	3.02124e-05
3589.66	0.483582	0.00515167
3590.12	-0.699127	-0.0176483
3590.6	0.483063	2.24304e-05
3591.1	0.482727	0.000272797
3591.58	0.000393677	0.00690369
3592.04	0.48288	2.11182e-05
3592.54	0.483521	8.46863e-05
3593.02	0.000585937	0.0047998
3593.48	0.484314	7.01904e-06
3593.98	0.483368	4.57764e-05
3594.48	0.482513	0.0153595
3594.92	0.483795	1.01624e-05
3595.42	0.482941	3.74451e-05
3595.92	0.482513	0.0104553
3596.38	-0.698059	-0.0240143
3596.86	0.482666	2.95105e-05
3597.36	0.482697	0.00517792
3597.82	-0.699036	-0.0176666
3598.3	0.482849	2.51465e-05
3598.8	0.484192	0.00026474
3599.28	0.0009552	0.0068927
3599.74	0.483521	1.5625e-05
3600.24	0.482819	9.22241e-05
3600.72	-0.00078125	0.00480377
3601.18	0.484039	9.49097e-06
3601.68	0.484283	4.08936e-05
3602.18	0.483337	0.0153564
3602.62	0.483643	8.88062e-06
3603.12	0.483948	2.91443e-05
3603.62	0.483643	0.0104584
3604.08	-0.697388	-0.0240265
3604.56	0.484314	1.88599e-05
3605.06	0.482422	0.00521393
3605.52	-0.699158	-0.0176758
3606	0.484192	1.55029e-05
3606.5	0.483704	0.000273712
3606.98	-5.49316e-05	0.00688873
3607.44	0.484375	1.12305e-05
3607.94	0.484161	8.20313e-05
3608.42	0.000656128	0.00478699
3608.88	0.484436	8.54492e-06
3609.38	0.484222	4.1626e-05
3609.88	0.482941	0.0153595
3610.32	0.483948	9.49097e-06
3610.82	0.482666	3.74756e-05
3611.32	0.483215	0.0104797
3611.78	-0.697357	-0.0240356
3612.26	0.482635	3.06091e-05
3612.76	0.484222	0.00524506
3613.22	-0.698853	-0.0177094
3613.7	0.483337	1.94702e-05
3614.2	0.482819	0.000281952
3614.68	-0.000183105	0.00687469
3615.14	0.482788	2.19116e-05
3615.64	0.482788	9.30786e-05
3616.12	-0.000680542	0.00478943
3616.58	0.482697	2.07825e-05
3617.08	0.483002	5.05371e-05
3617.58	0.482788	0.0153656
3618.02	0.483154	1.51062e-05
3618.52	0.482513	3.73535e-05
3619.02	0.482422	0.0104858
3619.48	-0.697144	-0.0240356
3619.96	0.483887	2.00806e-05
3620.46	0.483551	0.00526947
3620.92	-0.699219	-0.0177002
3621.4	0.484314	1.46484e-05
3621.9	0.483002	0.000282288
3622.38	-0.000750732	0.00687408
3622.84	0.483154	2.01416e-05
3623.34	0.483002	8.88062e-05
3623.82	0.000619507	0.00478333
3624.28	0.482727	2.1637e-05
3624.78	0.482941	5.22461e-05
3625.28	0.482697	0.0153717
3625.72	0.483765	1.22375e-05
3626.22	0.483856	2.90527e-05
3626.72	0.482483	0.0104889
3627.18	-0.69751	-0.0240417
3627.66	0.483826	2.19116e-05
3628.16	0.482758	0.00531036
3628.62	-0.698975	-0.0177094
3629.1	0.484406	1.40076e-05
3629.6	0.483734	0.000282135
3630.08	-0.000543213	0.00685913
3630.54	0.484406	1.21765e-05
3631.04	0.48349	8.71277e-05
3631.52	-0.000585937	0.00477814
3631.98	0.482544	2.13013e-05
3632.48	0.483246	4.83398e-05
3632.98	0.482056	0.0153625
3633.42	0.484314	8.48389e-06
3633.92	0.482697	3.89709e-05
3634.42	0.483368	0.0105072
3634.88	-0.698639	-0.0240509
3635.36	0.484253	1.953125E-05
3635.86	0.484161	0.00533264
3636.32	-0.697601	-0.0177338
3636.8	0.484436	1.34277e-05
3637.3	0.483063	0.000288696
3637.78	0.000805664	0.00684662
3638.24	0.484436	1.15356e-05
3638.74	0.483429	9.021e-05
3639.22	0.000570679	0.00476685
3639.68	0.482819	1.9043e-05
3640.18	0.484009	4.58069e-05
3640.68	0.483551	0.0153625
3641.12	0.48291	1.9165e-05
3641.62	0.484192	2.65503e-05
3642.12	0.483856	0.0105042
3642.58	-0.697083	-0.0240692
3643.06	0.482666	2.74353e-05
3643.56	0.483154	0.00538239
3644.02	-0.698822	-0.017749
3644.5	0.482758	2.6001e-05
3645	0.483063	0.000294586
3645.48	0.000405884	0.00684113
3645.94	0.48349	1.68457e-05
3646.44	0.482697	9.57336e-05
3646.92	0.000332642	0.00476105
3647.38	0.484344	9.00269e-06
3647.88	0.48288	4.96216e-05
3648.38	0.483063	0.0153717
3648.82	0.482971	1.67542e-05
3649.32	0.483582	3.43628e-05
3649.82	0.482208	0.0105255
3650.28	-0.697266	-0.0240814
3650.76	0.483948	2.1637e-05
3651.26	0.48288	0.00541779
3651.72	-0.697784	-0.0177673
3652.2	0.482758	2.44446e-05
3652.7	0.484314	0.000286346
3653.18	0.000860596	0.00682861
3653.64	0.483521	1.72729e-05
3654.14	0.483368	8.85315e-05
3654.62	0.00103455	0.00475739
3655.08	0.483917	1.07117e-05
3655.58	0.483337	4.82178e-05
3656.08	0.483612	0.0153748
3656.52	0.484009	1.05896e-05
3657.02	0.482697	3.9032e-05
3657.52	0.483612	0.0105286
3657.98	-0.697144	-0.0240875
3658.46	0.483795	2.5238e-05
3658.96	0.482697	0.00544586
3659.42	-0.699158	-0.0177826
3659.9	0.48288	2.46887e-05
3660.4	0.483978	0.000288391
3660.88	-0.000222778	0.00681671
3661.34	0.483856	1.38245e-05
3661.84	0.48291	9.57336e-05
3662.32	-0.000585937	0.00475861
3662.78	0.483154	1.86157e-05
3663.28	0.483948	4.55627e-05
3663.78	0.482483	0.01539
3664.22	0.483673	8.66699e-06
3664.72	0.484314	2.86865e-05
3665.22	0.482086	0.0105377
3665.68	-0.697632	-0.0240845
3666.16	0.484161	2.1637e-05
3666.66	0.482544	0.00548584
3667.12	-0.697662	-0.0178009
3667.6	0.483582	1.90735e-05
3668.1	0.483643	0.000297882
3668.58	0.000796509	0.00680328
3669.04	0.484161	1.05896e-05
3669.54	0.484375	8.61206e-05
3670.02	0.000350952	0.00474213
3670.48	0.483734	1.34888e-05
3670.98	0.484314	4.30298e-05
3671.48	0.482422	0.01539
3671.92	0.484406	5.7373e-06
3672.42	0.484131	2.96936e-05
3672.92	0.48233	0.0105469
3673.38	-0.697052	-0.0240997
3673.86	0.48291	3.13416e-05
3674.36	0.482544	0.00550568
3674.82	-0.698364	-0.0177948
3675.3	0.483643	2.20337e-05
3675.8	0.482819	0.000304901
3676.28	0.000479126	0.00680298
3676.74	0.482635	2.2522e-05
3677.24	0.483154	9.48486e-05
3677.72	-0.000628662	0.00474365
3678.18	0.483063	1.80359e-05
3678.68	0.483551	4.80347e-05
3679.18	0.482391	0.0153809
3679.62	0.483368	1.30005e-05
3680.12	0.482666	3.68652e-05
3680.62	0.482239	0.0105591
3681.08	-0.697021	-0.0240906
3681.56	0.482666	3.09448e-05
3682.06	0.48407	0.00551361
3682.52	-0.698944	-0.0178009
3683	0.484283	1.55029e-05
3683.5	0.4841	0.000299469
3683.98	6.10352e-06	0.00679565
3684.44	0.484344	1.3092e-05
3684.94	0.483673	9.2926e-05
3685.42	-0.000793457	0.0047403
3685.88	0.484192	1.1322e-05
3686.38	0.484009	4.21753e-05
3686.88	0.482697	0.0153931
3687.32	0.482727	1.87073e-05
3687.82	0.483643	3.16162e-05
3688.32	0.483093	0.0105652
3688.78	-0.698853	-0.0240967
3689.26	0.483246	2.73743e-05
3689.76	0.482635	0.00554657
3690.22	-0.69928	-0.0178162
3690.7	0.484039	1.651e-05
3691.2	0.484222	0.000299622
3691.68	0.000967407	0.00677948
3692.14	0.484344	1.19934e-05
3692.64	0.483673	9.47571e-05
3693.12	0.00022583	0.00473389
3693.58	0.4841	1.06506e-05
3694.08	0.483856	4.75159e-05
3694.58	0.483246	0.0153778
3695.02	0.483063	1.55334e-05
3695.52	0.484344	2.57874e-05
3696.02	0.483246	0.0105682
3696.48	-0.697784	-0.0241058
3696.96	0.482941	2.78625e-05
3697.46	0.483582	0.00557373
3697.92	-0.699188	-0.0178314
3698.4	0.483398	2.06909e-05
3698.9	0.483398	0.000308807
3699.38	0.000848389	0.00676605
3699.84	0.482758	2.36816e-05
3700.34	0.483704	9.35974e-05
3700.82	0.000268555	0.00472321
3701.28	0.483856	1.42822e-05
3701.78	0.483643	4.75159e-05
3702.28	0.481995	0.0153992
3702.72	0.484253	7.32422e-06
3703.22	0.483215	3.39355e-05
3703.72	0.482727	0.0105682
3704.18	-0.698822	-0.0241119
3704.66	0.484375	1.95007e-05
3705.16	0.482605	0.00561127
3705.62	-0.698364	-0.0178589
3706.1	0.483917	1.66016e-05
3706.6	0.484314	0.000308563
3707.08	0.000848389	0.00675781
3707.54	0.484375	1.02844e-05
3708.04	0.484009	9.2804e-05
3708.52	-0.000723267	0.00471924
3708.98	0.482758	2.0874e-05
3709.48	0.4841	4.45862e-05
3709.98	0.483734	0.015387
3710.42	0.483765	1.31226e-05
3710.92	0.482727	3.8269e-05
3711.42	0.483429	0.0105743
3711.88	-0.69754	-0.024115
3712.36	0.482635	3.02734e-05
3712.86	0.482544	0.00563934
3713.32	-0.697906	-0.0178711
3713.8	0.482635	2.49329e-05
3714.3	0.483734	0.00031662
3714.78	-0.000799561	0.00675598
3715.24	0.482788	2.31323e-05
3715.74	0.483673	9.41467e-05
3716.22	0.000820923	0.00470703
3716.68	0.484009	1.26648e-05
3717.18	0.482697	5.53589e-05
3717.68	0.48349	0.0153748
3718.12	0.483063	1.58691e-05
3718.62	0.483307	3.2135e-05
3719.12	0.48233	0.0106049
3719.58	-0.697205	-0.0241241
3720.06	0.484131	1.85852e-05
3720.56	0.484253	0.00565796
3721.02	-0.698334	-0.0178864
3721.5	0.484283	1.59302e-05
3722	0.483185	0.000324829
3722.48	-8.8501e-05	0.00674561
3722.94	0.482666	2.28882e-05
3723.44	0.48407	9.16748e-05
3723.92	0.000942993	0.00470093
3724.38	0.483887	1.28174e-05
3724.88	0.482697	5.68542e-05
3725.38	0.482727	0.0153961
3725.82	0.483459	1.40991e-05
3726.32	0.484039	2.92053e-05
3726.82	0.48349	0.0106018
3727.28	-0.697845	-0.0241302
3727.76	0.483948	2.19727e-05
3728.26	0.482697	0.00569153
3728.72	-0.698761	-0.0178772
3729.2	0.482666	2.53601e-05
3729.7	0.483307	0.000324951
3730.18	-0.000738525	0.00673828
3730.64	0.483704	1.70288e-05
3731.14	0.484253	8.99963e-05
3731.62	0.00101624	0.00469421
3732.08	0.48291	1.99585e-05
3732.58	0.483521	5.13916e-05
3733.08	0.482422	0.0153992
3733.52	0.483948	1.10168e-05
3734.02	0.482788	3.90015e-05
3734.24	0.483124	1.41907e-05