File: Edgar/20240531/20240531/electrodeposition_pulsed_potential_20240531_A/pulses_5000_to_6000.txt
Time (s)	WE(1).Potential (V)	WE(1).Current (A)
3747.02	-0.697571	-0.0240662
3747.5	0.482666	2.52686e-05
3748	0.484161	0.00534027
3748.46	-0.698883	-0.017926
3748.94	0.484344	1.44043e-05
3749.44	0.484253	0.000311981
3749.92	-0.000100708	0.00668152
3750.38	0.48407	1.38855e-05
3750.88	0.482666	0.000103302
3751.36	0.000741577	0.00464142
3751.82	0.48349	1.54114e-05
3752.32	0.483307	5.48096e-05
3752.82	0.482086	0.0153656
3753.26	0.4841	9.42993e-06
3753.76	0.484406	2.71912e-05
3754.26	0.482269	0.0105957
3754.72	-0.698517	-0.0241272
3755.2	0.482666	3.06396e-05
3755.7	0.483704	0.00564362
3756.16	-0.698273	-0.0179199
3756.64	0.483765	2.02026e-05
3757.14	0.482697	0.000333252
3757.62	0.000640869	0.00669006
3758.08	0.483002	2.0752e-05
3758.58	0.483551	9.48486e-05
3759.06	0.000808716	0.00465851
3759.52	0.484344	8.97217e-06
3760.02	0.484314	4.39453e-05
3760.52	0.482849	0.0153809
3760.96	0.482971	1.86768e-05
3761.46	0.484222	2.75574e-05
3761.96	0.482208	0.010611
3762.42	-0.69873	-0.0241425
3762.9	0.484192	2.04163e-05
3763.4	0.484161	0.00569855
3763.86	-0.698059	-0.0179382
3764.34	0.483185	2.32544e-05
3764.84	0.484161	0.000325897
3765.32	-0.000915527	0.00669373
3765.78	0.484009	1.59607e-05
3766.28	0.482697	0.000106384
3766.76	-0.000762939	0.00466614
3767.22	0.48407	1.11084e-05
3767.72	0.482849	5.53284e-05
3768.22	0.482483	0.0153839
3768.66	0.484344	7.72095e-06
3769.16	0.483276	3.55225e-05
3769.66	0.483429	0.0106201
3770.12	-0.698822	-0.0241516
3770.6	0.483124	2.78931e-05
3771.1	0.482727	0.00575775
3771.56	-0.697845	-0.0179565
3772.04	0.482635	2.62146e-05
3772.54	0.484436	0.00033078
3773.02	-0.000177002	0.00669037
3773.48	0.484192	1.32751e-05
3773.98	0.484009	9.77173e-05
3774.46	0.000250244	0.00466064
3774.92	0.482819	1.96838e-05
3775.42	0.483185	5.29175e-05
3775.92	0.483032	0.0153748
3776.36	0.484497	6.56128e-06
3776.86	0.483612	3.302e-05
3777.36	0.483246	0.0106384
3777.82	-0.697144	-0.0241791
3778.3	0.48349	2.74658e-05
3778.8	0.483032	0.00578156
3779.26	-0.698425	-0.0179535
3779.74	0.483948	1.76392e-05
3780.24	0.484436	0.000336487
3780.72	-5.49316e-05	0.00667725
3781.18	0.482666	2.16675e-05
3781.68	0.483246	0.000103088
3782.16	0.000238037	0.00464966
3782.62	0.482788	1.92871e-05
3783.12	0.482727	5.74646e-05
3783.62	0.482025	0.01539
3784.06	0.48291	1.98059e-05
3784.56	0.484314	2.84424e-05
3785.06	0.483246	0.0106262
3785.52	-0.697113	-0.024176
3786	0.484344	2.07214e-05
3786.5	0.483765	0.00582031
3786.96	-0.697906	-0.01796875
3787.44	0.483643	1.9928e-05
3787.94	0.482849	0.00034906
3788.42	0.000692749	0.00665924
3788.88	0.48288	2.06604e-05
3789.38	0.483521	0.000102386
3789.86	-0.000195313	0.00465179
3790.32	0.483429	1.15662e-05
3790.82	0.48291	5.70679e-05
3791.32	0.482819	0.0153778
3791.76	0.483582	1.17493e-05
3792.26	0.484406	2.771e-05
3792.76	0.482178	0.0106476
3793.22	-0.697693	-0.0241821
3793.7	0.482849	3.17078e-05
3794.2	0.483826	0.00584259
3794.66	-0.699005	-0.0179749
3795.14	0.483246	2.23083e-05
3795.64	0.483215	0.000351532
3796.12	0.00010376	0.00665497
3796.58	0.484253	9.765625E-06
3797.08	0.483856	9.89075e-05
3797.56	0.000894165	0.00463806
3798.02	0.482605	2.07825e-05
3798.52	0.482758	5.70374e-05
3799.02	0.482239	0.0154053
3799.46	0.484039	9.8877e-06
3799.96	0.483765	3.49121e-05
3800.46	0.484039	0.0106537
3800.92	-0.698547	-0.024176
3801.4	0.483612	2.49634e-05
3801.9	0.483917	0.00586884
3802.36	-0.69928	-0.017981
3802.84	0.483887	1.89209e-05
3803.34	0.483124	0.000355011
3803.82	-0.000274658	0.00664795
3804.28	0.482727	2.01111e-05
3804.78	0.484344	9.83276e-05
3805.26	0.000796509	0.0046344
3805.72	0.482849	2.04468e-05
3806.22	0.482666	5.86243e-05
3806.72	0.482727	0.0154022
3807.16	0.483612	1.28174e-05
3807.66	0.483154	4.01611e-05
3808.16	0.482513	0.0106689
3808.62	-0.697205	-0.0241974
3809.1	0.483307	2.89612e-05
3809.6	0.482697	0.00590088
3810.06	-0.698151	-0.0179871
3810.54	0.48407	1.52588e-05
3811.04	0.484314	0.000350677
3811.52	0.000778198	0.00663391
3811.98	0.484283	1.15356e-05
3812.48	0.482971	0.000106598
3812.96	-0.000402832	0.00463928
3813.42	0.482697	2.01416e-05
3813.92	0.482697	5.78003e-05
3814.42	0.483734	0.01539
3814.86	0.483856	1.20544e-05
3815.36	0.484314	2.948e-05
3815.86	0.482544	0.0106781
3816.32	-0.697632	-0.0242065
3816.8	0.482819	2.89307e-05
3817.3	0.483032	0.00592072
3817.76	-0.699341	-0.0180023
3818.24	0.483185	2.22473e-05
3818.74	0.482788	0.000365021
3819.22	-0.000408936	0.00662842
3819.68	0.482666	2.48718e-05
3820.18	0.482788	0.000109222
3820.66	-5.18799e-05	0.00462616
3821.12	0.483459	1.61438e-05
3821.62	0.484283	4.6936e-05
3822.12	0.482422	0.0154022
3822.56	0.484131	1.00403e-05
3823.06	0.484253	3.03955e-05
3823.56	0.482544	0.0106842
3824.02	-0.697021	-0.0242004
3824.5	0.484436	2.09351e-05
3825	0.483185	0.00594086
3825.46	-0.698639	-0.0180023
3825.94	0.482605	2.74353e-05
3826.44	0.483948	0.000359711
3826.92	-0.000637817	0.00662506
3827.38	0.483063	2.22778e-05
3827.88	0.483795	0.00010434
3828.36	-0.000680542	0.00462494
3828.82	0.484406	9.27734e-06
3829.32	0.484253	4.93469e-05
3829.82	0.482483	0.0153961
3830.26	0.484314	8.78906e-06
3830.76	0.484192	3.07007e-05
3831.26	0.482666	0.0106903
3831.72	-0.698914	-0.0242096
3832.2	0.482574	3.16162e-05
3832.7	0.484161	0.0059671
3833.16	-0.69812	-0.0180359
3833.64	0.482758	2.7832e-05
3834.14	0.483215	0.000370087
3834.62	-0.000234985	0.00660919
3835.08	0.484314	1.3031e-05
3835.58	0.484253	0.000100067
3836.06	1.2207e-05	0.00461182
3836.52	0.483795	1.47705e-05
3837.02	0.483551	5.02625e-05
3837.52	0.483063	0.01539
3837.96	0.483765	9.42993e-06
3838.46	0.484192	2.74353e-05
3838.96	0.483551	0.0106873
3839.42	-0.698914	-0.0242157
3839.9	0.48288	2.92969e-05
3840.4	0.483917	0.00598816
3840.86	-0.698853	-0.0180328
3841.34	0.484344	1.61438e-05
3841.84	0.483459	0.000371582
3842.32	-0.000445557	0.006604
3842.78	0.482697	2.38037e-05
3843.28	0.483307	0.00010849
3843.76	-0.000100708	0.00461182
3844.22	0.482941	1.97144e-05
3844.72	0.483521	5.35278e-05
3845.22	0.483643	0.0153992
3845.66	0.483215	1.57776e-05
3846.16	0.484192	2.8595e-05
3846.66	0.482666	0.0106995
3847.12	-0.698242	-0.0242249
3847.6	0.482605	3.2135e-05
3848.1	0.484192	0.00601227
3848.56	-0.69873	-0.018045
3849.04	0.482758	2.50549e-05
3849.54	0.482758	0.000381592
3850.02	-0.000558472	0.00659424
3850.48	0.483856	1.49841e-05
3850.98	0.483398	0.000110809
3851.46	-0.00067749	0.00460846
3851.92	0.484192	1.14441e-05
3852.42	0.484406	4.83398e-05
3852.92	0.483307	0.0153961
3853.36	0.484131	9.39941e-06
3853.86	0.483246	3.41492e-05
3854.36	0.483765	0.0107056
3854.82	-0.698181	-0.0242371
3855.3	0.482727	2.88086e-05
3855.8	0.48291	0.0060434
3856.26	-0.699158	-0.0180603
3856.74	0.484161	1.54419e-05
3857.24	0.483276	0.000383148
3857.72	0.000393677	0.00657898
3858.18	0.483337	2.02026e-05
3858.68	0.48291	0.000111816
3859.16	-0.000354004	0.00460205
3859.62	0.483551	1.53503e-05
3860.12	0.482666	6.0791e-05
3860.62	0.483276	0.0154053
3861.06	0.482819	1.88599e-05
3861.56	0.483734	3.59802e-05
3862.06	0.483948	0.0107056
3862.52	-0.697601	-0.024234
3863	0.483917	2.35291e-05
3863.5	0.484161	0.00605225
3863.96	-0.698517	-0.0180695
3864.44	0.483307	2.14539e-05
3864.94	0.483337	0.000384735
3865.42	-0.000765991	0.00657501
3865.88	0.483734	1.48926e-05
3866.38	0.484283	0.000105042
3866.86	0.000717163	0.00458984
3867.32	0.483765	1.35193e-05
3867.82	0.483337	5.5542e-05
3868.32	0.482758	0.0153961
3868.76	0.482758	1.73035e-05
3869.26	0.483551	3.79639e-05
3869.76	0.482178	0.0107269
3870.22	-0.698669	-0.0242462
3870.7	0.483093	3.12805e-05
3871.2	0.483521	0.00608551
3871.66	-0.698181	-0.0180756
3872.14	0.482697	2.66418e-05
3872.64	0.48407	0.00038382
3873.12	0.000726318	0.00655792
3873.58	0.483337	1.76086e-05
3874.08	0.484375	0.000105072
3874.56	-0.000613403	0.00459045
3875.02	0.48291	1.85547e-05
3875.52	0.482941	6.04248e-05
3876.02	0.483521	0.0153992
3876.46	0.484283	8.81958e-06
3876.96	0.482574	4.2572e-05
3877.46	0.482819	0.0107269
3877.92	-0.69696	-0.0242493
3878.4	0.484375	2.07214e-05
3878.9	0.484161	0.00610168
3879.36	-0.698608	-0.0180847
3879.84	0.483002	2.33459e-05
3880.34	0.483398	0.000391876
3880.82	-0.00067749	0.00655396
3881.28	0.482666	2.32239e-05
3881.78	0.48407	0.00010733
3882.26	0.000665283	0.00457794
3882.72	0.48291	2.04468e-05
3883.22	0.484222	4.94995e-05
3883.72	0.48288	0.0154083
3884.16	0.483643	1.28784e-05
3884.66	0.48407	3.00293e-05
3885.16	0.482483	0.0107361
3885.62	-0.697876	-0.0242432
3886.1	0.483185	3.02429e-05
3886.6	0.484222	0.0061145
3887.06	-0.697632	-0.0181
3887.54	0.482666	2.70386e-05
3888.04	0.483643	0.000393372
3888.52	-0.000811768	0.00655304
3888.98	0.483978	1.64185e-05
3889.48	0.483368	0.000112305
3889.96	0.000454712	0.00457306
3890.42	0.484283	9.58252e-06
3890.92	0.484375	4.96826e-05
3891.42	0.482269	0.0154053
3891.86	0.483246	1.48926e-05
3892.36	0.483551	3.84216e-05
3892.86	0.483734	0.0107452
3893.32	-0.697662	-0.0242493
3893.8	0.484406	2.2644e-05
3894.3	0.482666	0.00615112
3894.76	-0.699097	-0.018103
3895.24	0.483215	2.57263e-05
3895.74	0.482727	0.000404266
3896.22	-0.0006073	0.00654327
3896.68	0.482941	2.19727e-05
3897.18	0.482788	0.000117615
3897.66	0.000942993	0.00456757
3898.12	0.48407	1.22681e-05
3898.62	0.484222	4.95605e-05
3899.12	0.4823	0.0154175
3899.56	0.484192	9.46045e-06
3900.06	0.483856	3.62854e-05
3900.56	0.482239	0.0107574
3901.02	-0.697174	-0.0242645
3901.5	0.483917	2.33765e-05
3902	0.483948	0.00615936
3902.46	-0.697723	-0.0181335
3902.94	0.483337	2.2644e-05
3903.44	0.484436	0.000397278
3903.92	0.000100708	0.00652649
3904.38	0.484314	1.2085e-05
3904.88	0.483612	0.000113464
3905.36	-2.74658e-05	0.00456268
3905.82	0.483124	1.83105e-05
3906.32	0.483398	5.63965e-05
3906.82	0.482513	0.0154236
3907.26	0.483521	1.36414e-05
3907.76	0.482788	3.93982e-05
3908.26	0.483856	0.0107635
3908.72	-0.698853	-0.0242615
3909.2	0.484344	2.09045e-05
3909.7	0.483215	0.00617859
3910.16	-0.697571	-0.0181396
3910.64	0.482788	2.66724e-05
3911.14	0.482941	0.000409576
3911.62	0.000814819	0.00651642
3912.08	0.48349	1.81274e-05
3912.58	0.484314	0.000108276
3913.06	0.000314331	0.0045578
3913.52	0.483612	1.52893e-05
3914.02	0.482788	6.01807e-05
3914.52	0.483429	0.0154022
3914.96	0.482849	1.85547e-05
3915.46	0.483551	3.86047e-05
3915.96	0.483032	0.0107574
3916.42	-0.697021	-0.0242737
3916.9	0.482727	2.92969e-05
3917.4	0.483612	0.00620239
3917.86	-0.699158	-0.0181396
3918.34	0.483521	2.1637e-05
3918.84	0.482849	0.000416351
3919.32	8.54492e-05	0.00651123
3919.78	0.482727	2.40479e-05
3920.28	0.483124	0.000116058
3920.76	-0.000265503	0.00455414
3921.22	0.482727	2.26746e-05
3921.72	0.482788	6.03943e-05
3922.22	0.482391	0.0154205
3922.66	0.484283	8.36182e-06
3923.16	0.483429	3.32947e-05
3923.66	0.483521	0.0107635
3924.12	-0.698395	-0.0242676
3924.6	0.482574	3.15247e-05
3925.1	0.482513	0.00622589
3925.56	-0.698914	-0.0181458
3926.04	0.484314	1.61133e-05
3926.54	0.484192	0.000411804
3927.02	0.000683594	0.00649963
3927.48	0.483551	1.83105e-05
3927.98	0.48288	0.000118439
3928.46	0.00078125	0.00454285
3928.92	0.484192	1.11694e-05
3929.42	0.483093	5.7373e-05
3929.92	0.483673	0.0154083
3930.36	0.483398	1.52588e-05
3930.86	0.484039	3.1311e-05
3931.36	0.482361	0.0107819
3931.82	-0.698608	-0.024295
3932.3	0.484314	2.28882e-05
3932.8	0.483887	0.00623535
3933.26	-0.69931	-0.0181671
3933.74	0.482666	2.57874e-05
3934.24	0.484192	0.000414093
3934.72	-0.000747681	0.00650055
3935.18	0.482697	2.39258e-05
3935.68	0.483368	0.000118225
3936.16	0.000616455	0.00453766
3936.62	0.484253	1.01624e-05
3937.12	0.483459	5.53284e-05
3937.62	0.483063	0.0154083
3938.06	0.482727	1.84021e-05
3938.56	0.483795	3.40881e-05
3939.06	0.482361	0.0107941
3939.52	-0.698151	-0.0243011
3940	0.484222	2.03552e-05
3940.5	0.483673	0.00625244
3940.96	-0.699219	-0.0181763
3941.44	0.482513	2.73132e-05
3941.94	0.48288	0.000427582
3942.42	0.000744629	0.00648224
3942.88	0.483795	1.75171e-05
3943.38	0.484009	0.000113617
3943.86	-0.000213623	0.00454407
3944.32	0.482727	2.19116e-05
3944.82	0.483032	6.18286e-05
3945.32	0.482025	0.0154236
3945.76	0.484314	8.14819e-06
3946.26	0.484192	3.32336e-05
3946.76	0.482391	0.0108002
3947.22	-0.69809	-0.0243073
3947.7	0.482819	2.85645e-05
3948.2	0.482697	0.00628723
3948.66	-0.69812	-0.0182007
3949.14	0.484375	1.72119e-05
3949.64	0.483551	0.000427887
3950.12	-0.000808716	0.00648315
3950.58	0.482758	2.33154e-05
3951.08	0.482941	0.000121582
3951.56	-0.00022583	0.00453461
3952.02	0.48288	1.953125E-05
3952.52	0.482941	6.06995e-05
3953.02	0.483429	0.0154144
3953.46	0.483185	1.59302e-05
3953.96	0.483856	3.35388e-05
3954.46	0.482544	0.0108002
3954.92	-0.697845	-0.0243073
3955.4	0.482819	3.46985e-05
3955.9	0.482666	0.00630676
3956.36	-0.697388	-0.0182098
3956.84	0.484344	1.54419e-05
3957.34	0.484131	0.000429291
3957.82	-0.000610352	0.00646759
3958.28	0.484192	1.27563e-05
3958.78	0.482635	0.000125793
3959.26	-0.000549316	0.00452972
3959.72	0.484283	9.765625E-06
3960.22	0.484253	5.41382e-05
3960.72	0.483368	0.0154022
3961.16	0.483154	1.5564e-05
3961.66	0.482758	4.28467e-05
3962.16	0.483673	0.0108002
3962.62	-0.697144	-0.0243134
3963.1	0.48349	2.87476e-05
3963.6	0.483032	0.00631866
3964.06	-0.69931	-0.0182098
3964.54	0.483765	2.2644e-05
3965.04	0.48288	0.000440002
3965.52	0.00057373	0.00645416
3965.98	0.483124	2.27051e-05
3966.48	0.482819	0.000123779
3966.96	0.000283813	0.00451874
3967.42	0.483856	1.35193e-05
3967.92	0.48291	6.02417e-05
3968.42	0.483612	0.0154175
3968.86	0.482697	1.94092e-05
3969.36	0.484253	3.33252e-05
3969.86	0.483551	0.0108124
3970.32	-0.697662	-0.0243103
3970.8	0.483185	3.0365e-05
3971.3	0.482452	0.00633972
3971.76	-0.698181	-0.0182281
3972.24	0.482574	2.81372e-05
3972.74	0.484344	0.000435883
3973.22	-0.000769043	0.00645081
3973.68	0.482758	2.47498e-05
3974.18	0.483185	0.000122467
3974.66	0.000823975	0.00450867
3975.12	0.482758	1.79749e-05
3975.62	0.483978	5.42908e-05
3976.12	0.482544	0.0154266
3976.56	0.483459	1.34888e-05
3977.06	0.484009	3.47595e-05
3977.56	0.48349	0.0108124
3978.02	-0.697906	-0.0243286
3978.5	0.483795	2.61536e-05
3979	0.483826	0.00635223
3979.46	-0.697723	-0.0182281
3979.94	0.484406	1.5564e-05
3980.44	0.483154	0.000446564
3980.92	-9.76562e-05	0.0064325
3981.38	0.484314	1.18103e-05
3981.88	0.482727	0.000126068
3982.36	-0.00032959	0.00450897
3982.82	0.482605	2.2644e-05
3983.32	0.484436	5.23376e-05
3983.82	0.48349	0.0154053
3984.26	0.484344	8.72803e-06
3984.76	0.484161	3.32336e-05
3985.26	0.483673	0.0108307
3985.72	-0.697235	-0.0243195
3986.2	0.484161	2.49023e-05
3986.7	0.483337	0.00636993
3987.16	-0.699219	-0.0182343
3987.64	0.483215	2.42615e-05
3988.14	0.484009	0.000445038
3988.62	-0.000735474	0.00642975
3989.08	0.483368	1.60828e-05
3989.58	0.483734	0.000120911
3990.06	2.74658e-05	0.00450134
3990.52	0.483887	1.08948e-05
3991.02	0.483063	6.21643e-05
3991.52	0.482056	0.0154236
3991.96	0.484192	9.12476e-06
3992.46	0.483521	3.6438e-05
3992.96	0.48407	0.0108276
3993.42	-0.697784	-0.0243286
3993.9	0.484222	2.2644e-05
3994.4	0.483215	0.00639099
3994.86	-0.697601	-0.0182526
3995.34	0.483398	2.41699e-05
3995.84	0.48288	0.000456757
3996.32	-0.000708008	0.00642273
3996.78	0.482697	2.39868e-05
3997.28	0.484344	0.000115326
3997.76	0.000982666	0.0044873
3998.22	0.483032	1.70898e-05
3998.72	0.483582	5.59387e-05
3999.22	0.482086	0.0154236
3999.66	0.484467	8.27026e-06
4000.16	0.483002	4.13818e-05
4000.66	0.484039	0.0108337
4001.12	-0.697327	-0.0243317
4001.6	0.482727	3.23792e-05
4002.1	0.482422	0.00641266
4002.56	-0.698761	-0.0182648
4003.04	0.483154	2.41394e-05
4003.54	0.484283	0.000454041
4004.02	0.000219727	0.00640228
4004.48	0.483215	2.05078e-05
4004.98	0.482849	0.000129272
4005.46	-0.000680542	0.00449158
4005.92	0.483337	1.88599e-05
4006.42	0.484161	5.43213e-05
4006.92	0.483643	0.0154144
4007.36	0.484497	8.23975e-06
4007.86	0.482697	4.30603e-05
4008.36	0.483704	0.0108307
4008.82	-0.697327	-0.0243469
4009.3	0.483368	2.92358e-05
4009.8	0.484131	0.00642487
4010.26	-0.699036	-0.0182556
4010.74	0.482788	2.78931e-05
4011.24	0.482574	0.000470947
4011.72	-0.00090332	0.00639984
4012.18	0.484009	1.4801e-05
4012.68	0.482849	0.000129608
4013.16	-0.000689697	0.00448242
4013.62	0.484253	1.09863e-05
4014.12	0.484039	5.75867e-05
4014.62	0.483612	0.0154053
4015.06	0.483459	1.37024e-05
4015.56	0.483612	3.55835e-05
4016.06	0.482483	0.0108551
4016.52	-0.697723	-0.0243439
4017	0.484375	2.24304e-05
4017.5	0.482849	0.00644226
4017.96	-0.699158	-0.0182648
4018.44	0.483917	2.04468e-05
4018.94	0.483826	0.000467041
4019.42	-0.000350952	0.00639618
4019.88	0.482788	2.40784e-05
4020.38	0.484375	0.000119232
4020.86	0.000250244	0.00447632
4021.32	0.483154	1.66626e-05
4021.82	0.482819	6.46362e-05
4022.32	0.482056	0.0154175
4022.76	0.483704	1.35498e-05
4023.26	0.483215	3.84827e-05
4023.76	0.48233	0.0108643
4024.22	-0.697327	-0.0243439
4024.7	0.484192	2.27051e-05
4025.2	0.484222	0.00644501
4025.66	-0.698151	-0.0182831
4026.14	0.483826	1.953125E-05
4026.64	0.483978	0.000467377
4027.12	0.000588989	0.00637421
4027.58	0.483093	2.07214e-05
4028.08	0.482788	0.000134155
4028.56	0.00065918	0.00446991
4029.02	0.482605	2.0874e-05
4029.52	0.482635	6.64673e-05
4030.02	0.482025	0.0154114
4030.46	0.483765	1.11084e-05
4030.96	0.483551	3.63159e-05
4031.46	0.483459	0.0108459
4031.92	-0.697235	-0.0243408
4032.4	0.483765	2.42004e-05
4032.9	0.483185	0.00646637
4033.36	-0.697845	-0.0183014
4033.84	0.483429	2.31018e-05
4034.34	0.482971	0.000478424
4034.82	0.000500488	0.00636993
4035.28	0.484222	1.43127e-05
4035.78	0.483185	0.000128998
4036.26	-0.00043335	0.00446503
4036.72	0.483093	1.87988e-05
4037.22	0.482635	6.73523e-05
4037.72	0.481964	0.0154236
4038.16	0.484344	8.48389e-06
4038.66	0.482574	4.50134e-05
4039.16	0.482178	0.0108673
4039.62	-0.698639	-0.0243347
4040.1	0.483002	3.25317e-05
4040.6	0.482544	0.006484375
4041.06	-0.697571	-0.0182983
4041.54	0.482666	2.67334e-05
4042.04	0.482788	0.000483765
4042.52	-0.00038147	0.00636597
4042.98	0.482727	2.39258e-05
4043.48	0.483215	0.000130646
4043.96	-0.000601196	0.0044635
4044.42	0.484192	1.14746e-05
4044.92	0.48407	5.79224e-05
4045.42	0.482056	0.0154205
4045.86	0.483826	1.3031e-05
4046.36	0.483368	3.97949e-05
4046.86	0.482544	0.0108734
4047.32	-0.698883	-0.0243408
4047.8	0.482849	3.43933e-05
4048.3	0.483795	0.00648895
4048.76	-0.697418	-0.0183075
4049.24	0.483337	2.00806e-05
4049.74	0.482971	0.000485626
4050.22	-0.00065918	0.00636108
4050.68	0.484406	1.17798e-05
4051.18	0.484375	0.000122864
4051.66	0.000921631	0.00444519
4052.12	0.484375	1.01929e-05
4052.62	0.48407	5.81055e-05
4053.12	0.482361	0.0154266
4053.56	0.483948	1.06506e-05
4054.06	0.48349	3.82996e-05
4054.56	0.483276	0.0108704
4055.02	-0.698212	-0.0243408
4055.5	0.484314	2.18201e-05
4056	0.482544	0.0065155
4056.46	-0.69873	-0.0183075
4056.94	0.483002	2.21558e-05
4057.44	0.483002	0.000490143
4057.92	0.000164795	0.00634308
4058.38	0.482605	2.5238e-05
4058.88	0.482697	0.000134766
4059.36	0.000872803	0.00444
4059.82	0.484406	9.42993e-06
4060.32	0.482666	6.79626e-05
4060.82	0.483429	0.0154205
4061.26	0.483521	1.35498e-05
4061.76	0.483368	3.98865e-05
4062.26	0.4823	0.0108887
4062.72	-0.698059	-0.0243378
4063.2	0.48291	3.24097e-05
4063.7	0.482513	0.00652679
4064.16	-0.699158	-0.0183105
4064.64	0.483826	1.953125E-05
4065.14	0.484253	0.000486755
4065.62	-9.76562e-05	0.00634521
4066.08	0.482697	2.63062e-05
4066.58	0.4841	0.000126007
4067.06	-0.00050354	0.00444489
4067.52	0.482941	1.69678e-05
4068.02	0.484283	5.72205e-05
4068.52	0.481995	0.0154114
4068.96	0.482605	2.02332e-05
4069.46	0.484009	3.65295e-05
4069.96	0.482178	0.0108795
4070.42	-0.698486	-0.0243591
4070.9	0.482697	3.58582e-05
4071.4	0.482391	0.00654846
4071.86	-0.698883	-0.0183258
4072.34	0.484009	2.02637e-05
4072.84	0.484161	0.000491333
4073.32	0.000271606	0.00633331
4073.78	0.484131	1.51367e-05
4074.28	0.483032	0.000135559
4074.76	0.000787354	0.00443268
4075.22	0.482605	2.11487e-05
4075.72	0.482758	6.70776e-05
4076.22	0.483551	0.0154144
4076.66	0.483215	1.86157e-05
4077.16	0.484314	3.28369e-05
4077.66	0.483887	0.0108978
4078.12	-0.69812	-0.0243744
4078.6	0.483521	2.771e-05
4079.1	0.482422	0.00656525
4079.56	-0.699158	-0.0183441
4080.04	0.482697	2.91748e-05
4080.54	0.484375	0.000496826
4081.02	-0.000845337	0.00632538
4081.48	0.483765	1.88599e-05
4081.98	0.483887	0.000130463
4082.46	-0.000479126	0.0044339
4082.92	0.484344	1.0498e-05
4083.42	0.483063	6.4209e-05
4083.92	0.482971	0.0154053
4084.36	0.483612	1.45264e-05
4084.86	0.484009	3.60107e-05
4085.36	0.482483	0.010907
4085.82	-0.697754	-0.0243652
4086.3	0.482788	3.28674e-05
4086.8	0.482544	0.00658173
4087.26	-0.698944	-0.0183472
4087.74	0.483276	2.28882e-05
4088.24	0.483002	0.000506897
4088.72	0.000909424	0.00630829
4089.18	0.483154	2.09961e-05
4089.68	0.483032	0.000133728
4090.16	-0.000656128	0.0044281
4090.62	0.483215	1.88599e-05
4091.12	0.483643	6.23779e-05
4091.62	0.483337	0.0154114
4092.06	0.482666	1.97754e-05
4092.56	0.483948	3.66516e-05
4093.06	0.483215	0.0108948
4093.52	-0.698242	-0.0243683
4094	0.482727	3.41492e-05
4094.5	0.483734	0.00658905
4094.96	-0.69754	-0.0183685
4095.44	0.483276	2.50854e-05
4095.94	0.483002	0.000517883
4096.42	-4.57764e-05	0.00630371
4096.88	0.484222	1.28174e-05
4097.38	0.48291	0.000136566
4097.86	0.000924683	0.00441406
4098.32	0.483063	1.9928e-05
4098.82	0.483795	5.93262e-05
4099.32	0.483521	0.0154205
4099.76	0.483032	1.80969e-05
4100.26	0.482697	4.36707e-05
4100.76	0.483826	0.0109039
4101.22	-0.698822	-0.0243774
4101.7	0.484314	2.31628e-05
4102.2	0.483002	0.00661438
4102.66	-0.698212	-0.0183716
4103.14	0.482666	2.76184e-05
4103.64	0.484253	0.00051239
4104.12	0.000869751	0.00628571
4104.58	0.48291	2.18506e-05
4105.08	0.483948	0.000132721
4105.56	-0.000708008	0.00441162
4106.02	0.484406	1.0376e-05
4106.52	0.482758	6.95496e-05
4107.02	0.4823	0.0154114
4107.46	0.482727	2.09656e-05
4107.96	0.482605	4.61121e-05
4108.46	0.482971	0.0109253
4108.92	-0.698853	-0.0243835
4109.4	0.483673	2.80762e-05
4109.9	0.483887	0.00662354
4110.36	-0.698914	-0.0183838
4110.84	0.483826	2.21863e-05
4111.34	0.482849	0.000528259
4111.82	0.000570679	0.00627747
4112.28	0.483948	1.70593e-05
4112.78	0.483093	0.000138184
4113.26	-0.000296021	0.00440643
4113.72	0.484406	9.61304e-06
4114.22	0.484344	5.75256e-05
4114.72	0.482025	0.0154236
4115.16	0.483643	1.24512e-05
4115.66	0.482758	4.45862e-05
4116.16	0.482971	0.0109192
4116.62	-0.698669	-0.0243927
4117.1	0.483612	2.53906e-05
4117.6	0.483215	0.00664337
4118.06	-0.697571	-0.0183929
4118.54	0.483459	2.00195e-05
4119.04	0.484344	0.000521851
4119.52	-6.10352e-06	0.00627441
4119.98	0.483582	1.94702e-05
4120.48	0.48288	0.000143372
4120.96	0.000631714	0.00439178
4121.42	0.482788	2.20337e-05
4121.92	0.484344	5.8136e-05
4122.42	0.4823	0.0154266
4122.86	0.482697	2.005e-05
4123.36	0.484192	3.40271e-05
4123.86	0.483337	0.0109131
4124.32	-0.698792	-0.0243866
4124.8	0.482697	3.39661e-05
4125.3	0.482605	0.00665894
4125.76	-0.698761	-0.0184082
4126.24	0.483612	2.06909e-05
4126.74	0.483124	0.000534973
4127.22	0.000830078	0.00625977
4127.68	0.483582	2.1759e-05
4128.18	0.482941	0.000142853
4128.66	0.000915527	0.00438538
4129.12	0.483459	1.87073e-05
4129.62	0.483246	6.8573e-05
4130.12	0.482574	0.0154266
4130.56	0.483704	1.58081e-05
4131.06	0.484314	3.41492e-05
4131.56	0.482452	0.0109192
4132.02	-0.697815	-0.0244171
4132.5	0.483063	3.18604e-05
4133	0.482391	0.00667694
4133.46	-0.698853	-0.0184174
4133.94	0.482849	2.71912e-05
4134.44	0.484283	0.000532227
4134.92	-0.000689697	0.00626221
4135.38	0.482635	2.50244e-05
4135.88	0.483734	0.000137268
4136.36	-0.000570679	0.0043927
4136.82	0.482941	1.70288e-05
4137.32	0.484375	5.86853e-05
4137.82	0.482422	0.0154297
4138.26	0.482666	2.13318e-05
4138.76	0.483154	4.35486e-05
4139.26	0.482574	0.0109497
4139.72	-0.698242	-0.0243988
4140.2	0.482849	3.42407e-05
4140.7	0.483978	0.00667664
4141.16	-0.698547	-0.0184174
4141.64	0.482758	2.87781e-05
4142.14	0.482605	0.000546875
4142.62	0.000723267	0.0062442
4143.08	0.483612	1.74561e-05
4143.58	0.484283	0.000134552
4144.06	-0.000231934	0.00438477
4144.52	0.484344	9.82666e-06
4145.02	0.482727	7.09229e-05
4145.52	0.482574	0.0154114
4145.96	0.482788	1.95923e-05
4146.46	0.483246	4.06494e-05
4146.96	0.482483	0.0109406
4147.42	-0.697235	-0.0244171
4147.9	0.484314	2.28271e-05
4148.4	0.483368	0.00670044
4148.86	-0.698212	-0.0184296
4149.34	0.482758	2.87781e-05
4149.84	0.484253	0.000544128
4150.32	0.000244141	0.00624512
4150.78	0.483215	2.0813e-05
4151.28	0.483856	0.000136932
4151.76	0.000793457	0.00436859
4152.22	0.484009	1.33057e-05
4152.72	0.484436	6.03027e-05
4153.22	0.482056	0.0154236
4153.66	0.484406	8.97217e-06
4154.16	0.483032	4.34265e-05
4154.66	0.482666	0.0109436
4155.12	-0.697113	-0.0244232
4155.6	0.484009	2.71301e-05
4156.1	0.484253	0.00670593
4156.56	-0.698517	-0.0184387
4157.04	0.483948	2.10266e-05
4157.54	0.483093	0.000553894
4158.02	-0.000314331	0.00624023
4158.48	0.48291	2.31934e-05
4158.98	0.483215	0.00014447
4159.46	-5.49316e-05	0.00437592
4159.92	0.482849	2.06299e-05
4160.42	0.483856	6.27441e-05
4160.92	0.482574	0.0154297
4161.36	0.48291	1.96228e-05
4161.86	0.482605	4.62341e-05
4162.36	0.482971	0.0109558
4162.82	-0.698669	-0.024411
4163.3	0.48291	3.54614e-05
4163.8	0.482788	0.00672882
4164.26	-0.69809	-0.0184418
4164.74	0.482605	2.98767e-05
4165.24	0.483032	0.000558472
4165.72	-0.000759888	0.00623047
4166.18	0.484222	1.38855e-05
4166.68	0.483582	0.000143433
4167.16	-0.000640869	0.00437042
4167.62	0.484314	1.19629e-05
4168.12	0.484314	5.9082e-05
4168.62	0.483521	0.0154083
4169.06	0.482819	2.01721e-05
4169.56	0.483521	4.20227e-05
4170.06	0.483276	0.0109528
4170.52	-0.69873	-0.0244202
4171	0.483978	2.6001e-05
4171.5	0.482483	0.00674255
4171.96	-0.698853	-0.0184479
4172.44	0.484375	1.58081e-05
4172.94	0.482819	0.000566101
4173.42	0.000759888	0.00621033
4173.88	0.484009	1.41296e-05
4174.38	0.482788	0.000148987
4174.86	4.57764e-05	0.00435852
4175.32	0.48288	2.12402e-05
4175.82	0.483032	6.72302e-05
4176.32	0.481964	0.0154236
4176.76	0.483765	1.39465e-05
4177.26	0.482697	4.56238e-05
4177.76	0.482849	0.0109772
4178.22	-0.698181	-0.0244202
4178.7	0.483246	2.92969e-05
4179.2	0.483032	0.00674957
4179.66	-0.69751	-0.0184753
4180.14	0.483795	2.00806e-05
4180.64	0.483734	0.000565186
4181.12	0.000765991	0.00620453
4181.58	0.483063	2.13623e-05
4182.08	0.483276	0.000147614
4182.56	0.000549316	0.00434937
4183.02	0.483948	1.26343e-05
4183.52	0.483307	6.60706e-05
4184.02	0.483093	0.0154083
4184.46	0.482605	2.13013e-05
4184.96	0.482697	4.54407e-05
4185.46	0.483887	0.010968
4185.92	-0.697815	-0.0244324
4186.4	0.483032	3.15247e-05
4186.9	0.48407	0.00676514
4187.36	-0.697571	-0.0184845
4187.84	0.483826	2.07825e-05
4188.34	0.483856	0.000565796
4188.82	0.000289917	0.00619568
4189.28	0.483459	1.77002e-05
4189.78	0.482697	0.000151398
4190.26	-0.00067749	0.00435303
4190.72	0.482788	2.19421e-05
4191.22	0.483276	6.72607e-05
4191.72	0.482971	0.0154144
4192.16	0.482758	2.07214e-05
4192.66	0.48291	4.29077e-05
4193.16	0.48233	0.0109802
4193.62	-0.697571	-0.0244446
4194.1	0.484253	2.37427e-05
4194.6	0.483643	0.00677795
4195.06	-0.697754	-0.0184906
4195.54	0.484344	1.71204e-05
4196.04	0.483276	0.000577393
4196.52	0.000845337	0.00618835
4196.98	0.484375	1.34888e-05
4197.48	0.482697	0.000153564
4197.96	0.000140381	0.00434631
4198.42	0.48407	1.22375e-05
4198.92	0.483063	7.30286e-05
4199.42	0.483337	0.0154083
4199.86	0.483337	1.6449e-05
4200.36	0.484161	3.60718e-05
4200.86	0.48233	0.0109802
4201.32	-0.698792	-0.0244415
4201.8	0.484406	2.33459e-05
4202.3	0.484161	0.00678619
4202.76	-0.699005	-0.0184845
4203.24	0.483124	2.52075e-05
4203.74	0.482849	0.000584717
4204.22	-0.000198364	0.0061853
4204.68	0.483734	1.70593e-05
4205.18	0.484375	0.000143921
4205.66	-0.000695801	0.00434479
4206.12	0.48291	2.02942e-05
4206.62	0.482697	7.37915e-05
4207.12	0.483673	0.0154144
4207.56	0.483673	1.3916e-05
4208.06	0.483917	3.70789e-05
4208.56	0.483917	0.0109833
4209.02	-0.698669	-0.0244446
4209.5	0.484497	2.25525e-05
4210	0.483917	0.00679901
4210.46	-0.697479	-0.0185059
4210.94	0.484253	1.66321e-05
4211.44	0.483368	0.000585632
4211.92	-0.000787354	0.00618774
4212.38	0.483978	1.89514e-05
4212.88	0.482697	0.000154755
4213.36	0.000201416	0.00433777
4213.82	0.484344	1.21155e-05
4214.32	0.484406	6.27747e-05
4214.82	0.483582	0.0154144
4215.26	0.482849	1.80969e-05
4215.76	0.484283	3.57361e-05
4216.26	0.482147	0.0109955
4216.72	-0.698456	-0.0244446
4217.2	0.482697	3.51868e-05
4217.7	0.482697	0.0068045
4218.16	-0.699158	-0.0184967
4218.64	0.482941	2.78015e-05
4219.14	0.483154	0.000579834
4219.62	-0.000491333	0.00619293
4220.08	0.483856	1.64185e-05
4220.58	0.483734	0.000146759
4221.06	-0.000326538	0.00434021
4221.52	0.484192	1.09253e-05
4222.02	0.483246	6.6864e-05
4222.52	0.483429	0.0154388
4222.96	0.483063	1.50146e-05
4223.46	0.483093	4.40674e-05
4223.96	0.483826	0.0109924
4224.42	-0.697144	-0.0244537
4224.9	0.483704	2.88086e-05
4225.4	0.483032	0.00678589
4225.86	-0.698822	-0.018515
4226.34	0.482941	2.74963e-05
4226.84	0.484436	0.000573425
4227.32	-0.000253296	0.00619934
4227.78	0.483826	1.73035e-05
4228.28	0.482727	0.000155853
4228.76	0.000482178	0.00435303
4229.22	0.482727	2.06299e-05
4229.72	0.484406	6.14319e-05
4230.22	0.48291	0.015448
4230.66	0.482788	1.80969e-05
4231.16	0.484161	3.67737e-05
4231.66	0.483704	0.0109985
4232.12	-0.698212	-0.0244415
4232.6	0.484192	2.50549e-05
4233.1	0.483521	0.00679108
4233.56	-0.698029	-0.0185211
4234.04	0.483063	2.65808e-05
4234.54	0.483368	0.000578918
4235.02	-0.00020752	0.00620087
4235.48	0.4841	1.58386e-05
4235.98	0.48407	0.000144196
4236.46	0.000466919	0.00434296
4236.92	0.482788	2.12097e-05
4237.42	0.483887	6.58875e-05
4237.92	0.483398	0.0154419
4238.36	0.48288	1.83105e-05
4238.86	0.483917	3.94287e-05
4239.36	0.483551	0.0110016
4239.82	-0.697479	-0.0244476
4240.3	0.483398	3.23181e-05
4240.8	0.483673	0.00679321
4241.26	-0.699036	-0.0185272
4241.74	0.482819	2.6947e-05
4242.24	0.482941	0.000582581
4242.72	-0.000549316	0.00619659
4243.18	0.483734	2.02332e-05
4243.68	0.482941	0.00015329
4244.16	-0.000457764	0.00434753
4244.62	0.483704	1.47705e-05
4245.12	0.483185	6.82678e-05
4245.62	0.483276	0.0154419
4246.06	0.484192	9.552e-06
4246.56	0.482849	4.47388e-05
4247.06	0.482483	0.0110229
4247.52	-0.698303	-0.0244263
4248	0.484192	2.53601e-05
4248.5	0.483826	0.00679108
4248.96	-0.698578	-0.0185242
4249.44	0.482941	2.66418e-05
4249.94	0.483246	0.00058075
4250.42	-0.000335693	0.0061908
4250.88	0.483948	1.89819e-05
4251.38	0.48288	0.000153625
4251.86	-1.2207e-05	0.00433777
4252.32	0.484283	1.0498e-05
4252.82	0.482727	7.32422e-05
4253.32	0.483032	0.0154419
4253.76	0.482635	1.95007e-05
4254.26	0.483032	4.39148e-05
4254.76	0.482147	0.0110138
4255.22	-0.697205	-0.0244446
4255.7	0.482758	3.49121e-05
4256.2	0.482452	0.00681519
4256.66	-0.69754	-0.0185425
4257.14	0.483948	2.02942e-05
4257.64	0.484314	0.000578918
4258.12	0.000949097	0.00617798
4258.58	0.483154	2.36511e-05
4259.08	0.482666	0.000156982
4259.56	0.000509644	0.00433228
4260.02	0.48407	1.27869e-05
4260.52	0.482788	7.27844e-05
4261.02	0.483582	0.0154449
4261.46	0.483093	1.7334e-05
4261.96	0.482758	4.53796e-05
4262.46	0.482971	0.0110107
4262.92	-0.697266	-0.0244354
4263.4	0.483643	2.67029e-05
4263.9	0.483551	0.00681244
4264.36	-0.698425	-0.0185455
4264.84	0.483948	2.20337e-05
4265.34	0.483734	0.000585022
4265.82	-0.000845337	0.00617981
4266.28	0.482849	2.46887e-05
4266.78	0.482544	0.00015799
4267.26	-0.0003479	0.00433594
4267.72	0.483582	1.80969e-05
4268.22	0.482574	7.2052e-05
4268.72	0.482117	0.0154541
4269.16	0.483429	1.45569e-05
4269.66	0.483063	4.245e-05
4270.16	0.482391	0.0110291
4270.62	-0.69873	-0.0244293
4271.1	0.484283	2.4353e-05
4271.6	0.482605	0.00682098
4272.06	-0.698914	-0.0185272
4272.54	0.48349	2.42004e-05
4273.04	0.483032	0.0005896
4273.52	-0.000619507	0.00617645
4273.98	0.484406	1.31226e-05
4274.48	0.484375	0.00014621
4274.96	-0.000619507	0.00433044
4275.42	0.482666	2.23694e-05
4275.92	0.483795	6.74438e-05
4276.42	0.482147	0.0154572
4276.86	0.483765	1.19324e-05
4277.36	0.483704	4.07715e-05
4277.86	0.483429	0.0110291
4278.32	-0.697815	-0.0244171
4278.8	0.482941	2.99072e-05
4279.3	0.483826	0.00682007
4279.76	-0.698212	-0.0185577
4280.24	0.482788	2.51465e-05
4280.74	0.48349	0.000592651
4281.22	0.000195313	0.00615906
4281.68	0.482635	2.27356e-05
4282.18	0.483002	0.000156219
4282.66	-0.000338745	0.00432404
4283.12	0.484314	1.10779e-05
4283.62	0.484436	6.32324e-05
4284.12	0.483612	0.0154541
4284.56	0.482727	2.12097e-05
4285.06	0.483887	4.02832e-05
4285.56	0.482666	0.0110382
4286.02	-0.698608	-0.0244202
4286.5	0.483673	2.81372e-05
4287	0.484222	0.00682922
4287.46	-0.698486	-0.0185455
4287.94	0.483643	2.07825e-05
4288.44	0.48407	0.000592957
4288.92	2.44141e-05	0.0061557
4289.38	0.483429	2.0752e-05
4289.88	0.484375	0.00014975
4290.36	-0.000411987	0.00431641
4290.82	0.482727	2.39868e-05
4291.32	0.482697	7.50427e-05
4291.82	0.483063	0.0154541
4292.26	0.483032	1.47095e-05
4292.76	0.483429	4.25415e-05
4293.26	0.482208	0.0110382
4293.72	-0.69873	-0.0244171
4294.2	0.48288	3.40271e-05
4294.7	0.483032	0.00684113
4295.16	-0.699158	-0.0185425
4295.64	0.484344	1.80054e-05
4296.14	0.483032	0.000596924
4296.62	-0.000848389	0.00615173
4297.08	0.483978	1.52588e-05
4297.58	0.482635	0.000159485
4298.06	-0.000802612	0.00431549
4298.52	0.483398	1.81274e-05
4299.02	0.483704	7.01904e-05
4299.52	0.48349	0.015448
4299.96	0.484192	9.58252e-06
4300.46	0.484375	3.62549e-05
4300.96	0.482361	0.0110443
4301.42	-0.697754	-0.0244446
4301.9	0.482727	3.56445e-05
4302.4	0.48407	0.00684998
4302.86	-0.698029	-0.0185486
4303.34	0.48288	2.67334e-05
4303.84	0.482971	0.000606689
4304.32	-0.000579834	0.00614624
4304.78	0.482635	2.50549e-05
4305.28	0.484009	0.000152466
4305.76	-0.000357056	0.00431122
4306.22	0.482788	2.24915e-05
4306.72	0.483246	7.16553e-05
4307.22	0.483521	0.0154358
4307.66	0.482697	2.01111e-05
4308.16	0.482605	4.8584e-05
4308.66	0.482269	0.0110474
4309.12	-0.69751	-0.0244507
4309.6	0.484009	2.5238e-05
4310.1	0.482483	0.00687317
4310.56	-0.698212	-0.018576
4311.04	0.483551	2.0874e-05
4311.54	0.483765	0.000606995
4312.02	0.000201416	0.00613922
4312.48	0.483582	1.90125e-05
4312.98	0.482758	0.000162048
4313.46	0.000778198	0.00429779
4313.92	0.484131	1.22375e-05
4314.42	0.483368	6.95496e-05
4314.92	0.482056	0.0154449
4315.36	0.483032	1.79749e-05
4315.86	0.483551	4.23279e-05
4316.36	0.482391	0.0110596
4316.82	-0.697174	-0.0244415
4317.3	0.483582	3.12805e-05
4317.8	0.482483	0.00688141
4318.26	-0.69751	-0.0185791
4318.74	0.483978	2.05383e-05
4319.24	0.483826	0.000610046
4319.72	-0.00072937	0.00613708
4320.18	0.482727	2.28882e-05
4320.68	0.482697	0.000162415
4321.16	-0.000610352	0.00430481
4321.62	0.483398	1.95007e-05
4322.12	0.482697	7.60803e-05
4322.62	0.482697	0.0154602
4323.06	0.484375	1.01318e-05
4323.56	0.484131	3.91846e-05
4324.06	0.483337	0.0110535
4324.52	-0.698669	-0.0244324
4325	0.484131	2.72827e-05
4325.5	0.483856	0.00687958
4325.96	-0.699005	-0.018573
4326.44	0.4841	1.91345e-05
4326.94	0.483154	0.000614319
4327.42	0.0009765625	0.00611908
4327.88	0.484222	1.51367e-05
4328.38	0.483978	0.000156433
4328.86	0.00102234	0.00429108
4329.32	0.483856	1.31836e-05
4329.82	0.483795	6.80847e-05
4330.32	0.483093	0.0154419
4330.76	0.483826	1.25427e-05
4331.26	0.483948	3.82996e-05
4331.76	0.483948	0.0110565
4332.22	-0.698517	-0.0244446
4332.7	0.483917	2.73743e-05
4333.2	0.482483	0.00690704
4333.66	-0.698334	-0.0185852
4334.14	0.484314	1.82495e-05
4334.64	0.48291	0.00062439
4335.12	-0.000534058	0.00611389
4335.58	0.48288	2.4353e-05
4336.08	0.484131	0.000154572
4336.56	-0.000704956	0.00429108
4337.02	0.484253	1.11694e-05
4337.52	0.482605	7.85828e-05
4338.02	0.482117	0.0154633
4338.46	0.483887	1.18713e-05
4338.96	0.482574	4.86755e-05
4339.46	0.483002	0.0110626
4339.92	-0.697632	-0.0244629
4340.4	0.483337	3.31726e-05
4340.9	0.484131	0.00690948
4341.36	-0.697845	-0.0186127
4341.84	0.483582	2.27356e-05
4342.34	0.484009	0.00062439
4342.82	-0.000537109	0.0061087
4343.28	0.483002	2.32544e-05
4343.78	0.483002	0.000165802
4344.26	0.00085144	0.00427704
4344.72	0.484314	1.15967e-05
4345.22	0.483002	7.58057e-05
4345.72	0.483704	0.015448
4346.16	0.483032	1.8219e-05
4346.66	0.483856	4.19312e-05
4347.16	0.482819	0.0110687
4347.62	-0.698486	-0.0244446
4348.1	0.48291	3.52783e-05
4348.6	0.482483	0.00693542
4349.06	-0.698914	-0.0185974
4349.54	0.483459	2.39258e-05
4350.04	0.482819	0.000639648
4350.52	-0.000778198	0.00609863
4350.98	0.482666	2.71606e-05
4351.48	0.483246	0.000162842
4351.96	-0.000238037	0.00427246
4352.42	0.48288	2.35291e-05
4352.92	0.482971	7.52258e-05
4353.42	0.48291	0.0154419
4353.86	0.482605	1.98669e-05
4354.36	0.48291	4.6875E-05
4354.86	0.482269	0.011084
4355.32	-0.69754	-0.0244568
4355.8	0.483978	2.734375E-05
4356.3	0.482391	0.00694458
4356.76	-0.699005	-0.0186188
4357.24	0.484131	2.01416e-05
4357.74	0.483582	0.000635071
4358.22	0.000918579	0.00608002
4358.68	0.483673	1.73645e-05
4359.18	0.482727	0.000169495
4359.66	-0.000485229	0.00427338
4360.12	0.483093	1.92261e-05
4360.62	0.48291	7.47681e-05
4361.12	0.482025	0.0154541
4361.56	0.483429	1.63269e-05
4362.06	0.483856	3.92456e-05
4362.56	0.482452	0.011087
4363.02	-0.697266	-0.0244629
4363.5	0.484161	2.53601e-05
4364	0.482513	0.00695801
4364.46	-0.697693	-0.018631
4364.94	0.483826	2.15454e-05
4365.44	0.48291	0.000646667
4365.92	0.000500488	0.00607971
4366.38	0.483093	2.27661e-05
4366.88	0.483246	0.000169647
4367.36	-0.00045166	0.00427032
4367.82	0.48407	1.27869e-05
4368.32	0.482666	7.75452e-05
4368.82	0.483368	0.0154449
4369.26	0.483154	1.89514e-05
4369.76	0.483582	4.05273e-05
4370.26	0.482513	0.011084
4370.72	-0.696991	-0.0244629
4371.2	0.484436	2.4231e-05
4371.7	0.482635	0.00696899
4372.16	-0.697876	-0.0186401
4372.64	0.484222	1.92871e-05
4373.14	0.483795	0.000646362
4373.62	-0.00043335	0.00607452
4374.08	0.483124	2.32849e-05
4374.58	0.483978	0.000163574
4375.06	-0.00043335	0.00425873
4375.52	0.483917	1.38245e-05
4376.02	0.482727	7.84302e-05
4376.52	0.482239	0.0154541
4376.96	0.484375	9.27734e-06
4377.46	0.484283	3.83606e-05
4377.96	0.483551	0.0110809
4378.42	-0.698273	-0.024472
4378.9	0.482788	3.6438e-05
4379.4	0.4841	0.00697144
4379.86	-0.697876	-0.0186249
4380.34	0.483398	2.11792e-05
4380.84	0.48288	0.000658569
4381.32	0.000473022	0.00605621
4381.78	0.483185	2.35901e-05
4382.28	0.482849	0.000171265
4382.76	-0.000619507	0.00425781
4383.22	0.483826	1.66016e-05
4383.72	0.48407	7.05261e-05
4384.22	0.483398	0.0154358
4384.66	0.483063	1.73035e-05
4385.16	0.482697	4.89502e-05
4385.66	0.483032	0.0110779
4386.12	-0.697449	-0.0244751
4386.6	0.484253	2.49023e-05
4387.1	0.484222	0.00698181
4387.56	-0.697968	-0.0186462
4388.04	0.482758	3.01208e-05
4388.54	0.484375	0.000653687
4389.02	0.000848389	0.00604919
4389.48	0.48288	2.3468e-05
4389.98	0.483002	0.000172699
4390.46	-0.000415039	0.00424683
4390.92	0.483521	1.62354e-05
4391.42	0.484406	6.91528e-05
4391.92	0.482056	0.015451
4392.36	0.482697	2.06604e-05
4392.86	0.482941	4.67224e-05
4393.36	0.483765	0.0110809
4393.82	-0.697113	-0.0244843
4394.3	0.483002	3.40271e-05
4394.8	0.484009	0.00699738
4395.26	-0.699097	-0.0186523
4395.74	0.483215	2.64282e-05
4396.24	0.48407	0.000663147
4396.72	0.00065918	0.00604156
4397.18	0.483521	2.03552e-05
4397.68	0.484375	0.000163696
4398.16	-0.000561523	0.00424622
4398.62	0.484406	1.03455e-05
4399.12	0.484375	6.73828e-05
4399.62	0.4823	0.0154388
4400.06	0.482788	1.81274e-05
4400.56	0.482605	5.13e-05
4401.06	0.483673	0.0110931
4401.52	-0.697571	-0.0244751
4402	0.483459	2.91138e-05
4402.5	0.48288	0.00701996
4402.96	-0.697784	-0.0186859
4403.44	0.48349	2.58484e-05
4403.94	0.484314	0.000665283
4404.42	-0.000192261	0.00604095
4404.88	0.484222	1.44348e-05
4405.38	0.483643	0.000168091
4405.86	0.000848389	0.00423615
4406.32	0.482727	2.23999e-05
4406.82	0.484161	6.93054e-05
4407.32	0.482147	0.0154663
4407.76	0.483826	1.25122e-05
4408.26	0.483887	4.22363e-05
4408.76	0.482666	0.0111023
4409.22	-0.69873	-0.0244904
4409.7	0.484314	2.63062e-05
4410.2	0.483093	0.00702881
4410.66	-0.697876	-0.0186859
4411.14	0.483948	2.09656e-05
4411.64	0.482971	0.000679626
4412.12	0.000497437	0.00602448
4412.58	0.483154	2.0874e-05
4413.08	0.482727	0.000177032
4413.56	-0.000234985	0.00423828
4414.02	0.484436	1.27258e-05
4414.52	0.482727	8.05359e-05
4415.02	0.483246	0.0154541
4415.46	0.48407	1.19629e-05
4415.96	0.483978	4.19922e-05
4416.46	0.482971	0.0111145
4416.92	-0.69873	-0.0244904
4417.4	0.483093	3.70178e-05
4417.9	0.482819	0.00704498
4418.36	-0.6987	-0.018689
4418.84	0.483612	2.44141e-05
4419.34	0.483429	0.00068634
4419.82	0.000656128	0.0060141
4420.28	0.483063	2.31323e-05
4420.78	0.483551	0.000170502
4421.26	-0.000775146	0.00423096
4421.72	0.483978	1.474e-05
4422.22	0.482758	7.97119e-05
4422.72	0.482574	0.015448
4423.16	0.482788	1.9043e-05
4423.66	0.484375	3.8208e-05
4424.16	0.482666	0.0111176
4424.62	-0.698761	-0.0244995
4425.1	0.484009	2.82288e-05
4425.6	0.482941	0.00705353
4426.06	-0.698547	-0.0186981
4426.54	0.483368	2.58179e-05
4427.04	0.483917	0.000683899
4427.52	-0.000778198	0.00601837
4427.98	0.483734	1.84021e-05
4428.48	0.4841	0.000170044
4428.96	0.000790405	0.00421875
4429.42	0.483307	1.80664e-05
4429.92	0.483551	7.27539e-05
4430.42	0.483582	0.0154419
4430.86	0.482788	2.09961e-05
4431.36	0.482635	5.05981e-05
4431.86	0.483826	0.0111145
4432.32	-0.697144	-0.0245087
4432.8	0.482605	3.62244e-05
4433.3	0.48407	0.0070578
4433.76	-0.698334	-0.0187195
4434.24	0.483002	2.96936e-05
4434.74	0.484039	0.000687866
4435.22	-0.000509644	0.0060083
4435.68	0.482788	2.38647e-05
4436.18	0.482758	0.000179443
4436.66	-0.000244141	0.00422241
4437.12	0.48291	2.10266e-05
4437.62	0.483795	7.15942e-05
4438.12	0.481934	0.0154602
4438.56	0.484344	1.01318e-05
4439.06	0.483673	4.43726e-05
4439.56	0.482819	0.0111328
4440.02	-0.698578	-0.0244995
4440.5	0.482727	3.72925e-05
4441	0.482513	0.00707611
4441.46	-0.697754	-0.0187256
4441.94	0.484406	1.82495e-05
4442.44	0.483521	0.000697937
4442.92	9.15527e-06	0.0059964
4443.38	0.484009	1.70898e-05
4443.88	0.482727	0.000181915
4444.36	0.0009765625	0.00420624
4444.82	0.4841	1.42822e-05
4445.32	0.483185	7.70874e-05
4445.82	0.483612	0.015448
4446.26	0.482758	1.81274e-05
4446.76	0.482788	4.89502e-05
4446.98	0.484192	7.59888e-06