File: Edgar/20240531/20240531/electrodeposition_pulsed_potential_20240531_A/pulses_1000_to_2000.txt
Time (s)	WE(1).Potential (V)	WE(1).Current (A)
895.834	-0.698303	-0.0165924
896.314	0.484192	2.13623e-07
896.814	0.484467	3.10974e-05
897.274	-0.69809	-0.0092041
897.754	0.482727	9.39941e-06
898.254	0.483398	2.23694e-05
898.734	0.000460815	0.0107971
899.194	0.482483	1.01013e-05
899.694	0.482727	1.70593e-05
900.174	-0.000427246	0.00524567
900.634	0.483917	3.05176e-07
901.134	0.483124	1.10474e-05
901.634	0.482758	0.00726349
902.074	0.483032	6.04248e-06
902.574	0.48291	1.16577e-05
903.074	0.482819	0.00011618
903.534	-0.69928	-0.0163849
904.014	0.4841	8.54492e-07
904.514	0.482758	4.4342e-05
904.974	-0.699402	-0.00919495
905.454	0.484253	-2.74658e-07
905.954	0.484253	1.54114e-05
906.434	-0.000280762	0.0108582
906.894	0.48288	9.27734e-06
907.394	0.482666	1.90125e-05
907.874	-0.000567627	0.00530731
908.334	0.482666	9.52148e-06
908.834	0.482697	1.4801e-05
909.334	0.482697	0.00742218
909.774	0.484161	-3.08228e-06
910.274	0.482849	1.32141e-05
910.774	0.482788	0.000119263
911.234	-0.69931	-0.0164276
911.714	0.484161	2.04468e-06
912.214	0.484131	3.54309e-05
912.674	-0.698212	-0.00923462
913.154	0.484161	3.8147e-06
913.654	0.48407	1.50452e-05
914.134	0.000592041	0.0108795
914.594	0.483704	1.58691e-06
915.094	0.484406	7.26318e-06
915.574	-0.000509644	0.00533813
916.034	0.484009	-5.18799e-07
916.534	0.484467	4.48608e-06
917.034	0.48349	0.0075592
917.474	0.483673	-2.31934e-06
917.974	0.483856	2.89917e-06
918.474	0.483612	0.000114136
918.934	-0.698273	-0.0164734
919.414	0.482635	1.22986e-05
919.914	0.48349	4.21753e-05
920.374	-0.699554	-0.00926514
920.854	0.484344	1.25122e-06
921.354	0.483246	2.17285e-05
921.834	-0.000378418	0.0108795
922.294	0.482574	1.02844e-05
922.794	0.484314	8.11768e-06
923.274	-0.00057373	0.00536591
923.734	0.482727	9.46045e-06
924.234	0.483765	7.04956e-06
924.734	0.483643	0.00768738
925.174	0.484131	-1.12915e-06
925.674	0.483948	4.05884e-06
926.174	0.48288	0.000122131
926.634	-0.698822	-0.0165222
927.114	0.482788	1.1261e-05
927.614	0.482605	4.72717e-05
928.074	-0.698212	-0.00930481
928.554	0.483215	6.31714e-06
929.054	0.482849	2.84729e-05
929.534	-0.000759888	0.010907
929.994	0.482727	9.8877e-06
930.494	0.483765	1.35193e-05
930.974	0.000802612	0.00538452
931.434	0.484283	-7.62939e-07
931.934	0.484283	2.22778e-06
932.434	0.484161	0.00777893
932.874	0.484192	4.88281e-07
933.374	0.483643	7.84302e-06
933.874	0.483948	0.000115112
934.334	-0.697632	-0.0165771
934.814	0.483185	8.81958e-06
935.314	0.483276	4.32434e-05
935.774	-0.699463	-0.00934143
936.254	0.482819	1.04675e-05
936.754	0.483063	2.44141e-05
937.234	-0.00122681	0.0108948
937.694	0.482666	1.171875E-05
938.194	0.483154	1.79443e-05
938.674	0.0009552	0.00540161
939.134	0.484467	-3.57056e-06
939.634	0.483948	6.37817e-06
940.134	0.482391	0.00788574
940.574	0.484436	-2.13623e-06
941.074	0.484314	7.32422e-07
941.574	0.483795	0.000118195
942.034	-0.697662	-0.0166138
942.514	0.48349	5.49316e-06
943.014	0.483002	4.64783e-05
943.474	-0.698425	-0.00937195
943.954	0.483643	6.2561e-06
944.454	0.484436	1.94397e-05
944.934	-0.00111084	0.0109161
945.394	0.48291	7.69043e-06
945.894	0.482788	1.95618e-05
946.374	0.000973511	0.00542267
946.834	0.484253	-1.37329e-06
947.334	0.483063	1.11694e-05
947.834	0.482452	0.00797729
948.274	0.484314	-3.05176e-07
948.774	0.484436	1.34277e-06
949.274	0.48407	0.00011557
949.734	-0.698273	-0.0166504
950.214	0.483215	9.27734e-06
950.714	0.484589	3.46985e-05
951.174	-0.697968	-0.00942078
951.654	0.482941	9.18579e-06
952.154	0.48407	1.87988e-05
952.634	-0.00114441	0.010907
953.094	0.482758	9.12476e-06
953.594	0.483398	1.51672e-05
954.074	-0.000515747	0.00545227
954.534	0.483246	5.7373e-06
955.034	0.484375	8.39233e-06
955.534	0.482361	0.00808716
955.974	0.48291	7.04956e-06
956.474	0.48349	8.66699e-06
956.974	0.484375	0.000117798
957.434	-0.699341	-0.0166962
957.914	0.483704	5.88989e-06
958.414	0.484283	3.65295e-05
958.874	-0.698975	-0.00946655
959.354	0.482727	1.171875E-05
959.854	0.482666	2.72827e-05
960.334	0.000616455	0.0108978
960.794	0.484406	-2.13623e-06
961.294	0.484558	6.98853e-06
961.774	-0.000500488	0.00546387
962.234	0.482635	7.56836e-06
962.734	0.483002	1.38245e-05
963.234	0.484039	0.00816345
963.674	0.483032	5.61523e-06
964.174	0.484039	5.27954e-06
964.674	0.48407	0.000120636
965.134	-0.69809	-0.016745
965.614	0.484406	7.01904e-07
966.114	0.484406	3.65295e-05
966.574	-0.699554	-0.00948792
967.054	0.482544	1.15967e-05
967.554	0.484528	1.46484e-05
968.034	-0.000222778	0.0108948
968.494	0.483459	5.43213e-06
968.994	0.484161	8.23975e-06
969.474	0.00090332	0.00547394
969.934	0.484253	-1.98364e-06
970.434	0.484406	3.8147e-06
970.934	0.484039	0.00826416
971.374	0.483276	1.80054e-06
971.874	0.483093	1.32446e-05
972.374	0.48407	0.000122833
972.834	-0.698334	-0.0167969
973.314	0.484436	-4.27246e-07
973.814	0.482849	4.53491e-05
974.274	-0.699677	-0.00954285
974.754	0.48291	9.33838e-06
975.254	0.484039	2.03247e-05
975.734	-0.000280762	0.0108887
976.194	0.483002	7.72095e-06
976.694	0.482941	1.95618e-05
977.174	-0.000592041	0.00549377
977.634	0.483185	9.70459e-06
978.134	0.484375	2.53296e-06
978.634	0.48233	0.00836487
979.074	0.482727	8.05664e-06
979.574	0.482819	1.12915e-05
980.074	0.482666	0.00013501
980.534	-0.697601	-0.0168427
981.014	0.484131	1.83105e-06
981.514	0.483246	4.45862e-05
981.974	-0.699432	-0.00957336
982.454	0.483521	5.0354e-06
982.954	0.483826	1.95007e-05
983.434	-0.00113525	0.0109009
983.894	0.48349	1.64795e-06
984.394	0.48288	1.90735e-05
984.874	-0.00020752	0.00551117
985.334	0.482697	8.97217e-06
985.834	0.48288	1.41907e-05
986.334	0.482666	0.00845337
986.774	0.48349	5.92041e-06
987.274	0.483276	1.1261e-05
987.774	0.483002	0.000134613
988.234	-0.699249	-0.016864
988.714	0.482605	1.21765e-05
989.214	0.483307	4.75464e-05
989.674	-0.69986	-0.00960693
990.154	0.482544	1.26953e-05
990.654	0.484406	1.73645e-05
991.134	-0.000689697	0.0108978
991.594	0.484406	-1.67847e-06
992.094	0.483673	1.01624e-05
992.574	-0.000686646	0.00553162
993.034	0.483215	6.56128e-06
993.534	0.482605	1.69067e-05
994.034	0.483459	0.00852966
994.474	0.48407	3.35693e-07
994.974	0.484406	3.05176e-06
995.474	0.483276	0.000133484
995.934	-0.698456	-0.0169067
996.414	0.484009	3.02124e-06
996.914	0.483856	4.11682e-05
997.374	-0.698059	-0.00966187
997.854	0.482697	1.08337e-05
998.354	0.483063	2.39258e-05
998.834	-0.00115662	0.0108887
999.294	0.482666	8.88062e-06
999.794	0.484436	9.42993e-06
1000.27	-0.000744629	0.00554474
1000.73	0.482666	9.85718e-06
1001.23	0.484314	6.92749e-06
1001.73	0.482758	0.00859985
1002.17	0.483612	6.50024e-06
1002.67	0.484375	1.80054e-06
1003.17	0.483063	0.000135712
1003.63	-0.697784	-0.0169403
1004.11	0.482849	1.33972e-05
1004.61	0.484589	3.85132e-05
1005.07	-0.699097	-0.00969238
1005.55	0.484375	7.01904e-07
1006.05	0.482666	2.90833e-05
1006.53	0.000561523	0.0108795
1006.99	0.484406	-3.479e-06
1007.49	0.483002	1.75781e-05
1007.97	-0.000494385	0.00556061
1008.43	0.483887	3.66211e-07
1008.93	0.482635	1.67236e-05
1009.43	0.483948	0.00866394
1009.87	0.484039	-2.44141e-06
1010.37	0.482544	1.44348e-05
1010.87	0.483398	0.000135193
1011.33	-0.697723	-0.016983
1011.81	0.482941	9.82666e-06
1012.31	0.483673	4.48608e-05
1012.77	-0.697937	-0.00973206
1013.25	0.482819	1.12e-05
1013.75	0.484344	1.80054e-05
1014.23	0.000543213	0.0108734
1014.69	0.484283	-1.00708e-06
1015.19	0.482971	1.83716e-05
1015.67	-0.000360107	0.00557465
1016.13	0.484436	-7.01904e-07
1016.63	0.484253	6.31714e-06
1017.13	0.483368	0.00875854
1017.57	0.48291	6.89697e-06
1018.07	0.484467	2.13623e-06
1018.57	0.482666	0.000144073
1019.03	-0.69931	-0.0170197
1019.51	0.482941	1.14746e-05
1020.01	0.484131	4.36096e-05
1020.47	-0.698212	-0.009765625
1020.95	0.482666	1.09558e-05
1021.45	0.482971	2.72827e-05
1021.93	2.13623e-05	0.0108673
1022.39	0.482635	1.0498e-05
1022.89	0.4841	1.09558e-05
1023.37	3.05176e-06	0.00558777
1023.83	0.484406	1.83105e-07
1024.33	0.484375	4.5166e-06
1024.83	0.48407	0.00883179
1025.27	0.484406	-2.71606e-06
1025.77	0.484497	2.99072e-06
1026.27	0.482544	0.000144775
1026.73	-0.699066	-0.0170532
1027.21	0.4841	2.16675e-06
1027.71	0.483368	4.47693e-05
1028.17	-0.699219	-0.00979309
1028.65	0.483093	9.15527e-06
1029.15	0.484253	1.94092e-05
1029.63	0.000524902	0.0108673
1030.09	0.482697	1.03455e-05
1030.59	0.483765	1.55029e-05
1031.07	0.000906372	0.00558746
1031.53	0.483246	9.24683e-06
1032.03	0.484222	6.95801e-06
1032.53	0.483398	0.00890808
1032.97	0.483826	1.12915e-06
1033.47	0.483246	1.01929e-05
1033.97	0.484009	0.000133301
1034.43	-0.69754	-0.0171082
1034.91	0.483337	8.30078e-06
1035.41	0.484344	4.05884e-05
1035.87	-0.699615	-0.00984802
1036.35	0.48288	9.27734e-06
1036.85	0.482727	3.03345e-05
1037.33	0.000488281	0.0108612
1037.79	0.484436	-1.06812e-06
1038.29	0.484375	1.00098e-05
1038.77	-0.000765991	0.00560883
1039.23	0.48407	3.60107e-06
1039.73	0.482635	1.66626e-05
1040.23	0.482635	0.008984375
1040.67	0.482666	9.49097e-06
1041.17	0.482574	1.55334e-05
1041.67	0.484528	0.00013446
1042.13	-0.699493	-0.0171478
1042.61	0.483582	5.58472e-06
1043.11	0.483734	4.43115e-05
1043.57	-0.698273	-0.00987549
1044.05	0.484375	-1.52588e-07
1044.55	0.484131	2.13623e-05
1045.03	-0.00072937	0.0108521
1045.49	0.483582	3.69263e-06
1045.99	0.483795	1.49231e-05
1046.47	0.000512695	0.00562103
1046.93	0.484558	-2.10571e-06
1047.43	0.482605	1.83105e-05
1047.93	0.482727	0.00906372
1048.37	0.483307	6.16455e-06
1048.87	0.482574	1.55334e-05
1049.37	0.484436	0.00013739
1049.83	-0.699432	-0.0171906
1050.31	0.483185	1.0376e-05
1050.81	0.484406	4.04053e-05
1051.27	-0.699036	-0.00992737
1051.75	0.483887	3.72314e-06
1052.25	0.484314	1.94092e-05
1052.73	-0.00115356	0.0108582
1053.19	0.482605	1.12305e-05
1053.69	0.483887	1.29089e-05
1054.17	3.05176e-05	0.00562653
1054.63	0.484222	1.49536e-06
1055.13	0.484375	6.19507e-06
1055.63	0.482635	0.00915527
1056.07	0.482697	8.94165e-06
1056.57	0.484467	3.96729e-06
1057.07	0.484375	0.000140747
1057.53	-0.698456	-0.0172333
1058.01	0.483459	6.56128e-06
1058.51	0.484406	3.93982e-05
1058.97	-0.698822	-0.00997009
1059.45	0.484314	-1.83105e-07
1059.95	0.484375	1.83105e-05
1060.43	0.000280762	0.0108521
1060.89	0.484192	-6.10352e-08
1061.39	0.484131	1.15662e-05
1061.87	0.000189209	0.00564484
1062.33	0.483765	3.38745e-06
1062.83	0.483673	8.88062e-06
1063.33	0.482941	0.00921631
1063.77	0.484406	-3.87573e-06
1064.27	0.484314	7.08008e-06
1064.77	0.484161	0.0001427
1065.23	-0.697937	-0.0172699
1065.71	0.483368	8.42285e-06
1066.21	0.48407	4.11682e-05
1066.67	-0.699982	-0.00999451
1067.15	0.482666	1.3092e-05
1067.65	0.483521	2.39868e-05
1068.13	-0.000585937	0.0108368
1068.59	0.483826	4.63867e-06
1069.09	0.484375	9.552e-06
1069.57	-0.000375366	0.00565826
1070.03	0.482788	9.49097e-06
1070.53	0.483002	1.47705e-05
1071.03	0.483734	0.00926819
1071.47	0.484589	-2.96021e-06
1071.97	0.483948	5.64575e-06
1072.47	0.482971	0.000151489
1072.93	-0.699005	-0.0173035
1073.41	0.484375	3.20435e-06
1073.91	0.484192	4.22668e-05
1074.37	-0.69812	-0.0100403
1074.85	0.483917	3.54004e-06
1075.35	0.483826	2.48413e-05
1075.83	0.000112915	0.0108429
1076.29	0.483856	1.25122e-06
1076.79	0.484222	1.16577e-05
1077.27	-0.000640869	0.00566925
1077.73	0.482819	8.36182e-06
1078.23	0.483032	1.55334e-05
1078.73	0.483246	0.00933838
1079.17	0.484161	-1.06812e-06
1079.67	0.484283	2.83813e-06
1080.17	0.484131	0.000148468
1080.63	-0.697754	-0.0173492
1081.11	0.48288	1.22375e-05
1081.61	0.483551	4.9408e-05
1082.07	-0.698792	-0.0100769
1082.55	0.482544	1.16882e-05
1083.05	0.482849	2.72217e-05
1083.53	-0.000646973	0.0108276
1083.99	0.482635	1.23291e-05
1084.49	0.482635	2.15149e-05
1084.97	-0.000177002	0.00568054
1085.43	0.484283	-1.09863e-06
1085.93	0.4841	8.42285e-06
1086.43	0.482574	0.00941162
1086.87	0.484314	-3.20435e-06
1087.37	0.483948	7.23267e-06
1087.87	0.483246	0.000156128
1088.33	-0.697998	-0.0173889
1088.81	0.483826	5.98145e-06
1089.31	0.482819	5.45654e-05
1089.77	-0.698181	-0.0101074
1090.25	0.483246	8.63647e-06
1090.75	0.483826	2.48108e-05
1091.23	0.00010376	0.0108215
1091.69	0.483246	8.02612e-06
1092.19	0.484406	1.13525e-05
1092.67	-0.000454712	0.00568817
1093.13	0.483765	1.77002e-06
1093.63	0.484375	6.22559e-06
1094.13	0.483307	0.0094696
1094.57	0.484283	-6.10352e-08
1095.07	0.483704	7.47681e-06
1095.57	0.482849	0.000160034
1096.03	-0.698669	-0.0174194
1096.51	0.482727	1.26343e-05
1097.01	0.483826	4.776e-05
1097.47	-0.699463	-0.010144
1097.95	0.483429	6.7749e-06
1098.45	0.484161	2.0874e-05
1098.93	-0.00012207	0.0108154
1099.39	0.484314	-2.74658e-07
1099.89	0.484161	1.32446e-05
1100.37	0.000195313	0.0056955
1100.83	0.48291	8.5144e-06
1101.33	0.483948	1.18713e-05
1101.83	0.483887	0.00954285
1102.27	0.483612	3.90625e-06
1102.77	0.483948	6.56128e-06
1103.27	0.483459	0.000155548
1103.73	-0.698456	-0.0174683
1104.21	0.484131	3.14331e-06
1104.71	0.484192	4.48303e-05
1105.17	-0.69873	-0.0101776
1105.65	0.483521	6.073e-06
1106.15	0.483429	2.76794e-05
1106.63	-0.000375366	0.0108124
1107.09	0.482788	9.46045e-06
1107.59	0.483368	1.77307e-05
1108.07	-0.000576782	0.00571381
1108.53	0.484406	-1.2207e-07
1109.03	0.482758	1.66626e-05
1109.53	0.482452	0.00961304
1109.97	0.482819	9.12476e-06
1110.47	0.484131	6.50024e-06
1110.97	0.482941	0.000161957
1111.43	-0.699127	-0.0175049
1111.91	0.483887	5.15747e-06
1112.41	0.482727	5.33752e-05
1112.87	-0.699829	-0.0102081
1113.35	0.484436	5.49316e-07
1113.85	0.48349	2.56653e-05
1114.33	-0.00102539	0.0108215
1114.79	0.483032	7.38525e-06
1115.29	0.483185	1.85852e-05
1115.77	0.000259399	0.00571747
1116.23	0.484344	-2.19727e-06
1116.73	0.482727	1.87073e-05
1117.23	0.484009	0.00966797
1117.67	0.484009	5.49316e-07
1118.17	0.483307	9.15527e-06
1118.67	0.48349	0.00016156
1119.13	-0.697693	-0.0175537
1119.61	0.484375	3.44849e-06
1120.11	0.483917	4.46777e-05
1120.57	-0.699768	-0.0102478
1121.05	0.483429	4.73022e-06
1121.55	0.483917	2.58484e-05
1122.03	-0.00114746	0.0108063
1122.49	0.482788	1.17798e-05
1122.99	0.482727	1.92566e-05
1123.47	0.000872803	0.00572205
1123.93	0.484467	-3.11279e-06
1124.43	0.482971	1.64795e-05
1124.93	0.483124	0.00972595
1125.37	0.48288	7.35474e-06
1125.87	0.484253	5.85937e-06
1126.37	0.483215	0.000164154
1126.83	-0.69809	-0.0175781
1127.31	0.484009	2.89917e-06
1127.81	0.482849	5.64575e-05
1128.27	-0.698517	-0.0102997
1128.75	0.482819	1.24817e-05
1129.25	0.484467	2.17285e-05
1129.73	-0.00124817	0.010791
1130.19	0.483246	5.15747e-06
1130.69	0.484406	1.01318e-05
1131.17	0.000823975	0.00573059
1131.63	0.483917	1.58691e-06
1132.13	0.484283	3.69263e-06
1132.63	0.482788	0.00981445
1133.07	0.482788	9.24683e-06
1133.57	0.484375	3.14331e-06
1134.07	0.484436	0.000157867
1134.53	-0.699524	-0.0176239
1135.01	0.482666	1.32446e-05
1135.51	0.484314	4.57764e-05
1135.97	-0.699768	-0.0103363
1136.45	0.484222	1.61743e-06
1136.95	0.484192	2.27051e-05
1137.43	6.10352e-06	0.0107788
1137.89	0.484406	-3.35693e-07
1138.39	0.482727	2.38342e-05
1138.87	-4.88281e-05	0.00575195
1139.33	0.482788	9.46045e-06
1139.83	0.484161	8.54492e-06
1140.33	0.483246	0.00986938
1140.77	0.482666	7.53784e-06
1141.27	0.483337	9.12476e-06
1141.77	0.482788	0.00017276
1142.23	-0.699249	-0.0176575
1142.71	0.484039	1.46484e-06
1143.21	0.482605	6.01196e-05
1143.67	-0.698944	-0.0103668
1144.15	0.483856	3.479e-06
1144.65	0.484528	2.11182e-05
1145.13	0.000576782	0.0107788
1145.59	0.483917	3.23486e-06
1146.09	0.484436	1.2085e-05
1146.57	0.000915527	0.00575317
1147.03	0.484436	-2.68555e-06
1147.53	0.484375	7.47681e-06
1148.03	0.483582	0.00991821
1148.47	0.484436	-2.01416e-06
1148.97	0.483887	6.86646e-06
1149.47	0.482635	0.000175964
1149.93	-0.699036	-0.0176849
1150.41	0.482605	1.37939e-05
1150.91	0.483276	5.48401e-05
1151.37	-0.699829	-0.0103943
1151.85	0.483246	7.84302e-06
1152.35	0.483704	2.70386e-05
1152.83	-0.000979614	0.0107819
1153.29	0.483276	9.61304e-06
1153.79	0.484406	1.06812e-05
1154.27	0.000845337	0.00576355
1154.73	0.483765	1.25122e-06
1155.23	0.482849	1.96838e-05
1155.73	0.483215	0.0099823
1156.17	0.482635	9.61304e-06
1156.67	0.484314	4.5166e-06
1157.17	0.484375	0.000164703
1157.63	-0.699188	-0.0177429
1158.11	0.482697	1.34277e-05
1158.61	0.483612	5.31006e-05
1159.07	-0.698608	-0.0104431
1159.55	0.484161	2.16675e-06
1160.05	0.482971	3.01514e-05
1160.53	-0.000354004	0.0107758
1160.99	0.482788	9.8877e-06
1161.49	0.484375	1.20239e-05
1161.97	-0.000698853	0.00577789
1162.43	0.483063	7.14111e-06
1162.93	0.484253	7.84302e-06
1163.43	0.482819	0.0100464
1163.87	0.484344	-1.95313e-06
1164.37	0.484406	3.60107e-06
1164.87	0.482727	0.000179047
1165.33	-0.698059	-0.0177856
1165.81	0.484528	2.38037e-06
1166.31	0.483917	5.02625e-05
1166.77	-0.69809	-0.0104797
1167.25	0.483215	1.22681e-05
1167.75	0.483124	2.50244e-05
1168.23	0.000311279	0.0107635
1168.69	0.4841	1.2207e-06
1169.19	0.483521	2.12402e-05
1169.67	-0.000735474	0.00578857
1170.13	0.483002	8.45337e-06
1170.63	0.483734	9.85718e-06
1171.13	0.483154	0.0101044
1171.57	0.483398	2.19727e-06
1172.07	0.483276	1.34277e-05
1172.57	0.484131	0.000170624
1173.03	-0.697632	-0.0178162
1173.51	0.483765	8.3313e-06
1174.01	0.483887	5.078125E-05
1174.47	-0.699585	-0.0105042
1174.95	0.48407	2.96021e-06
1175.45	0.482788	3.26538e-05
1175.93	-0.000369263	0.0107452
1176.39	0.483368	7.20215e-06
1176.89	0.482971	2.28882e-05
1177.37	-0.000418091	0.0057962
1177.83	0.483734	4.57764e-07
1178.33	0.483307	1.49841e-05
1178.83	0.482513	0.0101593
1179.27	0.482971	6.98853e-06
1179.77	0.482758	1.5564e-05
1180.27	0.482849	0.000183441
1180.73	-0.698792	-0.0178589
1181.21	0.484009	4.08936e-06
1181.71	0.48407	5.40771e-05
1182.17	-0.698853	-0.010553
1182.65	0.484314	9.15527e-07
1183.15	0.483887	2.36206e-05
1183.63	-0.00027771	0.0107574
1184.09	0.483368	5.79834e-06
1184.59	0.482605	2.29187e-05
1185.07	-0.000717163	0.00580933
1185.53	0.482788	8.94165e-06
1186.03	0.483948	1.08948e-05
1186.53	0.48349	0.0102112
1186.97	0.483887	1.83105e-06
1187.47	0.484406	4.91333e-06
1187.97	0.483887	0.000177704
1188.43	-0.697601	-0.0178986
1188.91	0.484406	2.22778e-06
1189.41	0.48349	5.34668e-05
1189.87	-0.698303	-0.0105804
1190.35	0.484375	1.98364e-06
1190.85	0.484222	2.34985e-05
1191.33	0.000164795	0.0107513
1191.79	0.483276	6.40869e-06
1192.29	0.4841	1.41602e-05
1192.77	0.000543213	0.00580994
1193.23	0.483978	7.32422e-07
1193.73	0.484222	8.42285e-06
1194.23	0.483856	0.0102661
1194.67	0.483734	3.72314e-06
1195.17	0.48349	7.08008e-06
1195.67	0.483215	0.000185059
1196.13	-0.698883	-0.017926
1196.61	0.484161	4.21143e-06
1197.11	0.483032	6.01501e-05
1197.57	-0.698822	-0.0106293
1198.05	0.483887	6.04248e-06
1198.55	0.48288	3.18909e-05
1199.03	-0.000195313	0.010733
1199.49	0.482758	9.33838e-06
1199.99	0.484406	1.23291e-05
1200.47	-0.000286865	0.00581787
1200.93	0.484375	-7.62939e-07
1201.43	0.482635	2.02026e-05
1201.93	0.483765	0.0103271
1202.37	0.482727	1.01929e-05
1202.87	0.484375	2.2583e-06
1203.37	0.483032	0.000191193
1203.83	-0.698151	-0.0179749
1204.31	0.482697	1.41296e-05
1204.81	0.483978	5.11169e-05
1205.27	-0.699768	-0.0106476
1205.75	0.482697	1.33362e-05
1206.25	0.484344	2.32239e-05
1206.73	0.000106812	0.01073
1207.19	0.482635	1.35803e-05
1207.69	0.483459	1.79749e-05
1208.17	-0.000640869	0.0058255
1208.63	0.483185	4.91333e-06
1209.13	0.482574	2.07214e-05
1209.63	0.4823	0.0103973
1210.07	0.483704	3.32642e-06
1210.57	0.483246	8.36182e-06
1211.07	0.482758	0.000194824
1211.53	-0.699188	-0.0180084
1212.01	0.484192	3.44849e-06
1212.51	0.484589	5.13e-05
1212.97	-0.699677	-0.0107025
1213.45	0.482666	1.02539e-05
1213.95	0.484222	2.44446e-05
1214.43	-1.2207e-05	0.0107056
1214.89	0.483795	3.11279e-06
1215.39	0.483612	1.75781e-05
1215.87	-0.000582886	0.00583374
1216.33	0.482727	1.12e-05
1216.83	0.484375	7.69043e-06
1217.33	0.482727	0.0104462
1217.77	0.483765	1.09863e-06
1218.27	0.482666	1.60522e-05
1218.77	0.484009	0.000188263
1219.23	-0.697632	-0.0180573
1219.71	0.483337	8.63647e-06
1220.21	0.482819	6.14929e-05
1220.67	-0.699799	-0.0107208
1221.15	0.483948	3.75366e-06
1221.65	0.484436	2.23083e-05
1222.13	-0.0009552	0.0106964
1222.59	0.482727	1.3092e-05
1223.09	0.482849	2.29187e-05
1223.57	-0.000369263	0.00584717
1224.03	0.483673	5.40161e-06
1224.53	0.48349	1.46484e-05
1225.03	0.4841	0.0104889
1225.47	0.484314	-2.0752e-06
1225.97	0.484344	3.02124e-06
1226.47	0.483521	0.000191589
1226.93	-0.699066	-0.0180878
1227.41	0.48288	1.2085e-05
1227.91	0.484314	4.94995e-05
1228.37	-0.699341	-0.0107635
1228.85	0.484009	2.80762e-06
1229.35	0.483765	2.85034e-05
1229.83	-0.000888062	0.0106995
1230.29	0.482788	1.06812e-05
1230.79	0.483215	2.02942e-05
1231.27	0.000613403	0.00584442
1231.73	0.483887	3.05176e-06
1232.23	0.48407	8.30078e-06
1232.73	0.482513	0.0105499
1233.17	0.484253	-1.58691e-06
1233.67	0.483551	8.91113e-06
1234.17	0.482727	0.000202209
1234.63	-0.697784	-0.0181335
1235.11	0.483765	6.95801e-06
1235.61	0.482788	6.24084e-05
1236.07	-0.699677	-0.0107971
1236.55	0.484161	2.89917e-06
1237.05	0.482819	3.52783e-05
1237.53	-0.000268555	0.0106873
1237.99	0.483063	9.3689e-06
1238.49	0.483856	1.58691e-05
1238.97	-0.000152588	0.00585358
1239.43	0.484253	-3.66211e-07
1239.93	0.483917	9.94873e-06
1240.43	0.482391	0.0106049
1240.87	0.483887	2.28882e-06
1241.37	0.484283	6.50024e-06
1241.87	0.482819	0.000204376
1242.33	-0.69873	-0.0181732
1242.81	0.483154	1.09863e-05
1243.31	0.483765	5.57556e-05
1243.77	-0.698334	-0.0108429
1244.25	0.4841	3.96729e-06
1244.75	0.482971	3.51257e-05
1245.23	-0.000866699	0.0106873
1245.69	0.484253	7.93457e-07
1246.19	0.484131	1.54114e-05
1246.67	-0.000485229	0.00586578
1247.13	0.482635	1.09863e-05
1247.63	0.483887	9.30786e-06
1248.13	0.483978	0.0106445
1248.57	0.483215	5.67627e-06
1249.07	0.482605	1.55029e-05
1249.57	0.482666	0.000208679
1250.03	-0.697601	-0.0182007
1250.51	0.484406	2.71606e-06
1251.01	0.483215	6.25305e-05
1251.47	-0.698456	-0.0108643
1251.95	0.482849	1.16577e-05
1252.45	0.482574	3.43628e-05
1252.93	5.79834e-05	0.0106903
1253.39	0.484314	-1.52588e-07
1253.89	0.483459	2.17896e-05
1254.37	-0.000656128	0.00587738
1254.83	0.48291	1.05896e-05
1255.33	0.484436	7.50732e-06
1255.83	0.482666	0.0106995
1256.27	0.483185	7.26318e-06
1256.77	0.483978	7.47681e-06
1257.27	0.484009	0.000202881
1257.73	-0.699341	-0.018222
1258.21	0.482849	1.18713e-05
1258.71	0.484406	5.30396e-05
1259.17	-0.698242	-0.0109009
1259.65	0.483521	7.41577e-06
1260.15	0.483612	2.87476e-05
1260.63	-3.05176e-05	0.0106812
1261.09	0.48407	1.92261e-06
1261.59	0.48288	2.35291e-05
1262.07	0.000878906	0.00586975
1262.53	0.483582	4.73022e-06
1263.03	0.484192	8.36182e-06
1263.53	0.482208	0.0107422
1263.97	0.482758	1.03455e-05
1264.47	0.484436	3.08228e-06
1264.97	0.482849	0.000209442
1265.43	-0.69931	-0.0182465
1265.91	0.482635	1.34583e-05
1266.41	0.484253	5.53894e-05
1266.87	-0.698486	-0.0109283
1267.35	0.484039	3.72314e-06
1267.85	0.48291	3.32642e-05
1268.33	-0.00118103	0.0106598
1268.79	0.484314	3.35693e-07
1269.29	0.483551	1.84326e-05
1269.77	0.000283813	0.00588654
1270.23	0.483673	1.83105e-06
1270.73	0.483978	1.02234e-05
1271.23	0.483002	0.0107971
1271.67	0.4841	-1.19019e-06
1272.17	0.483856	8.05664e-06
1272.67	0.483459	0.000208679
1273.13	-0.699097	-0.0182983
1273.61	0.48291	1.35498e-05
1274.11	0.483398	6.04858e-05
1274.57	-0.699219	-0.010965
1275.05	0.484253	1.89209e-06
1275.55	0.482727	3.53394e-05
1276.03	-0.000741577	0.0106506
1276.49	0.484161	1.58691e-06
1276.99	0.482697	2.72827e-05
1277.47	0.000366211	0.0058847
1277.93	0.483948	1.12915e-06
1278.43	0.482849	2.09351e-05
1278.93	0.483795	0.0108398
1279.37	0.48288	8.94165e-06
1279.87	0.483521	9.00269e-06
1280.37	0.484436	0.000206879
1280.83	-0.698456	-0.0183411
1281.31	0.482697	1.22375e-05
1281.81	0.482666	6.70776e-05
1282.27	-0.699493	-0.0110046
1282.75	0.483337	8.17871e-06
1283.25	0.48291	3.61938e-05
1283.73	0.000238037	0.0106415
1284.19	0.483673	5.31006e-06
1284.69	0.484009	1.64795e-05
1285.17	0.000192261	0.0058963
1285.63	0.483337	6.40869e-06
1286.13	0.483032	1.59912e-05
1286.63	0.483765	0.0108826
1287.07	0.48288	8.27026e-06
1287.57	0.483948	8.75854e-06
1288.07	0.484314	0.000208466
1288.53	-0.699066	-0.0183624
1289.01	0.484131	5.82886e-06
1289.51	0.484039	5.54199e-05
1289.97	-0.699005	-0.0110291
1290.45	0.483765	5.5542e-06
1290.95	0.482819	3.58887e-05
1291.43	-0.00104065	0.0106384
1291.89	0.483948	4.27246e-06
1292.39	0.484039	1.35803e-05
1292.87	0.000668335	0.00589783
1293.33	0.484314	-1.7395e-06
1293.83	0.483032	1.89514e-05
1294.33	0.483307	0.0109344
1294.77	0.483521	4.88281e-06
1295.27	0.483765	9.12476e-06
1295.77	0.482605	0.000223358
1296.23	-0.698761	-0.0184052
1296.71	0.484253	3.8147e-06
1297.21	0.483398	6.12488e-05
1297.67	-0.699158	-0.0110535
1298.15	0.482666	1.3031e-05
1298.65	0.484314	2.53601e-05
1299.13	9.76562e-05	0.0106262
1299.59	0.484222	5.79834e-07
1300.09	0.483521	1.87988e-05
1300.57	0.000674438	0.00590881
1301.03	0.484344	-7.62939e-07
1301.53	0.482849	1.84937e-05
1302.03	0.483948	0.0109741
1302.47	0.483856	8.54492e-07
1302.97	0.482758	1.70288e-05
1303.47	0.484161	0.000216888
1303.93	-0.69809	-0.0184296
1304.41	0.483734	6.28662e-06
1304.91	0.48407	5.88379e-05
1305.37	-0.698883	-0.0110931
1305.85	0.483582	5.31006e-06
1306.35	0.484253	2.64893e-05
1306.83	-0.000354004	0.0106323
1307.29	0.482727	1.14136e-05
1307.79	0.483429	2.06299e-05
1308.27	0.00101013	0.0059137
1308.73	0.484406	-1.83105e-07
1309.23	0.483032	1.49841e-05
1309.73	0.48407	0.0110168
1310.17	0.484558	-2.04468e-06
1310.67	0.483276	1.07727e-05
1311.17	0.484283	0.000220306
1311.63	-0.697968	-0.0184753
1312.12	0.482574	1.48621e-05
1312.62	0.484131	5.859375E-05
1313.08	-0.697968	-0.011145
1313.56	0.483612	6.31714e-06
1314.06	0.482788	3.61328e-05
1314.54	0.000488281	0.0105988
1315	0.483063	9.552e-06
1315.5	0.482941	2.33154e-05
1315.98	-0.000857544	0.00591919
1316.44	0.484283	5.18799e-07
1316.94	0.482697	1.87378e-05
1317.44	0.483795	0.0110596
1317.88	0.484436	-1.2207e-06
1318.38	0.48407	7.90405e-06
1318.88	0.482819	0.000231537
1319.34	-0.699005	-0.018512
1319.82	0.482697	1.50452e-05
1320.32	0.484314	5.63965e-05
1320.78	-0.698639	-0.0111633
1321.26	0.483215	9.85718e-06
1321.76	0.484406	2.5238e-05
1322.24	-0.00132141	0.0106049
1322.7	0.483826	6.74438e-06
1323.2	0.482849	2.57568e-05
1323.68	0.00103455	0.00591858
1324.14	0.484161	-2.0752e-06
1324.64	0.484314	1.13525e-05
1325.14	0.482544	0.0111206
1325.58	0.482697	1.22375e-05
1326.08	0.482941	1.51978e-05
1326.58	0.482971	0.000233337
1327.04	-0.69931	-0.0185364
1327.52	0.483795	5.98145e-06
1328.02	0.483368	6.28357e-05
1328.48	-0.699249	-0.0111938
1328.96	0.484039	3.08228e-06
1329.46	0.484283	2.71301e-05
1329.94	0.000720215	0.0105927
1330.4	0.483856	1.25122e-06
1330.9	0.483063	2.43225e-05
1331.38	-0.000778198	0.00593109
1331.84	0.482513	1.06506e-05
1332.34	0.484375	9.0332e-06
1332.84	0.483978	0.0111542
1333.28	0.48349	7.20215e-06
1333.78	0.48407	7.01904e-06
1334.28	0.483124	0.000234406
1334.74	-0.698486	-0.018573
1335.22	0.482819	1.45264e-05
1335.72	0.482941	6.79626e-05
1336.18	-0.698822	-0.0112213
1336.66	0.484467	1.92261e-06
1337.16	0.484253	2.67334e-05
1337.64	-0.00110474	0.0105804
1338.1	0.482544	1.34277e-05
1338.6	0.484406	1.44958e-05
1339.08	0.00067749	0.00592926
1339.54	0.48288	5.46265e-06
1340.04	0.484406	1.0437e-05
1340.54	0.483978	0.011203
1340.98	0.484192	3.72314e-06
1341.48	0.483948	9.39941e-06
1341.98	0.483765	0.000234039
1342.44	-0.698212	-0.0186218
1342.92	0.483063	1.29395e-05
1343.42	0.482697	6.97021e-05
1343.88	-0.698639	-0.011264
1344.36	0.484436	2.59399e-06
1344.86	0.484253	2.71301e-05
1345.34	9.76562e-05	0.0105896
1345.8	0.482758	1.171875E-05
1346.3	0.482697	2.56653e-05
1346.78	-0.000183105	0.00593658
1347.24	0.482574	1.27258e-05
1347.74	0.482666	2.02332e-05
1348.24	0.482391	0.0112488
1348.68	0.483673	3.05176e-07
1349.18	0.483276	1.18103e-05
1349.68	0.482849	0.000243469
1350.14	-0.698669	-0.0186432
1350.62	0.484528	4.79126e-06
1351.12	0.482758	6.77795e-05
1351.58	-0.699524	-0.0112976
1352.06	0.483521	6.56128e-06
1352.56	0.483002	3.4729e-05
1353.04	0.000350952	0.0105774
1353.5	0.483887	5.37109e-06
1354	0.484344	1.65405e-05
1354.48	-0.000692749	0.00594757
1354.94	0.484131	1.89209e-06
1355.44	0.48291	1.828e-05
1355.94	0.483154	0.0112854
1356.38	0.483063	7.47681e-06
1356.88	0.482819	1.62964e-05
1357.38	0.483643	0.000241333
1357.84	-0.699158	-0.0186737
1358.32	0.482697	1.65405e-05
1358.82	0.48407	6.19202e-05
1359.28	-0.698181	-0.0113342
1359.76	0.484009	3.08228e-06
1360.26	0.482635	3.89099e-05
1360.74	-0.000601196	0.0105713
1361.2	0.483063	1.05591e-05
1361.7	0.483368	1.98669e-05
1362.18	-0.000268555	0.00595306
1362.64	0.483215	9.42993e-06
1363.14	0.483704	1.17798e-05
1363.64	0.483185	0.0113251
1364.08	0.483704	3.75366e-06
1364.58	0.483887	8.5144e-06
1365.08	0.483398	0.000248016
1365.54	-0.697845	-0.0187256
1366.02	0.483521	1.0437e-05
1366.52	0.483459	6.46973e-05
1366.98	-0.699738	-0.0113525
1367.46	0.482697	1.45264e-05
1367.96	0.484161	2.85645e-05
1368.44	0.000604248	0.010553
1368.9	0.483124	9.3689e-06
1369.4	0.483856	1.89209e-05
1369.88	-0.000674438	0.00596252
1370.34	0.484406	-2.13623e-07
1370.84	0.48291	1.98975e-05
1371.34	0.483368	0.01138
1371.78	0.483856	3.75366e-06
1372.28	0.483032	1.35193e-05
1372.78	0.48291	0.000253357
1373.24	-0.699127	-0.0187317
1373.72	0.484283	2.68555e-06
1374.22	0.48288	6.91833e-05
1374.68	-0.6987	-0.0113831
1375.16	0.483643	5.52368e-06
1375.66	0.48288	3.97644e-05
1376.14	-0.000769043	0.0105469
1376.6	0.48349	6.10352e-06
1377.1	0.482666	2.67639e-05
1377.58	0.00010376	0.00596069
1378.04	0.483978	3.41797e-06
1378.54	0.48407	9.79614e-06
1379.04	0.482239	0.0114197
1379.48	0.483948	1.98364e-06
1379.98	0.483337	1.40991e-05
1380.48	0.483887	0.000253387
1380.94	-0.698761	-0.0187775
1381.42	0.484009	5.92041e-06
1381.92	0.482574	7.31201e-05
1382.38	-0.699768	-0.0114288
1382.86	0.483826	3.9978e-06
1383.36	0.484314	2.76184e-05
1383.84	4.27246e-05	0.0105225
1384.3	0.484406	5.49316e-07
1384.8	0.484467	1.39465e-05
1385.28	-0.00027771	0.00596954
1385.74	0.483063	8.63647e-06
1386.24	0.482544	2.24609e-05
1386.74	0.483246	0.0114594
1387.18	0.484436	-8.8501e-07
1387.68	0.483032	1.27563e-05
1388.18	0.48288	0.00026236
1388.64	-0.699219	-0.0188171
1389.12	0.48349	7.90405e-06
1389.62	0.482849	7.01904e-05
1390.08	-0.699249	-0.0114563
1390.56	0.482788	1.08032e-05
1391.06	0.4841	2.99683e-05
1391.54	-0.000640869	0.0105255
1392	0.483276	8.42285e-06
1392.5	0.48291	2.6947e-05
1392.98	-0.000311279	0.0059729
1393.44	0.484558	-1.83105e-07
1393.94	0.482788	2.19116e-05
1394.44	0.483948	0.011499
1394.88	0.484589	-1.7395e-06
1395.38	0.48291	1.62048e-05
1395.88	0.484436	0.000255707
1396.34	-0.69754	-0.018869
1396.82	0.484009	4.60815e-06
1397.32	0.482697	7.31201e-05
1397.78	-0.698242	-0.0115082
1398.26	0.482727	1.32446e-05
1398.76	0.484375	2.76184e-05
1399.24	0.000738525	0.0105133
1399.7	0.484192	1.49536e-06
1400.2	0.482635	2.70081e-05
1400.68	0.000946045	0.00596802
1401.14	0.483124	7.59888e-06
1401.64	0.48349	1.57471e-05
1402.14	0.483673	0.011554
1402.58	0.482666	1.06506e-05
1403.08	0.482819	1.72729e-05
1403.58	0.484467	0.000259552
1404.04	-0.698303	-0.0188995
1404.52	0.484192	6.19507e-06
1405.02	0.483948	6.34766e-05
1405.48	-0.698669	-0.0115295
1405.96	0.482819	1.2146e-05
1406.46	0.482605	3.97339e-05
1406.94	-0.000201416	0.0105072
1407.4	0.482941	1.14136e-05
1407.9	0.483765	2.05078e-05
1408.38	3.05176e-06	0.00598328
1408.84	0.483063	6.80542e-06
1409.34	0.483459	1.59302e-05
1409.84	0.483765	0.0115906
1410.28	0.483185	8.8501e-06
1410.78	0.484406	4.88281e-06
1411.28	0.483368	0.000270874
1411.74	-0.699341	-0.0189362
1412.22	0.483398	9.8877e-06
1412.72	0.483093	7.16553e-05
1413.18	-0.699036	-0.0115723
1413.66	0.482941	1.12e-05
1414.16	0.484344	2.83813e-05
1414.64	-0.00112305	0.010498
1415.1	0.482666	1.33362e-05
1415.6	0.483429	2.02942e-05
1416.08	0.000463867	0.00597717
1416.54	0.483185	8.94165e-06
1417.04	0.484467	9.0332e-06
1417.54	0.483704	0.0116364
1417.98	0.483551	2.92969e-06
1418.48	0.482574	1.828e-05
1418.98	0.48291	0.0002789
1419.44	-0.698151	-0.0189728
1419.92	0.482941	1.09253e-05
1420.42	0.484192	6.30798e-05
1420.88	-0.698151	-0.0115936
1421.36	0.482605	1.54419e-05
1421.86	0.483734	2.98462e-05
1422.34	-0.00017395	0.0104858
1422.8	0.482605	1.3031e-05
1423.3	0.482758	2.50244e-05
1423.78	1.2207e-05	0.00598633
1424.24	0.484192	6.10352e-07
1424.74	0.484039	1.08643e-05
1425.24	0.482758	0.0116791
1425.68	0.484161	2.34985e-06
1426.18	0.482635	1.95618e-05
1426.68	0.484314	0.000271667
1427.14	-0.69754	-0.0190033
1427.62	0.482819	1.44958e-05
1428.12	0.483612	6.89392e-05
1428.58	-0.698181	-0.0116333
1429.06	0.484314	3.35693e-06
1429.56	0.482941	3.86047e-05
1430.04	-0.00110779	0.0104706
1430.5	0.483185	9.3689e-06
1431	0.484161	1.828e-05
1431.48	0.00010376	0.00599304
1431.94	0.484375	7.01904e-07
1432.44	0.482697	2.1637e-05
1432.94	0.483856	0.0117035
1433.38	0.484344	-7.62939e-07
1433.88	0.482788	1.72119e-05
1434.38	0.484039	0.00027832
1434.84	-0.69809	-0.0190399
1435.32	0.484375	2.92969e-06
1435.82	0.48288	7.49207e-05
1436.28	-0.698883	-0.0116638
1436.76	0.48288	1.45569e-05
1437.26	0.48407	3.04871e-05
1437.74	-0.000466919	0.0104706
1438.2	0.483093	9.82666e-06
1438.7	0.483154	2.46582e-05
1439.18	0.000942993	0.00598694
1439.64	0.483643	6.073e-06
1440.14	0.482697	2.1698e-05
1440.64	0.483826	0.0117584
1441.08	0.484375	1.83105e-07
1441.58	0.482697	1.76086e-05
1442.08	0.483856	0.00028009
1442.54	-0.697754	-0.0190765
1443.02	0.483948	5.15747e-06
1443.52	0.483337	6.97021e-05
1443.98	-0.698212	-0.0116943
1444.46	0.483124	8.60596e-06
1444.96	0.484528	2.75574e-05
1445.44	0.000543213	0.0104431
1445.9	0.48407	3.02124e-06
1446.4	0.483246	2.84729e-05
1446.88	-0.000695801	0.00600372
1447.34	0.483124	9.30786e-06
1447.84	0.482941	1.84937e-05
1448.34	0.483185	0.0117798
1448.78	0.484039	3.05176e-07
1449.28	0.482727	1.69067e-05
1449.78	0.482788	0.000294861
1450.24	-0.697968	-0.0191071
1450.72	0.482605	1.62659e-05
1451.22	0.484131	6.78406e-05
1451.68	-0.698029	-0.011734
1452.16	0.484406	1.12915e-06
1452.66	0.483521	3.35693e-05
1453.14	0.000204468	0.010434
1453.6	0.483215	8.11768e-06
1454.1	0.482697	2.80151e-05
1454.58	-0.000234985	0.00600861
1455.04	0.483398	6.74438e-06
1455.54	0.482697	2.09045e-05
1456.04	0.483398	0.0118195
1456.48	0.484406	-1.28174e-06
1456.98	0.483398	1.32446e-05
1457.48	0.482666	0.000301331
1457.94	-0.699188	-0.0191315
1458.42	0.484436	5.09644e-06
1458.92	0.482971	7.35168e-05
1459.38	-0.699646	-0.0117523
1459.86	0.483582	7.78198e-06
1460.36	0.482819	3.86658e-05
1460.84	-0.000991821	0.0104309
1461.3	0.482727	1.23291e-05
1461.8	0.483398	2.38037e-05
1462.28	-0.000411987	0.00600677
1462.74	0.483765	3.479e-06
1463.24	0.484039	1.22375e-05
1463.74	0.482483	0.0118591
1464.18	0.484406	-9.15527e-07
1464.68	0.482635	1.76697e-05
1465.18	0.482574	0.000305664
1465.64	-0.699036	-0.0191559
1466.12	0.483459	1.10779e-05
1466.62	0.482849	7.59277e-05
1467.08	-0.698273	-0.011792
1467.56	0.483124	9.85718e-06
1468.06	0.484375	2.93579e-05
1468.54	-4.57764e-05	0.0104126
1469	0.484314	3.9978e-06
1469.5	0.483612	2.23694e-05
1469.98	-0.000393677	0.00601074
1470.44	0.483856	1.70898e-06
1470.94	0.483582	1.651e-05
1471.44	0.483276	0.0119019
1471.88	0.482849	1.19019e-05
1472.38	0.483368	1.26038e-05
1472.88	0.483276	0.000306335
1473.34	-0.697571	-0.0192108
1473.82	0.48291	1.5625e-05
1474.32	0.483307	7.22351e-05
1474.78	-0.699677	-0.0118134
1475.26	0.482788	1.28174e-05
1475.76	0.484436	2.92358e-05
1476.24	-0.000662231	0.0104187
1476.7	0.482635	1.40686e-05
1477.2	0.484283	1.71509e-05
1477.68	-0.000210571	0.00601105
1478.14	0.484314	1.25122e-06
1478.64	0.482849	2.11487e-05
1479.14	0.482178	0.0119476
1479.58	0.482635	1.04065e-05
1480.08	0.484283	8.81958e-06
1480.58	0.482605	0.00031485
1481.04	-0.69873	-0.0192474
1481.52	0.482635	1.54114e-05
1482.02	0.484375	6.62537e-05
1482.48	-0.699768	-0.0118591
1482.96	0.484131	4.57764e-06
1483.46	0.484406	3.14636e-05
1483.94	-0.000360107	0.0104065
1484.4	0.482697	1.46179e-05
1484.9	0.483978	1.67542e-05
1485.38	0.00027771	0.0060083
1485.84	0.484039	3.75366e-06
1486.34	0.484497	9.64355e-06
1486.84	0.48288	0.0119873
1487.28	0.482727	8.81958e-06
1487.78	0.483154	1.30005e-05
1488.28	0.484467	0.000309937
1488.74	-0.697998	-0.0192749
1489.22	0.482788	1.60522e-05
1489.72	0.484009	7.23267e-05
1490.18	-0.698395	-0.0119049
1490.66	0.483734	6.83594e-06
1491.16	0.483582	3.56445e-05
1491.64	0.000112915	0.0103912
1492.1	0.484253	2.80762e-06
1492.6	0.483215	2.58179e-05
1493.08	0.000958252	0.00600708
1493.54	0.484283	2.34985e-06
1494.04	0.484375	9.94873e-06
1494.54	0.482819	0.01203
1494.98	0.48407	6.71387e-07
1495.48	0.48288	1.64795e-05
1495.98	0.483337	0.000319702
1496.44	-0.69931	-0.0192993
1496.92	0.483765	1.04065e-05
1497.42	0.482635	7.8949e-05
1497.88	-0.699707	-0.011911
1498.36	0.484283	3.69263e-06
1498.86	0.483002	4.31213e-05
1499.34	-0.000900269	0.0103821
1499.8	0.482971	1.06812e-05
1500.3	0.484558	1.71204e-05
1500.78	0.000845337	0.00601074
1501.24	0.483704	5.46265e-06
1501.74	0.483643	1.86768e-05
1502.24	0.483002	0.0120636
1502.68	0.482697	1.15356e-05
1503.18	0.482605	1.92261e-05
1503.68	0.483093	0.000330414
1504.14	-0.698486	-0.0193451
1504.62	0.484009	6.56128e-06
1505.12	0.482635	7.96204e-05
1505.58	-0.699738	-0.0119415
1506.06	0.483765	8.17871e-06
1506.56	0.484344	3.0365e-05
1507.04	-0.000195313	0.0103607
1507.5	0.484375	1.49536e-06
1508	0.483856	1.99585e-05
1508.48	0.000479126	0.00601776
1508.94	0.484283	2.44141e-07
1509.44	0.482971	1.97144e-05
1509.94	0.483673	0.0120819
1510.38	0.484406	3.66211e-07
1510.88	0.483063	1.40076e-05
1511.38	0.482819	0.000336456
1511.84	-0.69931	-0.0193756
1512.32	0.484375	4.73022e-06
1512.82	0.482605	8.09021e-05
1513.28	-0.69986	-0.0119781
1513.76	0.482635	1.21765e-05
1514.26	0.48291	3.80249e-05
1514.74	-0.00107117	0.0103577
1515.2	0.484406	1.19019e-06
1515.7	0.483093	2.27051e-05
1516.18	0.000872803	0.00601837
1516.64	0.482635	1.25122e-05
1517.14	0.482544	2.49634e-05
1517.64	0.483887	0.0121246
1518.08	0.484375	-2.01416e-06
1518.58	0.482605	1.88293e-05
1519.08	0.48291	0.000341217
1519.54	-0.697632	-0.0194153
1520.02	0.483704	9.21631e-06
1520.52	0.482758	8.06885e-05
1520.98	-0.698181	-0.0120087
1521.46	0.484375	3.9978e-06
1521.96	0.483673	3.60107e-05
1522.44	6.71387e-05	0.0103485
1522.9	0.4841	3.90625e-06
1523.4	0.484161	1.91345e-05
1523.88	-0.000640869	0.00603729
1524.34	0.482666	1.10474e-05
1524.84	0.482727	2.39868e-05
1525.34	0.483856	0.0121521
1525.78	0.484406	-1.34277e-06
1526.28	0.483093	1.53809e-05
1526.78	0.484375	0.000337097
1527.24	-0.698914	-0.0194458
1527.72	0.484406	4.48608e-06
1528.22	0.484253	7.1991e-05
1528.68	-0.698242	-0.0120392
1529.16	0.484283	3.57056e-06
1529.66	0.483185	4.12903e-05
1530.14	0.000216675	0.0103394
1530.6	0.483826	3.78418e-06
1531.1	0.484253	1.94397e-05
1531.58	-0.000369263	0.00603333
1532.04	0.482544	1.33972e-05
1532.54	0.483124	1.86768e-05
1533.04	0.483124	0.0122009
1533.48	0.483704	1.25122e-06
1533.98	0.483124	1.66931e-05
1534.48	0.483826	0.000344299
1534.94	-0.699127	-0.0194611
1535.42	0.483643	9.0332e-06
1535.92	0.484406	7.18689e-05
1536.38	-0.698059	-0.0120819
1536.86	0.482635	1.42517e-05
1537.36	0.484253	3.23792e-05
1537.84	0.000424194	0.0103302
1538.3	0.483276	9.15527e-06
1538.8	0.482758	2.81677e-05
1539.28	-0.000350952	0.00604309
1539.74	0.484314	-6.10352e-08
1540.24	0.483276	1.84326e-05
1540.74	0.48407	0.0122345
1541.18	0.484161	7.62939e-07
1541.68	0.483002	1.77307e-05
1542.18	0.484314	0.000348358
1542.64	-0.69812	-0.0195038
1543.12	0.482605	1.80969e-05
1543.62	0.483185	8.04749e-05
1544.08	-0.698639	-0.0120972
1544.56	0.48288	1.08948e-05
1545.06	0.482635	4.44641e-05
1545.54	0.000671387	0.0103119
1546	0.484131	1.15967e-06
1546.5	0.483612	2.38647e-05
1546.98	-0.000881958	0.00604034
1547.44	0.48288	1.2207e-05
1547.94	0.484283	1.171875E-05
1548.44	0.482971	0.0122559
1548.88	0.484161	1.2207e-06
1549.38	0.482788	1.72119e-05
1549.88	0.4841	0.000359344
1550.34	-0.69751	-0.0195526
1550.82	0.482635	1.73645e-05
1551.32	0.48407	7.50732e-05
1551.78	-0.697876	-0.0121429
1552.26	0.482697	1.66626e-05
1552.76	0.483459	3.77808e-05
1553.24	0.000564575	0.0102966
1553.7	0.482788	1.22681e-05
1554.2	0.482544	3.16772e-05
1554.68	0.000997925	0.00603088
1555.14	0.483612	7.26318e-06
1555.64	0.483429	2.03857e-05
1556.14	0.482239	0.0123077
1556.58	0.484436	0
1557.08	0.483337	1.6449e-05
1557.58	0.483185	0.000371216
1558.04	-0.697662	-0.0195831
1558.52	0.483734	1.00098e-05
1559.02	0.482819	8.51135e-05
1559.48	-0.699646	-0.0121735
1559.96	0.484406	2.31934e-06
1560.46	0.483154	3.97644e-05
1560.94	0.000515747	0.0102875
1561.4	0.482758	1.29089e-05
1561.9	0.483856	1.94092e-05
1562.38	0.000958252	0.00603607
1562.84	0.483185	9.61304e-06
1563.34	0.484375	1.11694e-05
1563.84	0.482971	0.0123474
1564.28	0.483673	4.02832e-06
1564.78	0.484406	7.1106e-06
1565.28	0.484222	0.000372589
1565.74	-0.698944	-0.0196045
1566.22	0.484222	5.79834e-06
1566.72	0.482605	8.71582e-05
1567.18	-0.699677	-0.0121948
1567.66	0.484344	2.99072e-06
1568.16	0.483032	4.18396e-05
1568.64	-0.000134277	0.0102875
1569.1	0.483917	7.35474e-06
1569.6	0.482666	2.91138e-05
1570.08	-0.000592041	0.00605164
1570.54	0.482574	1.26648e-05
1571.04	0.482635	2.32239e-05
1571.54	0.483795	0.0123657
1571.98	0.483612	5.67627e-06
1572.48	0.483398	1.30005e-05
1572.98	0.484314	0.000375153
1573.44	-0.699158	-0.0196259
1573.92	0.484039	5.67627e-06
1574.42	0.483337	8.29163e-05
1574.88	-0.698944	-0.0122284
1575.36	0.482788	1.51062e-05
1575.86	0.484253	3.2135e-05
1576.34	0.000469971	0.0102661
1576.8	0.482758	1.26648e-05
1577.3	0.484497	1.84021e-05
1577.78	0.000881958	0.00604095
1578.24	0.482666	1.08032e-05
1578.74	0.484528	1.28174e-05
1579.24	0.483856	0.0124023
1579.68	0.483307	5.09644e-06
1580.18	0.482788	1.77002e-05
1580.68	0.483429	0.000390381
1581.14	-0.697632	-0.0196747
1581.62	0.484192	7.04956e-06
1582.12	0.48291	8.51746e-05
1582.58	-0.698181	-0.0122803
1583.06	0.484406	2.89917e-06
1583.56	0.482758	4.37012e-05
1584.04	-0.000946045	0.0102539
1584.5	0.484314	2.28882e-06
1585	0.483124	2.61536e-05
1585.48	0.0006073	0.00604523
1585.94	0.482666	1.34583e-05
1586.44	0.484406	1.07117e-05
1586.94	0.482697	0.0124298
1587.38	0.484406	-2.74658e-07
1587.88	0.482788	2.02942e-05
1588.38	0.484497	0.000389465
1588.84	-0.699036	-0.0197021
1589.32	0.48349	9.30786e-06
1589.82	0.483063	8.4259e-05
1590.28	-0.697845	-0.0123047
1590.76	0.483246	1.51367e-05
1591.26	0.484406	3.32947e-05
1591.74	-0.000830078	0.01026
1592.2	0.484009	6.71387e-07
1592.7	0.483276	2.63672e-05
1593.18	0.00103149	0.00604156
1593.64	0.484161	2.2583e-06
1594.14	0.482788	2.35901e-05
1594.64	0.483154	0.0124603
1595.08	0.482666	1.19324e-05
1595.58	0.483582	1.34888e-05
1595.8	0.482666	1.15356e-05