File: Edgar/20240607/20240607/electrodeposition_pulsed_potential_20240607_F/pulses_2000_to_3000.txt
Time (s)	WE(1).Potential (V)	WE(1).Current (A)
1599.07	-0.697998	-0.0206482
1599.53	-0.000241089	0.00283722
1600.01	2.44141e-05	0.00657593
1600.47	-0.698975	-0.0185425
1600.93	-0.000134277	0.00366425
1601.41	0.000708008	0.00688293
1601.87	-0.697449	-0.0183594
1602.33	-0.000564575	0.00378357
1602.81	0.000387573	0.00695953
1603.27	-0.69754	-0.0183197
1603.73	-0.00072937	0.00382355
1604.21	-0.00017395	0.00699463
1604.67	-0.698761	-0.0182892
1605.13	-0.000192261	0.00384552
1605.61	-0.000598145	0.00701477
1606.07	-0.697571	-0.01828
1606.53	-0.00067749	0.00386932
1607.01	-0.000482178	0.00702942
1607.47	-0.698334	-0.0182556
1607.93	-0.000372314	0.00387939
1608.41	-0.000286865	0.00703552
1608.87	-0.698517	-0.0182587
1609.33	-0.000799561	0.0038855
1609.81	0.000759888	0.00703339
1610.27	-0.697571	-0.0182556
1610.73	-0.000463867	0.00389343
1611.21	-0.000570679	0.0070517
1611.67	-0.697906	-0.0182495
1612.13	-0.00057373	0.00390533
1612.61	0.000646973	0.007052
1613.07	-0.698914	-0.0182281
1613.53	-0.000662231	0.00390778
1614.01	0.000958252	0.00704834
1614.47	-0.697571	-0.0182373
1614.93	6.71387e-05	0.00391113
1615.41	0.00101318	0.0070517
1615.87	-0.698486	-0.0182343
1616.33	-0.000326538	0.00391754
1616.81	2.13623e-05	0.00706207
1617.27	-0.699371	-0.018219
1617.73	0.000674438	0.00391144
1618.21	0.000765991	0.00705719
1618.67	-0.699097	-0.0182159
1619.13	3.35693e-05	0.00392059
1619.61	0.000476074	0.00705902
1620.07	-0.697876	-0.0182343
1620.53	0.000192261	0.00392792
1621.01	8.8501e-05	0.00706848
1621.47	-0.699249	-0.0182098
1621.93	-3.66211e-05	0.00392548
1622.41	0.000592041	0.00706177
1622.87	-0.697968	-0.0182251
1623.33	-0.000296021	0.00393707
1623.81	0.000765991	0.00706451
1624.27	-0.699219	-0.0182068
1624.73	0.00113831	0.00392944
1625.21	-0.000427246	0.00707458
1625.67	-0.697601	-0.0182068
1626.13	-0.000201416	0.00393799
1626.61	0.00050354	0.00707062
1627.07	-0.698944	-0.0182098
1627.53	0.000317383	0.00394318
1628.01	0.000146484	0.00707611
1628.47	-0.697601	-0.0182129
1628.93	-0.000268555	0.00394531
1629.41	-9.76562e-05	0.00707123
1629.87	-0.698181	-0.0181976
1630.33	0.000680542	0.00393738
1630.81	3.35693e-05	0.00707794
1631.27	-0.69751	-0.0182037
1631.73	0.000628662	0.00394348
1632.21	-0.000759888	0.00707794
1632.67	-0.699341	-0.0181946
1633.13	-0.000308228	0.00395325
1633.61	-6.40869e-05	0.00707092
1634.07	-0.698792	-0.0181915
1634.53	-0.000665283	0.00395508
1635.01	0.000845337	0.00706818
1635.47	-0.69812	-0.0182037
1635.93	-0.000656128	0.00395813
1636.41	0.000811768	0.00706787
1636.87	-0.697845	-0.0181976
1637.33	-0.000689697	0.00396057
1637.81	0.000888062	0.00706604
1638.27	-0.69928	-0.0181824
1638.73	0.000970459	0.00395142
1639.21	-0.000701904	0.00707794
1639.67	-0.698914	-0.0181793
1640.13	-0.000650024	0.00395935
1640.61	-7.01904e-05	0.00707458
1641.07	-0.697906	-0.0181946
1641.53	0.000631714	0.00395721
1642.01	0.000131226	0.00707367
1642.47	-0.698853	-0.0181793
1642.93	0.000628662	0.00396301
1643.41	-0.000146484	0.00707703
1643.87	-0.699158	-0.0181793
1644.33	-0.000131226	0.00396149
1644.81	0.000463867	0.00706726
1645.27	-0.698395	-0.0181824
1645.73	0.000244141	0.00396881
1646.21	-2.74658e-05	0.00706787
1646.67	-0.697906	-0.0181854
1647.13	0.000704956	0.00395966
1647.61	-0.000671387	0.00707733
1648.07	-0.697998	-0.0181915
1648.53	-0.00057373	0.00397064
1649.01	-0.000326538	0.00707733
1649.47	-0.698944	-0.0181946
1649.93	0.000308228	0.00396759
1650.41	-0.000408936	0.00707916
1650.87	-0.698944	-0.0182037
1651.33	-4.27246e-05	0.0039679
1651.81	-0.000650024	0.00707977
1652.27	-0.698151	-0.0181976
1652.73	-0.000671387	0.00397675
1653.21	0.000790405	0.00707336
1653.67	-0.698914	-0.0181854
1654.13	-0.000488281	0.00397552
1654.61	-0.00022583	0.00708038
1655.07	-0.697571	-0.0182037
1655.53	0.000997925	0.0039682
1656.01	-0.00055542	0.00707764
1656.47	-0.69754	-0.0181946
1656.93	-0.000534058	0.00397705
1657.41	-0.00043335	0.00707825
1657.87	-0.698669	-0.0181824
1658.33	8.8501e-05	0.0039798
1658.81	0.00020752	0.00707062
1659.27	-0.697601	-0.0181946
1659.73	-0.000650024	0.00398163
1660.21	-0.000631714	0.00707855
1660.67	-0.698944	-0.0181824
1661.13	0.000616455	0.00398071
1661.61	-0.000848389	0.00707611
1662.07	-0.697998	-0.0181854
1662.53	-0.00065918	0.00398407
1663.01	-0.000762939	0.0070752
1663.47	-0.697693	-0.0181885
1663.93	0.0009765625	0.00397461
1664.41	0.00017395	0.00707642
1664.87	-0.697845	-0.0181824
1665.33	-0.000442505	0.00398163
1665.81	-0.000497437	0.00707031
1666.27	-0.69751	-0.0181793
1666.73	-0.00015564	0.00398468
1667.21	-0.000723267	0.0070752
1667.67	-0.697662	-0.0181885
1668.13	0.000598145	0.00397766
1668.61	-0.000622559	0.00707336
1669.07	-0.69751	-0.0181793
1669.53	-0.000323486	0.00398804
1670.01	0.000500488	0.00706543
1670.47	-0.697754	-0.0181824
1670.93	0.00088501	0.00397736
1671.41	-0.000720215	0.00707214
1671.87	-0.698456	-0.0181702
1672.33	-0.000662231	0.00399078
1672.81	0.000268555	0.00706665
1673.27	-0.698456	-0.0181702
1673.73	0.000112915	0.00399078
1674.21	0.000561523	0.00706299
1674.67	-0.699219	-0.0181732
1675.13	0.000942993	0.00398041
1675.61	0.000958252	0.00705811
1676.07	-0.698029	-0.0181854
1676.53	-0.000112915	0.00398132
1677.01	0.000354004	0.00706543
1677.47	-0.699097	-0.0181763
1677.93	9.46045e-05	0.00398895
1678.41	0.000119019	0.0070636
1678.87	-0.699249	-0.0181641
1679.33	-0.000308228	0.00398865
1679.81	-0.000552368	0.0070697
1680.27	-0.698334	-0.0181732
1680.73	-0.000616455	0.00399323
1681.21	0.000234985	0.00706116
1681.67	-0.699341	-0.0181671
1682.13	-0.000326538	0.0039917
1682.61	-0.000579834	0.00706421
1683.07	-0.698059	-0.0181763
1683.53	-0.000314331	0.00398834
1684.01	0.000564575	0.00705444
1684.47	-0.697449	-0.0181671
1684.93	-0.000628662	0.00399414
1685.41	0.000512695	0.00705048
1685.87	-0.699066	-0.018158
1686.33	9.15527e-06	0.00398926
1686.81	0.0006073	0.00705322
1687.27	-0.697784	-0.018161
1687.73	0.000540161	0.00399078
1688.21	-0.0003479	0.00705658
1688.67	-0.69754	-0.0181671
1689.13	0.00072937	0.00398956
1689.61	0.000497437	0.00705139
1690.07	-0.698364	-0.0181549
1690.53	0.000701904	0.00399109
1691.01	0.000595093	0.00704987
1691.47	-0.697662	-0.0181702
1691.93	-0.000790405	0.00399841
1692.41	0.000537109	0.0070459
1692.87	-0.699158	-0.0181519
1693.33	0.000750732	0.003992
1693.81	-0.000268555	0.00705475
1694.27	-0.697998	-0.0181671
1694.73	-0.00071106	0.00400177
1695.21	-0.00088501	0.00705261
1695.67	-0.69812	-0.0181549
1696.13	-0.00065918	0.0040033
1696.61	0.000823975	0.00704254
1697.07	-0.699188	-0.0181519
1697.53	0.00065918	0.00399628
1698.01	-0.000616455	0.00704651
1698.47	-0.697601	-0.0181671
1698.93	0.000863647	0.003992
1699.41	-0.000561523	0.00704895
1699.87	-0.698151	-0.0181702
1700.33	0.000161743	0.00400269
1700.81	-0.000790405	0.007052
1701.27	-0.69754	-0.018161
1701.73	0.000576782	0.00399933
1702.21	0.000549316	0.00703857
1702.67	-0.699371	-0.0181488
1703.13	0.000570679	0.00399536
1703.61	0.000143433	0.00703827
1704.07	-0.697632	-0.0181549
1704.53	-0.000714111	0.00400696
1705.01	0.000115967	0.00703888
1705.47	-0.699219	-0.0181549
1705.93	0.000561523	0.00400024
1706.41	-0.000485229	0.00704376
1706.87	-0.69928	-0.0181458
1707.33	0.000320435	0.00400513
1707.81	-0.000671387	0.00704559
1708.27	-0.697479	-0.0181549
1708.73	0.000201416	0.00400543
1709.21	0.000927734	0.00703522
1709.67	-0.697571	-0.018158
1710.13	0.000415039	0.00399719
1710.61	-0.000341797	0.00704163
1711.07	-0.697906	-0.0181519
1711.53	0.000256348	0.00400421
1712.01	-0.00072937	0.00704437
1712.47	-0.698242	-0.0181427
1712.93	0.00102844	0.00399994
1713.41	-0.000875854	0.00704102
1713.87	-0.697662	-0.0181519
1714.33	-0.000701904	0.00401154
1714.81	-0.00067749	0.00703888
1715.27	-0.697601	-0.0181458
1715.73	-0.000720215	0.00401031
1716.21	0.000286865	0.00702881
1716.67	-0.697754	-0.0181549
1717.13	0.000439453	0.00400452
1717.61	-0.000759888	0.00703827
1718.07	-0.698883	-0.0181335
1718.53	-0.000378418	0.00400879
1719.01	0.000814819	0.00702393
1719.47	-0.697662	-0.0181427
1719.93	-0.000332642	0.00401062
1720.41	-0.000698853	0.00703674
1720.87	-0.699158	-0.0181305
1721.33	-0.00057373	0.00401672
1721.81	6.10352e-05	0.00702759
1722.27	-0.697632	-0.0181427
1722.73	-0.000698853	0.00401611
1723.21	-0.00020752	0.00702911
1723.67	-0.698151	-0.0181305
1724.13	0.000653076	0.00400879
1724.61	-0.000491333	0.00703522
1725.07	-0.697754	-0.0181427
1725.53	-0.000100708	0.00401062
1726.01	-0.000408936	0.00703278
1726.47	-0.697418	-0.0181335
1726.93	0.000497437	0.00401031
1727.41	0.000927734	0.00702148
1727.87	-0.698151	-0.0181366
1728.33	-0.000643921	0.00402039
1728.81	0.000561523	0.00702606
1729.27	-0.699066	-0.0181244
1729.73	0.000701904	0.00400726
1730.21	-0.000253296	0.00702911
1730.67	-0.698242	-0.0181335
1731.13	-0.000183105	0.004021
1731.61	-0.000726318	0.00703033
1732.07	-0.698059	-0.0181396
1732.53	0.000744629	0.00401245
1733.01	-1.83105e-05	0.00702179
1733.47	-0.69928	-0.0181305
1733.93	0.00017395	0.00401031
1734.41	-0.000411987	0.00702057
1734.87	-0.699249	-0.0181305
1735.33	-0.00065918	0.004021
1735.81	-0.000259399	0.00702423
1736.27	-0.698425	-0.0181396
1736.73	0.00050354	0.00401978
1737.21	-0.000390625	0.00702515
1737.67	-0.698944	-0.0181244
1738.13	-0.000549316	0.00402222
1738.61	0.000830078	0.00701416
1739.07	-0.698273	-0.0181183
1739.53	0.000747681	0.00401337
1740.01	-0.000680542	0.00702332
1740.47	-0.699097	-0.0181274
1740.93	0.000488281	0.00401459
1741.41	0.000772095	0.00701019
1741.87	-0.697937	-0.0181213
1742.33	-0.000213623	0.00401947
1742.81	0.000610352	0.00701508
1743.27	-0.698456	-0.0181274
1743.73	0.000506592	0.0040152
1744.21	0.000921631	0.00700897
1744.67	-0.697662	-0.0181274
1745.13	-0.000415039	0.0040213
1745.61	-8.23975e-05	0.00701172
1746.07	-0.697784	-0.0181335
1746.53	7.01904e-05	0.00401917
1747.01	-0.000296021	0.0070166
1747.47	-0.698334	-0.0181305
1747.93	-0.000491333	0.00402496
1748.41	0.000784302	0.00700745
1748.87	-0.697662	-0.0181274
1749.33	-0.000457764	0.00402924
1749.81	-0.000314331	0.00701447
1750.27	-0.69809	-0.0181244
1750.73	-0.000335693	0.00402466
1751.21	0.000723267	0.00700592
1751.67	-0.697571	-0.0181213
1752.13	0.000369263	0.00401855
1752.61	-0.000393677	0.00700684
1753.07	-0.699158	-0.0181091
1753.53	0.000259399	0.00402283
1754.01	0.000460815	0.00700378
1754.47	-0.697662	-0.0181274
1754.93	-0.000640869	0.00403076
1755.41	0.00104675	0.00700317
1755.87	-0.697662	-0.0181152
1756.33	0.000741577	0.00402496
1756.81	0.000930786	0.00700104
1757.27	-0.698151	-0.0181091
1757.73	-0.000561523	0.00403137
1758.21	-0.000759888	0.00700989
1758.67	-0.698151	-0.0181091
1759.13	0.000714111	0.00402161
1759.61	0.000177002	0.00700378
1760.07	-0.69751	-0.0181183
1760.53	-0.000521851	0.00403351
1761.01	0.00090332	0.00699707
1761.47	-0.698456	-0.0181183
1761.93	-0.00027771	0.00403351
1762.41	0.000656128	0.00699554
1762.87	-0.699341	-0.0181061
1763.33	-0.000238037	0.00403351
1763.81	0.00085144	0.00699646
1764.27	-0.697662	-0.0181091
1764.73	0.00105896	0.00402618
1765.21	0.000918579	0.0069928
1765.67	-0.697906	-0.0181152
1766.13	0.000698853	0.00402405
1766.61	-0.000521851	0.00700378
1767.07	-0.697876	-0.0181152
1767.53	-2.44141e-05	0.00403687
1768.01	-0.000860596	0.00700104
1768.47	-0.699249	-0.0181
1768.93	0.00055542	0.00403076
1769.41	-0.000161743	0.00699615
1769.87	-0.698822	-0.0181
1770.33	0.000177002	0.00402679
1770.81	0.000961304	0.00699036
1771.27	-0.697571	-0.0181
1771.73	-0.000653076	0.00404083
1772.21	0.00090332	0.00698853
1772.67	-0.697601	-0.018103
1773.13	0.000946045	0.00402802
1773.61	-0.000271606	0.00699188
1774.07	-0.698395	-0.0180939
1774.53	-0.000701904	0.00404053
1775.01	-0.000778198	0.00699738
1775.47	-0.698914	-0.0181061
1775.93	0.000738525	0.00402954
1776.41	0.000656128	0.00698883
1776.87	-0.699036	-0.0180878
1777.33	0.000286865	0.00403412
1777.81	0.00072937	0.00698608
1778.27	-0.699341	-0.0180908
1778.73	0.000299072	0.00403351
1779.21	-0.000653076	0.00699463
1779.67	-0.698883	-0.0180847
1780.13	-0.000491333	0.00404022
1780.61	0.000363159	0.00698608
1781.07	-0.698547	-0.0180969
1781.53	-0.000686646	0.00404327
1782.01	-0.000259399	0.00699097
1782.47	-0.697723	-0.0181061
1782.93	-0.000576782	0.00404236
1783.41	0.000933838	0.00698059
1783.87	-0.699097	-0.0180939
1784.33	0.000360107	0.00403534
1784.81	0.000338745	0.00698486
1785.27	-0.69751	-0.0180939
1785.73	9.15527e-06	0.0040448
1786.21	0.000775146	0.00698059
1786.67	-0.697632	-0.0180908
1787.13	0.000970459	0.00403595
1787.61	-0.000357056	0.00698792
1788.07	-0.698273	-0.0180939
1788.53	-0.000463867	0.00404846
1789.01	0.000900269	0.00697601
1789.47	-0.698944	-0.0180878
1789.93	0.000601196	0.00404114
1790.41	-0.00038147	0.00698669
1790.87	-0.698944	-0.0180817
1791.33	0.00110779	0.00403992
1791.81	-0.000375366	0.00697815
1792.27	-0.699097	-0.0180786
1792.73	0.000891113	0.00403778
1793.21	0.00083313	0.0069751
1793.67	-0.699127	-0.0180756
1794.13	-9.46045e-05	0.00404877
1794.61	0.00106812	0.00697632
1795.07	-0.698456	-0.0180939
1795.53	0.000524902	0.00404144
1796.01	-0.000662231	0.0069812
1796.47	-0.697906	-0.0180756
1796.93	0.000857544	0.00404419
1797.41	0.000292969	0.00697357
1797.87	-0.699036	-0.0180817
1798.33	-0.000411987	0.00405029
1798.81	0.000442505	0.00697235
1799.27	-0.697876	-0.0180756
1799.73	-2.13623e-05	0.00404907
1800.21	-0.000115967	0.00697968
1800.67	-0.697845	-0.0180817
1801.13	0.00103149	0.0040451
1801.61	0.000878906	0.00696777
1802.07	-0.69931	-0.0180756
1802.53	-0.000588989	0.00405518
1803.01	-0.000759888	0.00697754
1803.47	-0.699219	-0.0180756
1803.93	0.000320435	0.00405396
1804.41	0.00102539	0.00696869
1804.87	-0.697479	-0.0180786
1805.33	0.00090332	0.00404694
1805.81	0.000805664	0.00696777
1806.27	-0.698944	-0.0180664
1806.73	0.000991821	0.00404785
1807.21	0.000585937	0.00696503
1807.67	-0.699127	-0.0180695
1808.13	-0.000640869	0.00406006
1808.61	-0.000732422	0.00697693
1809.07	-0.698456	-0.0180817
1809.53	0.00078125	0.00404724
1810.01	0.000927734	0.00696716
1810.47	-0.697601	-0.0180786
1810.93	0.000183105	0.00404694
1811.41	0.000958252	0.00696014
1811.87	-0.698853	-0.0180664
1812.33	-0.000701904	0.00405853
1812.81	-0.00017395	0.00696625
1813.27	-0.698273	-0.0180786
1813.73	-0.000546265	0.00405609
1814.21	9.15527e-06	0.00696838
1814.67	-0.69931	-0.0180664
1815.13	0.000784302	0.00404968
1815.61	-0.000628662	0.00697113
1816.07	-0.698029	-0.0180786
1816.53	-0.000131226	0.00406189
1817.01	0.000897217	0.00695618
1817.47	-0.699127	-0.0180695
1817.93	-0.000534058	0.00405914
1818.41	-0.000567627	0.00696716
1818.87	-0.69928	-0.0180634
1819.33	0.000726318	0.00405975
1819.81	0.000177002	0.00696442
1820.27	-0.698486	-0.0180664
1820.73	-0.000735474	0.0040625
1821.21	-0.000146484	0.00696503
1821.67	-0.699249	-0.0180542
1822.13	-0.00071106	0.00406372
1822.61	0.000500488	0.00696381
1823.07	-0.698669	-0.0180511
1823.53	0.000888062	0.00405273
1824.01	-0.000708008	0.00696533
1824.47	-0.698914	-0.0180634
1824.93	-0.00062561	0.00406281
1825.41	0.000186157	0.00696106
1825.87	-0.699249	-0.0180511
1826.33	0.000570679	0.00405762
1826.81	-0.000762939	0.00696289
1827.27	-0.697479	-0.0180664
1827.73	0.000927734	0.00405609
1828.21	-0.000341797	0.00696259
1828.67	-0.697662	-0.0180634
1829.13	-0.000473022	0.00406311
1829.61	0.000723267	0.00695374
1830.07	-0.699432	-0.0180603
1830.53	-0.000680542	0.00406708
1831.01	0.000900269	0.00695099
1831.47	-0.698486	-0.0180573
1831.93	-0.000726318	0.0040686
1832.41	0.0006073	0.00694916
1832.87	-0.698456	-0.0180664
1833.33	-0.000161743	0.0040625
1833.81	-0.000747681	0.00695801
1834.27	-0.697601	-0.0180664
1834.73	-0.000271606	0.00406006
1835.21	-0.000256348	0.00695038
1835.67	-0.699158	-0.018045
1836.13	-0.000567627	0.00406952
1836.61	0.000231934	0.00695221
1837.07	-0.699005	-0.0180389
1837.53	-0.000738525	0.00407166
1838.01	7.93457e-05	0.00694427
1838.47	-0.698639	-0.018045
1838.93	-0.000683594	0.00407074
1839.41	-1.2207e-05	0.00695221
1839.87	-0.699188	-0.0180389
1840.33	0.000292969	0.0040686
1840.81	0.000964355	0.00694305
1841.27	-0.698212	-0.018045
1841.73	0.000668335	0.00406403
1842.21	-0.000387573	0.00695007
1842.67	-0.698975	-0.0180634
1843.13	-0.000665283	0.00406555
1843.61	0.000579834	0.00693237
1844.07	-0.697723	-0.0180725
1844.53	-0.000601196	0.00406158
1845.01	-1.83105e-05	0.00693451
1845.47	-0.698059	-0.0180786
1845.93	6.71387e-05	0.00405396
1846.41	0.000854492	0.0069278
1846.87	-0.699036	-0.0180664
1847.33	-0.000726318	0.00405792
1847.81	0.000921631	0.00692932
1848.27	-0.69751	-0.0180725
1848.73	-0.00067749	0.00406281
1849.21	-2.13623e-05	0.00693268
1849.67	-0.697876	-0.0180786
1850.13	0.00109558	0.00405243
1850.61	0.000735474	0.0069278
1851.07	-0.698669	-0.0180756
1851.53	-0.000247192	0.00405914
1852.01	-7.62939e-05	0.00692841
1852.47	-0.698334	-0.0180786
1852.93	0.000482178	0.0040506
1853.41	-0.000463867	0.00692688
1853.87	-0.699127	-0.0180634
1854.33	0.000961304	0.00405243
1854.81	-6.71387e-05	0.00693054
1855.27	-0.697601	-0.0180725
1855.73	-0.0006073	0.00406616
1856.21	0.00100708	0.00692322
1856.67	-0.699219	-0.0180573
1857.13	0.000817871	0.00405945
1857.61	0.0003479	0.00692719
1858.07	-0.697784	-0.0180725
1858.53	0.0009765625	0.0040564
1859.01	-4.88281e-05	0.00692261
1859.47	-0.697662	-0.0180634
1859.93	-0.000283813	0.00406189
1860.41	0.000811768	0.00692047
1860.87	-0.698212	-0.0180725
1861.33	0.000900269	0.00405609
1861.81	-0.000576782	0.00693054
1862.27	-0.69809	-0.0180664
1862.73	4.57764e-05	0.00406616
1863.21	-0.000448608	0.00692871
1863.67	-0.697632	-0.0180542
1864.13	0.000759888	0.00406219
1864.61	-0.00043335	0.0069278
1865.07	-0.697784	-0.0180634
1865.53	0.000912476	0.00405884
1866.01	-0.000518799	0.00692352
1866.47	-0.697632	-0.0180573
1866.93	-0.000387573	0.00406799
1867.41	0.000872803	0.00691772
1867.87	-0.698364	-0.0180634
1868.33	-0.000631714	0.00406677
1868.81	0.000695801	0.0069223
1869.27	-0.698578	-0.0180664
1869.73	0.000970459	0.00406342
1870.21	-0.000274658	0.00692688
1870.67	-0.699066	-0.0180511
1871.13	-0.000524902	0.00406708
1871.61	0.000909424	0.00691467
1872.07	-0.699188	-0.0180481
1872.53	0.00093689	0.00406494
1873.01	0.000759888	0.00691803
1873.47	-0.698853	-0.0180542
1873.93	-0.000650024	0.00407471
1874.41	0.000183105	0.00692474
1874.87	-0.697815	-0.0180542
1875.33	-0.000418091	0.00407654
1875.81	0.000875854	0.00691437
1876.27	-0.698669	-0.018042
1876.73	-0.000180054	0.00407654
1877.21	-0.000341797	0.0069223
1877.67	-0.698944	-0.0180511
1878.13	0.00012207	0.00407196
1878.61	-5.18799e-05	0.00691559
1879.07	-0.69751	-0.0180481
1879.53	-0.000512695	0.00407654
1880.01	-0.000128174	0.00691437
1880.47	-0.697632	-0.0180481
1880.93	-0.000689697	0.00407898
1881.41	-0.000152588	0.00691803
1881.87	-0.699341	-0.018042
1882.33	0.00055542	0.00407013
1882.81	-0.000546265	0.00691498
1883.27	-0.698578	-0.0180359
1883.73	-0.000537109	0.00408234
1884.21	-0.000231934	0.00691681
1884.67	-0.699188	-0.018042
1885.13	0.000292969	0.00407745
1885.61	-3.35693e-05	0.00691193
1886.07	-0.698517	-0.0180511
1886.53	0.000311279	0.00407104
1887.01	-0.000708008	0.00691895
1887.47	-0.698792	-0.0180328
1887.93	9.46045e-05	0.0040744
1888.41	-0.000613403	0.00691528
1888.87	-0.69928	-0.0180359
1889.33	-0.000708008	0.00408203
1889.81	-0.000286865	0.00690826
1890.27	-0.69809	-0.0180389
1890.73	-0.000570679	0.00408112
1891.21	-0.000158691	0.00690887
1891.67	-0.699005	-0.0180328
1892.13	-0.000485229	0.00408539
1892.61	-6.40869e-05	0.00691437
1893.07	-0.697784	-0.0180389
1893.53	-0.000317383	0.00408234
1894.01	-9.15527e-05	0.00690643
1894.47	-0.697479	-0.018042
1894.93	-0.000494385	0.00408783
1895.41	-0.000216675	0.0069043
1895.87	-0.697601	-0.0180389
1896.33	-0.000262451	0.00408295
1896.81	0.000518799	0.00690369
1897.27	-0.699097	-0.0180389
1897.73	0.000186157	0.0040802
1898.21	0.000637817	0.00690216
1898.67	-0.69812	-0.018042
1899.13	-0.000704956	0.00408844
1899.61	0.00067749	0.0068988
1900.07	-0.697845	-0.0180298
1900.53	-0.000115967	0.00408722
1901.01	-0.000524902	0.00690521
1901.47	-0.698578	-0.0180206
1901.93	0.000994873	0.00407654
1902.41	-0.000259399	0.006922
1902.87	-0.697571	-0.0180573
1903.33	0.000970459	0.0040799
1903.81	-0.000765991	0.00692017
1904.27	-0.697571	-0.0180603
1904.73	0.000881958	0.00407898
1905.21	0.000796509	0.00690552
1905.67	-0.699127	-0.0180481
1906.13	-0.000680542	0.00408936
1906.61	0.000457764	0.00690887
1907.07	-0.699249	-0.0180481
1907.53	0.000759888	0.00408234
1908.01	0.00090332	0.00690277
1908.47	-0.698822	-0.0180389
1908.93	0.000311279	0.00408691
1909.41	0.000891113	0.00690186
1909.87	-0.697632	-0.0180511
1910.33	-0.000561523	0.00408966
1910.81	-0.000271606	0.00690582
1911.27	-0.69873	-0.0180542
1911.73	-0.000613403	0.00409149
1912.21	-0.000350952	0.00691437
1912.67	-0.698822	-0.0180573
1913.13	0.000839233	0.00408752
1913.61	0.000915527	0.00690125
1914.07	-0.697723	-0.0180542
1914.53	0.000967407	0.00408386
1915.01	0.000653076	0.00690002
1915.47	-0.698822	-0.0180481
1915.93	-0.000488281	0.00409393
1916.41	-0.000549316	0.00691132
1916.87	-0.699036	-0.0180389
1917.33	-0.000811768	0.00409424
1917.81	0.000149536	0.00690582
1918.27	-0.697662	-0.0180511
1918.73	0.000793457	0.00408905
1919.21	0.000869751	0.00689789
1919.67	-0.697815	-0.0180481
1920.13	0.00115051	0.00408966
1920.61	0.000567627	0.00689545
1921.07	-0.699188	-0.0180328
1921.53	0.000695801	0.00408691
1922.01	0.000674438	0.00689941
1922.47	-0.699005	-0.0180298
1922.93	0.000476074	0.00409302
1923.41	0.000805664	0.00689453
1923.87	-0.698151	-0.0180389
1924.33	0.000436401	0.00408936
1924.81	0.000247192	0.00690308
1925.27	-0.697601	-0.018045
1925.73	0.00090332	0.00409119
1926.21	-0.000778198	0.00690643
1926.67	-0.698822	-0.0180298
1927.13	0.000891113	0.00409149
1927.61	-0.000698853	0.0069046
1928.07	-0.698151	-0.0180328
1928.53	-0.000427246	0.00410217
1929.01	0.00093689	0.00689331
1929.47	-0.697632	-0.018042
1929.93	0.000723267	0.00409058
1930.41	-0.000323486	0.00690216
1930.87	-0.698975	-0.0180389
1931.33	0.000375366	0.00409943
1931.81	0.000891113	0.00688995
1932.27	-0.697601	-0.018042
1932.73	0.000787354	0.00410065
1933.21	0.000357056	0.0068985
1933.67	-0.699127	-0.0180206
1934.13	0.00100098	0.00409546
1934.61	0.000793457	0.00689026
1935.07	-0.698914	-0.0180267
1935.53	0.000186157	0.00409698
1936.01	0.00107422	0.00688995
1936.47	-0.699219	-0.0180206
1936.93	0.000244141	0.00409851
1937.41	0.000714111	0.00688629
1937.87	-0.699371	-0.0180237
1938.33	-0.000128174	0.00410004
1938.81	0.000305176	0.00688812
1939.27	-0.699127	-0.0180176
1939.73	3.05176e-06	0.00410034
1940.21	-0.000183105	0.00689087
1940.67	-0.697662	-0.0180206
1941.13	0.000195313	0.00410431
1941.61	0.000427246	0.00688965
1942.07	-0.699036	-0.0180237
1942.53	0.000552368	0.0040979
1943.01	0.00088501	0.00688324
1943.47	-0.698212	-0.0180176
1943.93	0.000958252	0.0040979
1944.41	-0.000119019	0.00688782
1944.87	-0.69754	-0.0180298
1945.33	-0.00085144	0.0041095
1945.81	0.000131226	0.00688904
1946.27	-0.697937	-0.0180328
1946.73	0.000863647	0.00409882
1947.21	-0.000759888	0.0068924
1947.67	-0.699097	-0.0180176
1948.13	-0.000662231	0.00410583
1948.61	-0.000668335	0.00688568
1949.07	-0.698822	-0.0180206
1949.53	-0.000219727	0.00410706
1950.01	0.000906372	0.00688202
1950.47	-0.698242	-0.0180267
1950.93	0.0010376	0.00410339
1951.41	0.00105896	0.00688293
1951.87	-0.698029	-0.0180115
1952.33	0.000430298	0.00410583
1952.81	-0.000161743	0.00688446
1953.27	-0.699341	-0.0180115
1953.73	0.00093689	0.004104
1954.21	0.00083313	0.0068869
1954.67	-0.697662	-0.0180359
1955.13	-0.000564575	0.00411713
1955.61	-0.000259399	0.00688934
1956.07	-0.69809	-0.0180237
1956.53	-0.000241089	0.0041156
1957.01	0.000698853	0.00688293
1957.47	-0.698181	-0.018042
1957.93	0.000491333	0.0041037
1958.41	0.000616455	0.0068811
1958.87	-0.698364	-0.0180206
1959.33	0.000616455	0.00410645
1959.81	0.000897217	0.00688293
1960.27	-0.699066	-0.0180298
1960.73	-0.000708008	0.00411407
1961.21	0.00090332	0.0068808
1961.67	-0.697937	-0.0180298
1962.13	0.000939941	0.00410492
1962.61	0.000592041	0.00687897
1963.07	-0.69931	-0.0180237
1963.53	-0.000411987	0.00411072
1964.01	0.000222778	0.00688934
1964.47	-0.698792	-0.0180328
1964.93	-0.000695801	0.00411865
1965.41	-0.0003479	0.00688782
1965.87	-0.697632	-0.0180298
1966.33	0.00050354	0.00411774
1966.81	-0.000424194	0.00689423
1967.27	-0.698334	-0.0180389
1967.73	0.000994873	0.00410919
1968.21	-0.000610352	0.00689117
1968.67	-0.69931	-0.018042
1969.13	0.000476074	0.00411346
1969.61	0.000695801	0.00687866
1970.07	-0.699188	-0.0180389
1970.53	-0.000595093	0.00411926
1971.01	0.000411987	0.00687836
1971.47	-0.69931	-0.0180389
1971.93	0.000100708	0.00411316
1972.41	-0.0006073	0.00688721
1972.87	-0.698822	-0.0180389
1973.33	-0.000701904	0.00411835
1973.81	-0.000662231	0.00688477
1974.27	-0.697601	-0.018045
1974.73	-0.00015564	0.00411682
1975.21	-0.000695801	0.00688538
1975.67	-0.698303	-0.0180481
1976.13	0.00111389	0.00411346
1976.61	0.000247192	0.00687317
1977.07	-0.69754	-0.0180481
1977.53	0.000442505	0.00411682
1978.01	-0.000561523	0.00688354
1978.47	-0.697906	-0.018045
1978.93	-0.000552368	0.00412354
1979.41	0.00102234	0.00687622
1979.87	-0.697754	-0.018042
1980.33	0.000689697	0.00411255
1980.81	-0.000509644	0.00688446
1981.27	-0.698303	-0.0180267
1981.73	-0.000674438	0.00412262
1982.21	0.000784302	0.00687042
1982.67	-0.699219	-0.0180267
1983.13	-0.000189209	0.00412018
1983.61	-0.000527954	0.00687866
1984.07	-0.697601	-0.0180389
1984.53	-0.000402832	0.00412018
1985.01	-0.000726318	0.00688019
1985.47	-0.697784	-0.0180542
1985.93	-9.15527e-05	0.00412537
1986.41	-0.000512695	0.00688232
1986.87	-0.698273	-0.0180359
1987.33	-0.000497437	0.00412628
1987.81	-0.00038147	0.0068808
1988.27	-0.698822	-0.018042
1988.73	-0.000759888	0.00412506
1989.21	-8.23975e-05	0.0068692
1989.67	-0.699188	-0.018042
1990.13	0.000857544	0.00411499
1990.61	0.000152588	0.00687347
1991.07	-0.697479	-0.0180664
1991.53	0.000213623	0.00411438
1992.01	0.000790405	0.0068634
1992.47	-0.697571	-0.0180695
1992.93	-0.000674438	0.0041217
1993.41	0.000924683	0.00686432
1993.87	-0.699188	-0.0180603
1994.33	-0.000344849	0.0041214
1994.81	0.000656128	0.00686371
1995.27	-0.699127	-0.0180511
1995.73	0.000405884	0.00411835
1996.21	-0.000750732	0.00687164
1996.67	-0.697937	-0.0180695
1997.13	0.000701904	0.00411499
1997.61	-0.00065918	0.00687286
1998.07	-0.698059	-0.0180573
1998.53	-0.00065918	0.00411743
1999.01	0.000857544	0.00685913
1999.47	-0.698303	-0.0180542
1999.93	-0.000292969	0.00411987
2000.41	0.000363159	0.00687042
2000.87	-0.698334	-0.0180511
2001.33	-0.000405884	0.00412537
2001.81	-0.000646973	0.00686462
2002.27	-0.698425	-0.0180481
2002.73	-0.000109863	0.00411835
2003.21	-0.000531006	0.00687225
2003.67	-0.699188	-0.0180511
2004.13	0.000314331	0.00411682
2004.61	0.000674438	0.00686523
2005.07	-0.698944	-0.0180603
2005.53	0.000177002	0.00411835
2006.01	-0.000482178	0.00687134
2006.47	-0.698242	-0.0180511
2006.93	-0.000656128	0.0041275
2007.41	0.000906372	0.0068631
2007.87	-0.699127	-0.0180481
2008.33	0.000216675	0.0041275
2008.81	0.000799561	0.00686218
2009.27	-0.697754	-0.0180695
2009.73	0.000491333	0.00412048
2010.21	-0.000588989	0.00687103
2010.67	-0.698395	-0.0180634
2011.13	-0.000305176	0.00412262
2011.61	-3.05176e-05	0.00687042
2012.07	-0.697571	-0.0180664
2012.53	0.000915527	0.0041217
2013.01	-0.000500488	0.00686676
2013.47	-0.698242	-0.0180603
2013.93	-0.000180054	0.00412964
2014.41	0.0006073	0.00685791
2014.87	-0.697662	-0.0180603
2015.33	0.000674438	0.00412109
2015.81	-0.000549316	0.00686798
2016.27	-0.698547	-0.018045
2016.73	0.000933838	0.00412262
2017.21	0.000558472	0.00685699
2017.67	-0.698395	-0.0180603
2018.13	-0.000247192	0.00412872
2018.61	-0.000604248	0.00686615
2019.07	-0.69809	-0.018045
2019.53	0.000982666	0.00412323
2020.01	0.000268555	0.00685669
2020.47	-0.698853	-0.0180511
2020.93	-0.000732422	0.00413147
2021.41	-0.000787354	0.00686462
2021.87	-0.69751	-0.0180542
2022.33	0.000927734	0.00412415
2022.81	-0.000765991	0.00686401
2023.27	-0.699219	-0.018042
2023.73	-0.000219727	0.00412567
2024.21	-0.00012207	0.00686432
2024.67	-0.69928	-0.018042
2025.13	0.000466919	0.00412598
2025.61	0.000775146	0.00685577
2026.07	-0.698303	-0.018042
2026.53	0.000912476	0.00412415
2027.01	-0.000549316	0.00686493
2027.47	-0.698792	-0.0180389
2027.93	0.000891113	0.00412628
2028.41	0.000723267	0.00685699
2028.87	-0.699341	-0.0180389
2029.33	-0.000640869	0.00413727
2029.81	0.000576782	0.00685211
2030.27	-0.699249	-0.0180359
2030.73	0.00093689	0.00412689
2031.21	-5.79834e-05	0.00685883
2031.67	-0.698944	-0.0180298
2032.13	-0.000613403	0.00413635
2032.61	0.000912476	0.00684967
2033.07	-0.698822	-0.018045
2033.53	-0.000790405	0.00413757
2034.01	-0.000125122	0.00685883
2034.47	-0.699219	-0.0180298
2034.93	-0.00065918	0.00413971
2035.41	-0.000378418	0.0068573
2035.87	-0.698303	-0.0180389
2036.33	-0.00062561	0.00414185
2036.81	0.000762939	0.00685303
2037.27	-0.699097	-0.0180359
2037.73	-0.000357056	0.00413666
2038.21	-0.000741577	0.00685608
2038.67	-0.69751	-0.0180389
2039.13	-0.000396729	0.00414185
2039.61	-0.000717163	0.00685516
2040.07	-0.69928	-0.0180328
2040.53	0.000177002	0.00413483
2041.01	-0.000384521	0.00685028
2041.47	-0.69809	-0.018042
2041.93	0.000598145	0.00413177
2042.41	-0.000216675	0.00684845
2042.87	-0.698547	-0.0180206
2043.33	-0.000817871	0.00414154
2043.81	0.00100708	0.00684479
2044.27	-0.698975	-0.0180206
2044.73	0.000985718	0.00413422
2045.21	-0.00027771	0.00684845
2045.67	-0.699219	-0.0180267
2046.13	0.00085144	0.00413361
2046.61	-0.000524902	0.00685425
2047.07	-0.697968	-0.0180237
2047.53	0.000802612	0.00413544
2048.01	-1.52588e-05	0.0068457
2048.47	-0.69812	-0.0180389
2048.93	-0.000262451	0.00414124
2049.41	0.00078125	0.00685455
2049.87	-0.698486	-0.0180664
2050.33	-0.000186157	0.00414124
2050.81	0.000274658	0.00686066
2051.27	-0.698395	-0.0180847
2051.73	-0.000158691	0.00414612
2052.21	-0.000491333	0.00686523
2052.67	-0.69754	-0.0180786
2053.13	0.000314331	0.00413971
2053.61	0.000253296	0.00686066
2054.07	-0.698059	-0.0180847
2054.53	0.000952148	0.00413849
2055.01	0.000827026	0.00686066
2055.47	-0.697723	-0.0180695
2055.93	0.000466919	0.00413513
2056.41	-0.000262451	0.00686584
2056.87	-0.697998	-0.0180695
2057.33	-0.000393677	0.00414429
2057.81	0.000897217	0.00685425
2058.27	-0.698608	-0.0180725
2058.73	-0.00027771	0.00415009
2059.21	0.000961304	0.00685455
2059.67	-0.699097	-0.0180634
2060.13	-0.000613403	0.00414917
2060.61	0.000717163	0.00685486
2061.07	-0.697632	-0.0180695
2061.53	0.000790405	0.00414337
2062.01	-0.000656128	0.00686798
2062.47	-0.6987	-0.0180695
2062.93	-4.27246e-05	0.00414825
2063.41	-0.000567627	0.00686218
2063.87	-0.698059	-0.0180756
2064.33	-0.000613403	0.00415192
2064.81	-0.000219727	0.00685791
2065.27	-0.698639	-0.0180603
2065.73	0.000997925	0.00414093
2066.21	-0.000585937	0.00686493
2066.67	-0.697815	-0.0180756
2067.13	0.000213623	0.00414642
2067.61	0.000561523	0.00685699
2068.07	-0.6987	-0.0180664
2068.53	-0.00072937	0.00415192
2069.01	3.66211e-05	0.00685791
2069.47	-0.698303	-0.0180573
2069.93	0.000830078	0.00414703
2070.41	-0.000344849	0.00686096
2070.87	-0.698975	-0.0180603
2071.33	-0.00072937	0.00415649
2071.81	0.00104065	0.00685516
2072.27	-0.699219	-0.0180603
2072.73	0.000695801	0.00415039
2073.21	-0.000415039	0.00686188
2073.67	-0.69754	-0.0180634
2074.13	0.000894165	0.00414581
2074.61	-0.000274658	0.00686035
2075.07	-0.699127	-0.0180542
2075.53	0.000970459	0.00414795
2076.01	-0.000750732	0.00686127
2076.47	-0.697571	-0.0180634
2076.93	0.000961304	0.00414825
2077.41	-0.000482178	0.00686035
2077.87	-0.697632	-0.0180603
2078.33	0.000286865	0.00415039
2078.81	0.000787354	0.00684937
2079.27	-0.69873	-0.0180481
2079.73	-0.000717163	0.00415894
2080.21	0.000891113	0.00684906
2080.67	-0.697937	-0.0180634
2081.13	0.00105591	0.00414917
2081.61	0.000985718	0.00684723
2082.07	-0.698303	-0.0180481
2082.53	-0.000585937	0.00416138
2083.01	-0.000537109	0.00685791
2083.47	-0.69754	-0.0180573
2083.93	0.00100098	0.00415039
2084.41	0.000521851	0.00685486
2084.87	-0.698608	-0.0180573
2085.33	-0.000360107	0.0041629
2085.81	-0.000668335	0.0068573
2086.27	-0.697449	-0.0180511
2086.73	-0.000570679	0.00416199
2087.21	-0.000790405	0.00685516
2087.67	-0.699127	-0.018045
2088.13	-0.000701904	0.00416534
2088.61	-0.000289917	0.00685394
2089.07	-0.699097	-0.018042
2089.53	0.000949097	0.00415375
2090.01	0.000531006	0.00684357
2090.47	-0.698669	-0.018042
2090.93	0.000595093	0.00416046
2091.41	0.00043335	0.00684357
2091.87	-0.69873	-0.0180481
2092.33	-0.000637817	0.00416504
2092.81	0.000350952	0.00684631
2093.27	-0.69873	-0.0180389
2093.73	0.000808716	0.00415619
2094.21	0.000695801	0.00684082
2094.67	-0.697754	-0.0180542
2095.13	0.000244141	0.00416351
2095.61	0.000839233	0.00684326
2096.07	-0.697968	-0.018042
2096.53	0.000326538	0.00416412
2097.01	-0.000747681	0.00684906
2097.47	-0.697815	-0.018042
2097.93	-0.000320435	0.00416443
2098.41	0.00078125	0.00684052
2098.87	-0.698181	-0.0180359
2099.33	-0.000488281	0.00416901
2099.81	0.000112915	0.00684235
2100.27	-0.698975	-0.0180328
2100.73	0.000741577	0.00415955
2101.21	7.62939e-05	0.00684326
2101.67	-0.698639	-0.018045
2102.13	0.000314331	0.00416443
2102.61	0.000482178	0.0068399
2103.07	-0.699036	-0.0180328
2103.53	3.96729e-05	0.00416962
2104.01	0.000653076	0.0068396
2104.47	-0.697662	-0.0180511
2104.93	0.000619507	0.00416321
2105.41	0.000610352	0.00683929
2105.87	-0.699188	-0.0180328
2106.33	0.000823975	0.00416565
2106.81	-0.000289917	0.00684692
2107.27	-0.697815	-0.018042
2107.73	-0.000588989	0.00417053
2108.21	-0.000326538	0.00684509
2108.67	-0.697906	-0.018042
2109.13	0.00083313	0.00416199
2109.61	0.000772095	0.00683929
2110.07	-0.698029	-0.0180328
2110.53	0.000769043	0.0041629
2111.01	-0.000598145	0.00684265
2111.47	-0.699127	-0.0180298
2111.93	0.000845337	0.00416412
2112.41	0.00020752	0.00683777
2112.87	-0.698059	-0.0180389
2113.33	7.32422e-05	0.00417236
2113.81	0.000747681	0.00683105
2114.27	-0.699188	-0.0180267
2114.73	0.000588989	0.00416779
2115.21	-0.00062561	0.00684082
2115.67	-0.697906	-0.0180328
2116.13	-0.000543213	0.00417725
2116.61	0.000509644	0.00683075
2117.07	-0.698883	-0.0180298
2117.53	-0.000518799	0.00417511
2118.01	-0.000280762	0.00683899
2118.47	-0.699097	-0.0180176
2118.93	-0.000582886	0.00417175
2119.41	-0.000656128	0.00683441
2119.87	-0.697632	-0.0180298
2120.33	0.000930786	0.00416809
2120.81	-0.000680542	0.00683716
2121.27	-0.699249	-0.0180145
2121.73	7.01904e-05	0.0041745
2122.21	0.00017395	0.00683075
2122.67	-0.697693	-0.0180298
2123.13	-0.000454712	0.00417908
2123.61	-0.000744629	0.00683868
2124.07	-0.69751	-0.0180237
2124.53	0.000534058	0.00417053
2125.01	0.000921631	0.00682648
2125.47	-0.699219	-0.0180054
2125.93	-4.88281e-05	0.00416931
2126.41	0.000775146	0.00682861
2126.87	-0.697784	-0.0180237
2127.33	1.52588e-05	0.00417328
2127.81	-0.000421143	0.00683624
2128.27	-0.69928	-0.0180176
2128.73	0.000997925	0.00417511
2129.21	0.000415039	0.00683441
2129.67	-0.699097	-0.0180145
2130.13	0.00071106	0.00417175
2130.61	-0.000732422	0.00683624
2131.07	-0.699371	-0.0180176
2131.53	-0.000576782	0.00418304
2132.01	0.000878906	0.00682312
2132.47	-0.698639	-0.0180115
2132.93	0.000222778	0.00417389
2133.41	0.000942993	0.00682281
2133.87	-0.69873	-0.0180023
2134.33	0.000341797	0.00417816
2134.81	-0.000723267	0.0068335
2135.27	-0.697723	-0.0180206
2135.73	0.000411987	0.00418152
2136.21	-0.000363159	0.00683197
2136.67	-0.69873	-0.0180084
2137.13	-0.000338745	0.00418549
2137.61	0.000161743	0.00682861
2138.07	-0.699188	-0.0180115
2138.53	-0.00062561	0.00418732
2139.01	-0.000854492	0.00683136
2139.47	-0.697937	-0.0180267
2139.93	-0.000280762	0.00418121
2140.41	-0.000735474	0.00682983
2140.87	-0.697754	-0.0180145
2141.33	-0.000384521	0.00418732
2141.81	-0.000247192	0.00682281
2142.27	-0.697937	-0.0180206
2142.73	0.000387573	0.00417847
2143.21	-0.000637817	0.00682953
2143.67	-0.697906	-0.0180176
2144.13	0.000360107	0.00417877
2144.61	-0.00067749	0.00683014
2145.07	-0.699127	-0.0180023
2145.53	-0.000289917	0.00418793
2146.01	-0.00072937	0.00682922
2146.47	-0.699341	-0.0180054
2146.93	-0.000448608	0.00418915
2147.41	-0.000680542	0.00682678
2147.87	-0.697937	-0.0180084
2148.33	0.000143433	0.00417877
2148.81	0.000750732	0.0068222
2149.27	-0.698608	-0.0179962
2149.73	0.000881958	0.00418091
2150.21	0.00017395	0.00682434
2150.67	-0.697693	-0.0180023
2151.13	-0.000476074	0.0041861
2151.61	-0.000817871	0.00682648
2152.07	-0.697693	-0.0180054
2152.53	0.000909424	0.00418213
2153.01	0.00038147	0.00681396
2153.47	-0.698181	-0.0180054
2153.93	0.000915527	0.00418304
2154.41	0.000189209	0.00681396
2154.87	-0.699341	-0.0179993
2155.33	-0.000473022	0.00419434
2155.81	-2.44141e-05	0.00682037
2156.27	-0.698792	-0.017984
2156.73	-0.000463867	0.00419495
2157.21	7.32422e-05	0.00681915
2157.67	-0.69812	-0.0179993
2158.13	-0.000311279	0.00419006
2158.61	0.000479126	0.00681305
2159.07	-0.698364	-0.0179901
2159.53	-0.000723267	0.00419373
2160.01	9.15527e-06	0.00681427
2160.47	-0.698883	-0.0179901
2160.93	0.00038147	0.00418304
2161.41	0.000744629	0.0068158
2161.87	-0.697876	-0.0179871
2162.33	-9.15527e-05	0.00418976
2162.81	0.000924683	0.0068103
2163.27	-0.699249	-0.0179871
2163.73	0.00102539	0.00418549
2164.21	0.000860596	0.00681
2164.67	-0.698608	-0.0179901
2165.13	-0.000198364	0.00419556
2165.61	0.000921631	0.00680939
2166.07	-0.698792	-0.0179901
2166.53	0.000888062	0.00418549
2167.01	-0.000588989	0.00682037
2167.47	-0.698181	-0.0179901
2167.93	5.79834e-05	0.00419128
2168.41	0.00038147	0.00681488
2168.87	-0.697815	-0.0180023
2169.33	-0.00055542	0.00420105
2169.81	0.000778198	0.00680695
2170.27	-0.698975	-0.0179779
2170.73	-0.000170898	0.00419037
2171.21	-0.000656128	0.00681671
2171.67	-0.697876	-0.017984
2172.13	6.10352e-05	0.00419586
2172.61	0.000918579	0.00680634
2173.07	-0.697601	-0.0179932
2173.53	0.000314331	0.0041983
2174.01	0.00072937	0.0068042
2174.47	-0.699097	-0.017981
2174.93	-0.000247192	0.00419525
2175.41	0.000906372	0.00680359
2175.87	-0.697968	-0.017984
2176.33	0.000927734	0.00419037
2176.81	-0.000314331	0.0068161
2177.27	-0.698975	-0.017984
2177.73	0.000906372	0.0041922
2178.21	0.000643921	0.00680634
2178.67	-0.697815	-0.017981
2179.13	0.000598145	0.00419556
2179.61	-0.000454712	0.00681244
2180.07	-0.697784	-0.0179901
2180.53	-0.000814819	0.00420044
2181.01	-0.00050354	0.00681427
2181.47	-0.697571	-0.017984
2181.93	0.000640869	0.00419159
2182.41	0.000231934	0.00680908
2182.87	-0.699127	-0.0179779
2183.33	0.00078125	0.00419189
2183.81	6.10352e-06	0.00680298
2184.27	-0.698212	-0.017981
2184.73	0.000933838	0.00419464
2185.21	-0.000738525	0.0068103
2185.67	-0.698425	-0.0179749
2186.13	0.00105286	0.00419403
2186.61	0.000494385	0.00680725
2187.07	-0.699097	-0.0179718
2187.53	-4.88281e-05	0.00420105
2188.01	0.000872803	0.00679901
2188.47	-0.69754	-0.017984
2188.93	0.00101318	0.00419769
2189.41	-4.27246e-05	0.00680237
2189.87	-0.698578	-0.0179718
2190.33	0.000820923	0.00419769
2190.81	0.000152588	0.00679901
2191.27	-0.69928	-0.0179718
2191.73	1.83105e-05	0.0042041
2192.21	-0.000344849	0.00680725
2192.67	-0.697815	-0.0179901
2193.13	0.000286865	0.00420288
2193.61	-0.000128174	0.00680145
2194.07	-0.698395	-0.01796875
2194.53	0.000979614	0.00419678
2195.01	-0.000683594	0.00680847
2195.47	-0.697754	-0.017984
2195.93	0.000949097	0.00420288
2196.41	0.000778198	0.00679504
2196.87	-0.698822	-0.0179749
2197.33	-0.000588989	0.00420715
2197.81	-0.000595093	0.00680481
2198.27	-0.699188	-0.0179718
2198.73	-6.71387e-05	0.00420776
2199.21	-0.000854492	0.0068042
2199.67	-0.697906	-0.01796875
2200.13	0.000219727	0.00420654
2200.61	0.000323486	0.00679596
2201.07	-0.698547	-0.0179779
2201.53	-0.000689697	0.00421082
2202.01	-0.000262451	0.0068042
2202.47	-0.699249	-0.01796875
2202.93	0.000823975	0.00419952
2203.41	0.000436401	0.006796875
2203.87	-0.69754	-0.0179657
2204.33	0.000985718	0.00420105
2204.81	-0.00027771	0.00680054
2205.27	-0.698578	-0.01796875
2205.73	0.00108948	0.00420349
2206.21	0.000799561	0.00678986
2206.67	-0.697601	-0.0179718
2207.13	-0.000601196	0.00421082
2207.61	-0.000640869	0.00680115
2208.07	-0.698608	-0.0179749
2208.53	-0.000747681	0.00421417
2209.01	0.00101624	0.00679138
2209.47	-0.698944	-0.0179626
2209.93	-7.62939e-05	0.00421265
2210.41	0.000375366	0.00679291
2210.87	-0.697998	-0.0179626
2211.33	-0.000509644	0.0042157
2211.81	-0.000796509	0.00679932
2212.27	-0.697571	-0.0179718
2212.73	-0.000338745	0.00421631
2213.21	-0.000769043	0.00679779
2213.67	-0.698853	-0.0179504
2214.13	-0.000219727	0.00421753
2214.61	0.000592041	0.0067865
2215.07	-0.697601	-0.01796875
2215.53	0.000247192	0.00421265
2216.01	-0.000668335	0.00679657
2216.47	-0.698425	-0.01796875
2216.93	0.000921631	0.00420807
2217.41	0.000726318	0.00678955
2217.87	-0.699249	-0.0179535
2218.33	-0.000628662	0.00421936
2218.81	0.000933838	0.00678589
2219.27	-0.697998	-0.0179657
2219.73	0.000842285	0.00420868
2220.21	0.000799561	0.00678375
2220.67	-0.697784	-0.0179657
2221.13	0.000820923	0.00421448
2221.61	-0.000469971	0.00678619
2222.07	-0.697845	-0.0179657
2222.53	9.46045e-05	0.00421631
2223.01	-0.000753784	0.00679382
2223.47	-0.699188	-0.0179443
2223.93	0.000985718	0.00420929
2224.41	-7.32422e-05	0.0067923
2224.87	-0.697845	-0.0179504
2225.33	-0.000610352	0.00422058
2225.81	-0.000436401	0.00679291
2226.27	-0.697388	-0.0179565
2226.73	0.000717163	0.00421204
2227.21	-5.79834e-05	0.00678864
2227.67	-0.697754	-0.0179565
2228.13	0.00045166	0.00421844
2228.61	3.05176e-06	0.00679352
2229.07	-0.697662	-0.0179596
2229.53	0.000195313	0.00421509
2230.01	0.000216675	0.00678497
2230.47	-0.697632	-0.0179474
2230.93	-0.000170898	0.00421387
2231.41	-5.49316e-05	0.00678223
2231.87	-0.698792	-0.0179413
2232.33	0.000790405	0.00421112
2232.81	-0.000219727	0.00678925
2233.27	-0.699036	-0.0179382
2233.73	0.000143433	0.00421478
2234.21	-0.000619507	0.0067923
2234.67	-0.697632	-0.0179535
2235.13	5.18799e-05	0.00421722
2235.61	0.000662231	0.00678253
2236.07	-0.697815	-0.0179565
2236.53	-0.000662231	0.00422546
2237.01	-6.10352e-05	0.00678833
2237.47	-0.697632	-0.0179474
2237.93	0.000360107	0.00421844
2238.41	-5.49316e-05	0.00678436
2238.87	-0.698212	-0.0179352
2239.33	-0.00043335	0.00422455
2239.81	0.000213623	0.00677704
2240.27	-0.698151	-0.0179352
2240.73	0.000192261	0.00421906
2241.21	0.000888062	0.00677582
2241.67	-0.699249	-0.0179352
2242.13	0.000790405	0.00421631
2242.61	-0.000546265	0.00678802
2243.07	-0.698334	-0.0179352
2243.53	-0.00045166	0.00423157
2244.01	0.000811768	0.00677582
2244.47	-0.699066	-0.0179291
2244.93	0.000424194	0.00422058
2245.41	-0.000552368	0.00678162
2245.87	-0.699097	-0.0179321
2246.33	-0.000177002	0.00422699
2246.81	-0.000314331	0.00677521
2247.27	-0.697632	-0.0179413
2247.73	-0.000619507	0.00423096
2248.21	-0.000646973	0.00678314
2248.67	-0.699341	-0.0179352
2249.13	-7.62939e-05	0.00422821
2249.61	-0.000744629	0.00678436
2250.07	-0.697571	-0.0179382
2250.53	-0.000149536	0.00423126
2251.01	-0.000735474	0.00678284
2251.47	-0.69751	-0.0179291
2251.93	0.000326538	0.00422821
2252.41	-0.000457764	0.00678345
2252.87	-0.69809	-0.0179443
2253.33	-0.00015564	0.0042334
2253.81	-0.000906372	0.00677948
2254.27	-0.69931	-0.0179596
2254.73	-0.000518799	0.00423279
2255.21	-0.000253296	0.00679047
2255.67	-0.697601	-0.017981
2256.13	0.000158691	0.00421936
2256.61	-2.74658e-05	0.00677917
2257.07	-0.698456	-0.0179779
2257.53	0.000128174	0.00421875
2258.01	0.000131226	0.00677948
2258.47	-0.698456	-0.0179779
2258.93	0.00015564	0.00421783
2259.41	0.000109863	0.00677795
2259.87	-0.698425	-0.0179749
2260.33	0.000112915	0.00421875
2260.81	9.76562e-05	0.00677856
2261.27	-0.698395	-0.017984
2261.73	0.000125122	0.00422028
2262.21	8.23975e-05	0.00677765
2262.67	-0.698456	-0.0179749
2263.13	0.000180054	0.00422119
2263.61	4.57764e-05	0.00677765
2264.07	-0.698456	-0.0179718
2264.53	0.000115967	0.00422058
2265.01	7.01904e-05	0.00677551
2265.47	-0.698395	-0.0179718
2265.93	0.000109863	0.0042218
2266.41	5.79834e-05	0.00677551
2266.87	-0.698334	-0.0179718
2267.33	0.000109863	0.00421997
2267.81	5.18799e-05	0.00677429
2268.27	-0.698486	-0.0179718
2268.73	0.000106812	0.00422241
2269.21	8.54492e-05	0.00677643
2269.67	-0.698425	-0.0179657
2270.13	0.000183105	0.00422363
2270.61	9.15527e-06	0.00677277
2271.07	-0.698395	-0.01796875
2271.53	0.000131226	0.00422394
2272.01	6.71387e-05	0.00677338
2272.47	-0.698425	-0.0179657
2272.93	0.000256348	0.00422577
2273.41	2.74658e-05	0.00677216
2273.87	-0.698334	-0.01796875
2274.33	0.000112915	0.00422394
2274.81	9.46045e-05	0.00677307
2275.27	-0.698425	-0.0179626
2275.73	0.000128174	0.00422546
2276.21	5.18799e-05	0.00676971
2276.67	-0.698334	-0.0179657
2277.13	0.000125122	0.00422699
2277.61	7.32422e-05	0.00677032
2278.07	-0.698486	-0.0179596
2278.53	0.000140381	0.00422607
2279.01	8.54492e-05	0.00677185
2279.47	-0.698425	-0.0179596
2279.93	0.00015564	0.00422821
2280.41	0.000210571	0.00676758
2280.87	-0.699402	-0.0179535
2281.33	-0.000393677	0.0042276
2281.81	0.000509644	0.00676422
2282.27	-0.699402	-0.0179565
2282.73	-0.000479126	0.00422791
2283.21	-0.000238037	0.00676971
2283.67	-0.697845	-0.0179626
2284.13	0.000170898	0.00423279
2284.61	-0.00017395	0.00676483
2285.07	-0.698303	-0.0179474
2285.53	-0.000161743	0.00423035
2286.01	0.000564575	0.00676178
2286.47	-0.698029	-0.0179535
2286.93	0.000946045	0.00422607
2287.41	0.000854492	0.00676605
2287.87	-0.699158	-0.0179443
2288.33	0.000921631	0.00422607
2288.81	0.00090332	0.00675964
2289.27	-0.698761	-0.0179443
2289.73	0.00065918	0.00422729
2290.21	-0.000775146	0.00677246
2290.67	-0.697968	-0.0179565
2291.13	0.000741577	0.00423126
2291.61	-0.000350952	0.00676727
2292.07	-0.697693	-0.0179657
2292.53	0.0010437	0.00422638
2293.01	-0.000765991	0.00677063
2293.47	-0.698181	-0.0179596
2293.93	-0.000820923	0.0042392
2294.41	-0.00045166	0.00677002
2294.87	-0.698578	-0.0179596
2295.33	0.000537109	0.00423401
2295.81	-0.000436401	0.00676575
2296.27	-0.698303	-0.0179565
2296.73	-0.000665283	0.00424133
2297.21	-0.000680542	0.00676453
2297.67	-0.69928	-0.0179443
2298.13	-0.000280762	0.00423981
2298.61	-5.79834e-05	0.00676697
2299.03	-0.000683594	0.00276154