File: Edgar/20240607/20240607/electrodeposition_pulsed_potential_20240607_F/pulses_3000_to_4000.txt
Time (s)	WE(1).Potential (V)	WE(1).Current (A)
2307.83	-0.697449	-0.0209442
2308.29	0.000973511	0.00275543
2308.77	0.000927734	0.0060141
2309.23	-0.698425	-0.0183746
2309.69	0.0003479	0.0039035
2310.17	0.000735474	0.00650909
2310.63	-0.697449	-0.0181183
2311.09	-6.40869e-05	0.00407471
2311.57	-0.000241089	0.00660217
2312.03	-0.698975	-0.0180573
2312.49	-0.000585937	0.00412964
2312.97	-0.000500488	0.00664429
2313.43	-0.699188	-0.0180176
2313.89	-0.000601196	0.00415985
2314.37	-0.000668335	0.00667114
2314.83	-0.699097	-0.0179962
2315.29	0.000180054	0.00417114
2315.77	-0.000146484	0.00668213
2316.23	-0.698822	-0.0179993
2316.69	0.000958252	0.0041745
2317.17	0.000601196	0.00668304
2317.63	-0.698273	-0.0179901
2318.09	-0.000564575	0.00419281
2318.57	-0.000790405	0.00670074
2319.03	-0.69931	-0.0179718
2319.49	0.000292969	0.00420227
2319.97	-0.000158691	0.00670593
2320.43	-0.698273	-0.0179871
2320.89	-0.000787354	0.00420654
2321.37	-0.00038147	0.00670898
2321.83	-0.69751	-0.01796875
2322.29	-0.000396729	0.00421387
2322.77	0.000848389	0.00670563
2323.23	-0.697571	-0.0179657
2323.69	-0.000723267	0.00421722
2324.17	0.00102234	0.00671387
2324.63	-0.697906	-0.0179626
2325.09	-0.000598145	0.00421967
2325.57	-0.000357056	0.00672241
2326.03	-0.697723	-0.0179657
2326.49	0.000524902	0.00421936
2326.97	0.000411987	0.00672058
2327.43	-0.697968	-0.0179596
2327.89	0.000750732	0.00422058
2328.37	-0.000131226	0.00672516
2328.83	-0.697754	-0.0179565
2329.29	0.000628662	0.00422363
2329.77	-3.05176e-06	0.00672577
2330.23	-0.698486	-0.0179535
2330.69	0.000814819	0.00422241
2331.17	0.000769043	0.00672211
2331.63	-0.699249	-0.0179413
2332.09	0.000775146	0.00422455
2332.57	0.000524902	0.00672424
2333.03	-0.697693	-0.0179382
2333.49	0.000610352	0.00423492
2333.97	-0.000393677	0.00673096
2334.43	-0.699127	-0.017926
2334.89	0.00101624	0.00422852
2335.37	-0.000848389	0.00673309
2335.83	-0.698639	-0.0179413
2336.29	-0.000576782	0.00424316
2336.77	-0.000790405	0.00672974
2337.23	-0.699127	-0.0179413
2337.69	-0.000720215	0.00424286
2338.17	-0.000253296	0.00672852
2338.63	-0.698822	-0.0179291
2339.09	-0.000497437	0.00424286
2339.57	-0.000256348	0.00673157
2340.03	-0.698334	-0.0179382
2340.49	-9.15527e-05	0.00424072
2340.97	7.93457e-05	0.00672943
2341.43	-0.698792	-0.0179291
2341.89	-0.000350952	0.004245
2342.37	-0.000692749	0.00673584
2342.83	-0.699219	-0.017923
2343.29	-0.00065918	0.00424988
2343.77	-0.000604248	0.0067395
2344.23	-0.699005	-0.0179169
2344.69	0.00106201	0.00424133
2345.17	-3.96729e-05	0.00673828
2345.63	-0.6987	-0.0179108
2346.09	0.000775146	0.0042395
2346.57	0.000527954	0.00673309
2347.03	-0.699402	-0.0179169
2347.49	0.000439453	0.00424377
2347.97	0.000860596	0.00672882
2348.43	-0.699097	-0.0179077
2348.89	-0.000674438	0.0042572
2349.37	0.00043335	0.00672882
2349.83	-0.697998	-0.0179138
2350.29	0.000637817	0.00424957
2350.77	-3.05176e-05	0.00674042
2351.23	-0.698059	-0.017926
2351.69	0.000912476	0.00424683
2352.17	-6.40869e-05	0.00673279
2352.63	-0.69812	-0.0179199
2353.09	0.000946045	0.00424805
2353.57	-0.000405884	0.00673553
2354.03	-0.697998	-0.0179199
2354.49	-0.00062561	0.00426025
2354.97	-0.000714111	0.00674072
2355.43	-0.699158	-0.0179016
2355.89	-0.000531006	0.00426025
2356.37	-0.000311279	0.0067337
2356.83	-0.698669	-0.0179138
2357.29	-0.000360107	0.00425812
2357.77	0.000131226	0.00673187
2358.23	-0.698059	-0.0179169
2358.69	0.000888062	0.00425171
2359.17	0.000558472	0.00672943
2359.63	-0.698914	-0.0179199
2360.09	-0.000534058	0.00425812
2360.57	0.000177002	0.00673126
2361.03	-0.698792	-0.0179169
2361.49	0.000161743	0.00426086
2361.97	-0.00085144	0.0067392
2362.43	-0.698456	-0.0179169
2362.89	-0.000631714	0.00426331
2363.37	-0.000912476	0.00673676
2363.83	-0.69873	-0.0179108
2364.29	-0.000674438	0.00426453
2364.77	0.000848389	0.00672729
2365.23	-0.697784	-0.0179108
2365.69	0.000985718	0.00425568
2366.17	0.000445557	0.0067337
2366.63	-0.698944	-0.0178955
2367.09	-0.000646973	0.00426666
2367.57	0.000811768	0.00672729
2368.03	-0.697906	-0.0179016
2368.49	-0.000531006	0.00426849
2368.97	0.000845337	0.00672638
2369.43	-0.69931	-0.0178986
2369.89	0.000915527	0.0042569
2370.37	-0.000170898	0.0067334
2370.83	-0.699066	-0.0178894
2371.29	-0.000534058	0.00426697
2371.77	-0.000634766	0.00673859
2372.23	-0.69754	-0.0179077
2372.69	0.000875854	0.00426453
2373.17	0.000842285	0.00672638
2373.63	-0.697754	-0.0178894
2374.09	-0.000723267	0.00427094
2374.57	-0.000686646	0.00673859
2375.03	-0.698975	-0.0178864
2375.49	-0.000634766	0.00427155
2375.97	0.000158691	0.00672668
2376.43	-0.699127	-0.0178955
2376.89	-0.000701904	0.00427216
2377.37	1.52588e-05	0.00672729
2377.83	-0.699219	-0.0178894
2378.29	-0.000686646	0.00427338
2378.77	-0.000341797	0.00673553
2379.23	-0.69809	-0.0179047
2379.69	0.000839233	0.00426483
2380.17	-0.000128174	0.0067337
2380.63	-0.698059	-0.0178894
2381.09	-1.2207e-05	0.00426727
2381.57	-0.000515747	0.00673584
2382.03	-0.699127	-0.0178864
2382.49	0.00065918	0.00426819
2382.97	0.000933838	0.00672668
2383.43	-0.697693	-0.0178925
2383.89	0.000979614	0.00426483
2384.37	0.000366211	0.00672699
2384.83	-0.698242	-0.0179016
2385.29	-0.0006073	0.00427521
2385.77	7.32422e-05	0.00673035
2386.23	-0.697906	-0.0179047
2386.69	-0.000680542	0.00426941
2387.17	-9.15527e-05	0.00672638
2387.63	-0.697662	-0.0178864
2388.09	-0.00017395	0.00426971
2388.57	-0.00085144	0.00673096
2389.03	-0.698914	-0.0178833
2389.49	0.000204468	0.0042688
2389.97	-0.000814819	0.00672882
2390.43	-0.698059	-0.0178894
2390.89	0.000146484	0.00426849
2391.37	-0.000808716	0.00673218
2391.83	-0.697601	-0.0178986
2392.29	-0.000637817	0.00427673
2392.77	0.000817871	0.00672302
2393.23	-0.699249	-0.0178894
2393.69	0.000946045	0.0042691
2394.17	-0.00062561	0.00673096
2394.63	-0.69809	-0.0178986
2395.09	0.000146484	0.00427368
2395.57	-0.00045166	0.00672729
2396.03	-0.697571	-0.0178864
2396.49	-0.000427246	0.00427521
2396.97	0.000952148	0.00671967
2397.43	-0.699158	-0.0178833
2397.89	-0.000549316	0.00427307
2398.37	-0.000735474	0.00673309
2398.83	-0.697632	-0.0178925
2399.29	0.000796509	0.00427521
2399.77	-0.00038147	0.00672974
2400.23	-0.697723	-0.0178833
2400.69	0.000360107	0.00427734
2401.17	0.000149536	0.00672546
2401.63	-0.698425	-0.0178833
2402.09	0.00012207	0.00427338
2402.57	8.23975e-05	0.00672272
2403.03	-0.698425	-0.0178833
2403.49	0.000131226	0.00427429
2403.97	9.15527e-05	0.00672394
2404.43	-0.698425	-0.0178833
2404.89	0.000112915	0.00427521
2405.37	7.32422e-05	0.00672272
2405.83	-0.698364	-0.0178864
2406.29	9.76562e-05	0.00427429
2406.77	8.54492e-05	0.0067218
2407.23	-0.698364	-0.0178772
2407.69	0.00017395	0.00427643
2408.17	6.71387e-05	0.00672546
2408.63	-0.698425	-0.0178833
2409.09	6.71387e-05	0.00427582
2409.57	6.10352e-05	0.00672241
2410.03	-0.698364	-0.0178772
2410.49	0.000137329	0.00427643
2410.97	4.27246e-05	0.00671875
2411.43	-0.698517	-0.0178772
2411.89	0.000881958	0.00427124
2412.37	3.05176e-05	0.00672241
2412.83	-0.698303	-0.0178833
2413.29	0.000177002	0.00427979
2413.77	0.000521851	0.00671295
2414.23	-0.698181	-0.0178894
2414.69	0.000445557	0.00427765
2415.17	-0.000457764	0.00671753
2415.63	-0.698639	-0.017868
2416.09	0.000946045	0.00427277
2416.57	-0.000134277	0.00672119
2417.03	-0.698517	-0.017868
2417.49	0.000314331	0.00428528
2417.97	0.000552368	0.00671234
2418.43	-0.698975	-0.0178772
2418.89	0.00105896	0.00427612
2419.37	3.66211e-05	0.00671448
2419.83	-0.697571	-0.0178894
2420.29	-0.000805664	0.00428375
2420.77	-0.000396729	0.006716
2421.23	-0.699158	-0.017865
2421.69	0.0010437	0.00427521
2422.17	-0.000335693	0.00671631
2422.63	-0.699249	-0.0178741
2423.09	0.000332642	0.00427765
2423.57	0.000106812	0.00671539
2424.03	-0.697937	-0.0178802
2424.49	0.000942993	0.00427795
2424.97	-0.000231934	0.00671783
2425.43	-0.699097	-0.0178741
2425.89	-0.000650024	0.00428436
2426.37	-0.000338745	0.00671326
2426.83	-0.697571	-0.0178772
2427.29	0.000939941	0.00427521
2427.77	0.000930786	0.00670959
2428.23	-0.698486	-0.017865
2428.69	0.000366211	0.00428192
2429.17	-0.000344849	0.00671631
2429.63	-0.699188	-0.0178619
2430.09	-0.000256348	0.0042868
2430.57	-0.000628662	0.00671722
2431.03	-0.69928	-0.0178619
2431.49	-0.000646973	0.00428772
2431.97	0.000823975	0.00670502
2432.43	-0.699188	-0.0178619
2432.89	0.000704956	0.00427673
2433.37	-0.000717163	0.00671631
2433.83	-0.697693	-0.0178741
2434.29	-0.000601196	0.00429016
2434.77	0.000674438	0.00670746
2435.23	-0.698395	-0.0178711
2435.69	0.000296021	0.00428436
2436.17	0.000817871	0.00670227
2436.63	-0.699249	-0.0178619
2437.09	0.000579834	0.00427826
2437.57	-0.000778198	0.00671448
2438.03	-0.697876	-0.017868
2438.49	-0.000518799	0.00428589
2438.97	-0.000335693	0.00671326
2439.43	-0.697662	-0.0178833
2439.89	0.000112915	0.00428711
2440.37	0.000643921	0.00670135
2440.83	-0.698669	-0.0178619
2441.29	-0.000439453	0.00428711
2441.77	0.00067749	0.00670532
2442.23	-0.699249	-0.017865
2442.69	2.13623e-05	0.00428528
2443.17	0.000405884	0.00670715
2443.63	-0.699219	-0.0178558
2444.09	-0.00072937	0.00429291
2444.57	0.000900269	0.00670197
2445.03	-0.698029	-0.0178558
2445.49	0.000204468	0.00428925
2445.97	0.000515747	0.00670563
2446.43	-0.699127	-0.017868
2446.89	-0.000564575	0.00429047
2447.37	0.000924683	0.00670105
2447.83	-0.69809	-0.0178589
2448.29	-0.000164795	0.00429138
2448.77	-0.000335693	0.00670532
2449.23	-0.698639	-0.017865
2449.69	-0.000140381	0.00428955
2450.17	0.000796509	0.0067041
2450.63	-0.697693	-0.0178619
2451.09	0.000595093	0.00428711
2451.57	-0.000692749	0.00671143
2452.03	-0.699005	-0.0178528
2452.49	5.79834e-05	0.00429169
2452.97	-0.000445557	0.00670868
2453.43	-0.69812	-0.0178589
2453.89	0.000845337	0.00428711
2454.37	-0.000323486	0.00670898
2454.83	-0.697662	-0.017868
2455.29	0.000946045	0.00428406
2455.77	0.00083313	0.00670013
2456.23	-0.697968	-0.017868
2456.69	0.000546265	0.00428589
2457.17	0.00100098	0.00669647
2457.63	-0.698883	-0.0178619
2458.09	-0.000204468	0.00429016
2458.57	0.000985718	0.00669556
2459.03	-0.698761	-0.0178528
2459.49	0.000143433	0.0042926
2459.97	-0.000820923	0.00670685
2460.43	-0.698395	-0.017868
2460.89	9.15527e-05	0.00428986
2461.37	0.000665283	0.00669403
2461.83	-0.698273	-0.0178558
2462.29	0.000637817	0.00428894
2462.77	-0.000717163	0.00670502
2463.23	-0.698975	-0.0178528
2463.69	-1.83105e-05	0.00429108
2464.17	0.000323486	0.00670258
2464.63	-0.699249	-0.0178497
2465.09	-0.000109863	0.0042926
2465.57	-0.000656128	0.00670746
2466.03	-0.69931	-0.0178436
2466.49	3.05176e-06	0.00429199
2466.97	-0.000424194	0.00669464
2467.43	-0.698639	-0.0178558
2467.89	0.000717163	0.00428925
2468.37	-0.000558472	0.00670197
2468.83	-0.698151	-0.0178619
2469.29	-0.000588989	0.00429993
2469.77	-0.000527954	0.00669373
2470.23	-0.698059	-0.0178467
2470.69	8.23975e-05	0.00429047
2471.17	0.00106506	0.00669128
2471.63	-0.699249	-0.0178345
2472.09	0.000958252	0.00428864
2472.57	0.00050354	0.00669769
2473.03	-0.69928	-0.0178436
2473.49	0.000894165	0.0042868
2473.97	-0.000857544	0.00669678
2474.43	-0.697693	-0.0178558
2474.89	0.000149536	0.00429474
2475.37	0.000817871	0.0066861
2475.83	-0.697845	-0.0178467
2476.29	-0.000714111	0.00429962
2476.77	0.000357056	0.00669678
2477.23	-0.69931	-0.0178436
2477.69	0.000921631	0.00428925
2478.17	0.00105591	0.00668671
2478.63	-0.699249	-0.0178436
2479.09	0.000991821	0.00429016
2479.57	-0.000665283	0.00669891
2480.03	-0.69754	-0.0178528
2480.49	-0.000588989	0.00430145
2480.97	0.00104065	0.00668518
2481.43	-0.699341	-0.0178467
2481.89	0.000436401	0.00429047
2482.37	-0.000561523	0.00669647
2482.83	-0.697998	-0.0178589
2483.29	0.000442505	0.00429504
2483.77	0.000537109	0.00668335
2484.23	-0.699097	-0.0178375
2484.69	-0.000695801	0.00430176
2485.17	-9.76562e-05	0.00669464
2485.63	-0.699066	-0.0178558
2486.09	-0.000674438	0.00430267
2486.57	0.000357056	0.00669189
2487.03	-0.698914	-0.0178375
2487.49	0.000372314	0.0042981
2487.97	0.000613403	0.00668243
2488.43	-0.697479	-0.0178467
2488.89	0.000891113	0.00429077
2489.37	-0.000283813	0.00669525
2489.83	-0.698395	-0.0178375
2490.29	0.000924683	0.00429352
2490.77	-0.0006073	0.00668854
2491.23	-0.699371	-0.0178406
2491.69	0.000137329	0.00429962
2492.17	0.000756836	0.0066806
2492.63	-0.698853	-0.0178558
2493.09	-0.000387573	0.00430511
2493.57	0.000778198	0.00668091
2494.03	-0.698853	-0.0178497
2494.49	-0.000308228	0.00430359
2494.97	0.00102539	0.00668152
2495.43	-0.698059	-0.0178528
2495.89	0.000125122	0.00430176
2496.37	0.000820923	0.00667847
2496.83	-0.699341	-0.0178436
2497.29	0.000970459	0.00429352
2497.77	-0.000161743	0.00669128
2498.23	-0.697754	-0.0178497
2498.69	-0.000588989	0.00430267
2499.17	-0.000836182	0.0066864
2499.63	-0.6987	-0.0178314
2500.09	0.000961304	0.00429565
2500.57	0.00071106	0.00668488
2501.03	-0.699066	-0.0178467
2501.49	-0.000430298	0.00430511
2501.97	-0.000274658	0.00667908
2502.43	-0.698151	-0.0178314
2502.89	0.000195313	0.0042984
2503.37	0.000997925	0.00667633
2503.83	-0.698975	-0.0178253
2504.29	0.00102234	0.00429535
2504.77	0.000296021	0.00667572
2505.23	-0.697754	-0.0178345
2505.69	0.000296021	0.00429901
2506.17	-0.000875854	0.00668579
2506.63	-0.698608	-0.0178406
2507.09	0.000509644	0.00430359
2507.57	0.00102844	0.00667694
2508.03	-0.697723	-0.0178314
2508.49	2.13623e-05	0.00430115
2508.97	0.000259399	0.00668457
2509.43	-0.699188	-0.0178314
2509.89	0.000799561	0.0042984
2510.37	-0.000585937	0.00668701
2510.83	-0.699097	-0.0178345
2511.29	-9.15527e-06	0.00430664
2511.77	-0.000747681	0.00668121
2512.23	-0.699066	-0.0178375
2512.69	0.000143433	0.00430481
2513.17	-0.000463867	0.00668488
2513.63	-0.699249	-0.0178375
2514.09	0.000125122	0.00430389
2514.57	0.000933838	0.00667725
2515.03	-0.698639	-0.0178284
2515.49	0.000839233	0.00430054
2515.97	-0.000732422	0.00668365
2516.43	-0.69754	-0.0178436
2516.89	-0.000302124	0.00430664
2517.37	-0.000323486	0.00667267
2517.83	-0.699097	-0.0178192
2518.29	0.000387573	0.00430511
2518.77	0.00106506	0.00667175
2519.23	-0.69809	-0.0178345
2519.69	-0.000680542	0.00430817
2520.17	0.00110474	0.00667236
2520.63	-0.698273	-0.0178223
2521.09	0.000997925	0.00429901
2521.57	1.52588e-05	0.00667999
2522.03	-0.699066	-0.0178223
2522.49	-0.000564575	0.00431061
2522.97	-0.000302124	0.00667114
2523.43	-0.69751	-0.0178375
2523.89	0.000918579	0.00429871
2524.37	-0.000473022	0.00668121
2524.83	-0.697968	-0.0178375
2525.29	0.000772095	0.00430023
2525.77	0.000167847	0.00667725
2526.23	-0.697876	-0.0178253
2526.69	0.000515747	0.00430542
2527.17	-0.000753784	0.00667847
2527.63	-0.699219	-0.0178284
2528.09	-0.000335693	0.00430817
2528.57	0.000604248	0.00666656
2529.03	-0.697906	-0.0178314
2529.49	0.000234985	0.00430298
2529.97	0.000836182	0.00666443
2530.43	-0.697601	-0.0178345
2530.89	0.000561523	0.00430084
2531.37	0.000857544	0.00666412
2531.83	-0.697723	-0.0178345
2532.29	-0.00119934	0.00429718
2532.77	-0.000958252	0.0066803
2533.23	-0.699036	-0.0178314
2533.69	0.000112915	0.00429138
2534.17	-0.000576782	0.00666382
2534.63	-0.699158	-0.0178223
2535.09	-0.000674438	0.00430328
2535.57	0.00055542	0.00666748
2536.03	-0.697571	-0.0178162
2536.49	-0.0006073	0.00431
2536.97	-0.00062561	0.00667053
2537.43	-0.699066	-0.0178192
2537.89	0.00032959	0.00432098
2538.37	-0.000308228	0.00666687
2538.83	-0.697937	-0.0178223
2539.29	-7.93457e-05	0.00430359
2539.77	-0.000164795	0.00666534
2540.23	-0.698975	-0.017804
2540.69	-0.000595093	0.00429657
2541.17	-0.000280762	0.00667633
2541.63	-0.698944	-0.0178101
2542.09	-0.000238037	0.00429077
2542.57	0.00109558	0.00666779
2543.03	-0.699524	-0.0178192
2543.49	0.000985718	0.00430237
2543.97	-0.00017395	0.00666962
2544.43	-0.699402	-0.0178192
2544.89	-0.000314331	0.00431488
2545.37	0.000506592	0.0066629
2545.83	-0.697845	-0.0178192
2546.29	0.00112305	0.00430573
2546.77	0.000250244	0.00665924
2547.23	-0.698273	-0.017804
2547.69	-0.000183105	0.00430756
2548.17	-0.000714111	0.00666626
2548.63	-0.697693	-0.0178192
2549.09	0.00109253	0.00430664
2549.57	0.000460815	0.0066571
2550.03	-0.698578	-0.017807
2550.49	-0.000460815	0.00431091
2550.97	0.000912476	0.00665527
2551.43	-0.69873	-0.0178131
2551.89	0.000491333	0.00430664
2552.37	0.000531006	0.00666016
2552.83	-0.69754	-0.0178162
2553.29	-0.000531006	0.00431702
2553.77	-0.000671387	0.00666687
2554.23	-0.699158	-0.0178162
2554.69	0.000405884	0.00430786
2555.17	0.000704956	0.00665375
2555.63	-0.69751	-0.0178101
2556.09	3.35693e-05	0.00431458
2556.57	-0.000195313	0.00666321
2557.03	-0.698883	-0.017804
2557.49	-0.000619507	0.00431763
2557.97	-0.00065918	0.00666168
2558.43	-0.697723	-0.0178192
2558.89	-0.000198364	0.00431702
2559.37	-0.000662231	0.00666077
2559.83	-0.697601	-0.0178162
2560.29	-0.000668335	0.00431824
2560.77	0.000466919	0.00665283
2561.23	-0.698181	-0.017804
2561.69	0.000289917	0.00431
2562.17	-0.000769043	0.00666412
2562.63	-0.69928	-0.017804
2563.09	0.000585937	0.00431091
2563.57	-7.62939e-05	0.00666199
2564.03	-0.697693	-0.0178131
2564.49	-0.000683594	0.00431854
2564.97	-0.000421143	0.00666168
2565.43	-0.699249	-0.017807
2565.89	0.0010498	0.00430603
2566.37	-0.000561523	0.00666077
2566.83	-0.699371	-0.0178131
2567.29	-0.00039978	0.00431488
2567.77	-0.000146484	0.00665833
2568.23	-0.697479	-0.0178009
2568.69	-0.000488281	0.00432159
2569.17	0.000149536	0.00665131
2569.63	-0.698151	-0.0178162
2570.09	0.00108948	0.00431152
2570.57	0.000674438	0.00665039
2571.03	-0.698364	-0.0178162
2571.49	0	0.00431976
2571.97	-0.000753784	0.00665955
2572.43	-0.698364	-0.0177979
2572.89	0.000961304	0.00431458
2573.37	-3.96729e-05	0.0066507
2573.83	-0.698669	-0.0177917
2574.29	-0.000765991	0.0043219
2574.77	-0.000701904	0.00665619
2575.23	-0.697998	-0.0178009
2575.69	-5.79834e-05	0.00431763
2576.17	-0.000744629	0.0066571
2576.63	-0.69754	-0.017807
2577.09	-0.000674438	0.00432404
2577.57	0.00020752	0.00664825
2578.03	-0.698883	-0.017804
2578.49	0.000436401	0.00431732
2578.97	0.000949097	0.00664459
2579.43	-0.69928	-0.0178009
2579.89	0.000979614	0.00431183
2580.37	0.000680542	0.00664368
2580.83	-0.698975	-0.0177887
2581.29	-0.000152588	0.00431671
2581.77	-0.00062561	0.00665466
2582.23	-0.698456	-0.017807
2582.69	0.00098877	0.00431244
2583.17	-0.000738525	0.00665405
2583.63	-0.697723	-0.017804
2584.09	0.000793457	0.0043158
2584.57	5.79834e-05	0.00664673
2585.03	-0.698242	-0.0177948
2585.49	-0.000350952	0.00432159
2585.97	0.000888062	0.00664215
2586.43	-0.69931	-0.0177948
2586.89	-0.000369263	0.00431915
2587.37	-3.96729e-05	0.00664795
2587.83	-0.699036	-0.0177917
2588.29	-0.000350952	0.00432007
2588.77	-8.23975e-05	0.00664673
2589.23	-0.698273	-0.0177979
2589.69	0.000396729	0.00431519
2590.17	-0.000738525	0.00664917
2590.63	-0.697662	-0.0178101
2591.09	0.000985718	0.00431488
2591.57	0.000720215	0.00663849
2592.03	-0.697571	-0.0177979
2592.49	0.000952148	0.00431458
2592.97	0.000521851	0.00663727
2593.43	-0.697784	-0.0177887
2593.89	0.000875854	0.0043161
2594.37	0.000946045	0.00663666
2594.83	-0.697571	-0.0177948
2595.29	0.000509644	0.00431519
2595.77	0.000845337	0.00664185
2596.23	-0.697876	-0.0177948
2596.69	-7.32422e-05	0.00431915
2597.17	0.000527954	0.00664429
2597.63	-0.69812	-0.0177979
2598.09	-0.00065918	0.00432587
2598.57	-0.000265503	0.00664795
2599.03	-0.699219	-0.0177795
2599.49	0.000888062	0.00431885
2599.97	0.00105591	0.00663727
2600.43	-0.697845	-0.0177948
2600.89	-0.000497437	0.0043277
2601.37	-0.000643921	0.00664032
2601.83	-0.698639	-0.0177826
2602.29	0.000564575	0.00431702
2602.77	-0.000863647	0.00664276
2603.23	-0.698181	-0.0177979
2603.69	0.000564575	0.00432251
2604.17	0.000152588	0.00663391
2604.63	-0.69754	-0.0177887
2605.09	-0.00067749	0.00432861
2605.57	0.000640869	0.00664001
2606.03	-0.698914	-0.0177795
2606.49	9.15527e-06	0.00432159
2606.97	0.00100708	0.00663452
2607.43	-0.698608	-0.0177765
2607.89	-0.000109863	0.00432343
2608.37	0.000769043	0.0066394
2608.83	-0.698792	-0.0177734
2609.29	0.00062561	0.00431976
2609.77	-0.000473022	0.00664368
2610.23	-0.699219	-0.0177734
2610.69	0.000732422	0.00431793
2611.17	0.000543213	0.00663879
2611.63	-0.698334	-0.0177734
2612.09	0.000534058	0.00431854
2612.57	0.00102844	0.00663116
2613.03	-0.697845	-0.0177765
2613.49	-0.000317383	0.00432648
2613.97	-0.000640869	0.00664337
2614.43	-0.698578	-0.0177826
2614.89	-0.000308228	0.00433167
2615.37	0.000521851	0.00662628
2615.83	-0.699249	-0.0177704
2616.29	0.000891113	0.00431976
2616.77	0.000375366	0.00663544
2617.23	-0.697662	-0.0177887
2617.69	-0.000387573	0.00432831
2618.17	-0.000811768	0.00663269
2618.63	-0.699036	-0.0177643
2619.09	0.000900269	0.0043222
2619.57	0.0010498	0.00662933
2620.03	-0.697601	-0.0177856
2620.49	-0.000186157	0.00432739
2620.97	-0.000769043	0.00663818
2621.43	-0.699158	-0.0177612
2621.89	0.000378418	0.00432617
2622.37	0.000930786	0.00662567
2622.83	-0.698059	-0.0177795
2623.29	-0.000622559	0.00433319
2623.77	4.88281e-05	0.00662628
2624.23	-0.697693	-0.0177795
2624.69	-0.000598145	0.0043338
2625.17	-0.000369263	0.00662994
2625.63	-0.697723	-0.0177856
2626.09	-0.00062561	0.00433014
2626.57	-0.000714111	0.00662994
2627.03	-0.697815	-0.0177795
2627.49	-0.000463867	0.00433289
2627.97	0.000140381	0.00663147
2628.43	-0.69931	-0.0177643
2628.89	0.00090332	0.00432159
2629.37	-0.000674438	0.00663116
2629.83	-0.698334	-0.0177795
2630.29	0.000527954	0.00432465
2630.77	0.000540161	0.00662201
2631.23	-0.697876	-0.0177673
2631.69	-0.000546265	0.00432922
2632.17	0.00017395	0.00662872
2632.63	-0.699341	-0.0177612
2633.09	0.000601196	0.00432281
2633.57	-0.000759888	0.00663086
2634.03	-0.698456	-0.0177765
2634.49	0.000979614	0.00432159
2634.97	-0.000790405	0.00663025
2635.43	-0.698395	-0.0177765
2635.89	0.000961304	0.0043222
2636.37	-0.000778198	0.00662872
2636.83	-0.698273	-0.0177795
2637.29	0.000979614	0.00432129
2637.77	-0.000408936	0.00662872
2638.23	-0.69928	-0.0177673
2638.69	-0.000314331	0.00433075
2639.17	0.00038147	0.00662323
2639.63	-0.698944	-0.0177582
2640.09	-0.000610352	0.00433533
2640.57	0.000924683	0.00661835
2641.03	-0.698303	-0.0177612
2641.49	0.000720215	0.00432709
2641.97	-0.000457764	0.00662506
2642.43	-0.697754	-0.0177704
2642.89	-0.000387573	0.00432922
2643.37	-0.000338745	0.00662506
2643.83	-0.699249	-0.0177612
2644.29	-0.000354004	0.00433289
2644.77	0.000595093	0.00661469
2645.23	-0.697662	-0.0177673
2645.69	-0.000656128	0.00433411
2646.17	0.000872803	0.00661407
2646.63	-0.697693	-0.0177734
2647.09	-0.000299072	0.0043338
2647.57	0.00072937	0.00661255
2648.03	-0.698792	-0.0177673
2648.49	-0.000106812	0.00432556
2648.97	0.000756836	0.00661102
2649.43	-0.698975	-0.0177612
2649.89	0.000579834	0.00433228
2650.37	-0.000259399	0.00661835
2650.83	-0.699005	-0.0177521
2651.29	-0.000820923	0.00433411
2651.77	5.18799e-05	0.00661896
2652.23	-0.697784	-0.0177673
2652.69	-0.000701904	0.00433105
2653.17	-0.000357056	0.00661713
2653.63	-0.697968	-0.0177673
2654.09	-0.000317383	0.00433807
2654.57	0.00083313	0.0066095
2655.03	-0.698395	-0.0177612
2655.49	0.000302124	0.00433472
2655.97	0.000289917	0.00661407
2656.43	-0.699371	-0.0177551
2656.89	0.000506592	0.00433228
2657.37	-0.000231934	0.00661743
2657.83	-0.69751	-0.0177551
2658.29	0.000991821	0.00432526
2658.77	-0.00043335	0.00661041
2659.23	-0.697479	-0.0177551
2659.69	-0.000137329	0.00433105
2660.17	0.000985718	0.00660675
2660.63	-0.699249	-0.017749
2661.09	0.000408936	0.00433228
2661.57	0.000268555	0.00661591
2662.03	-0.698578	-0.0177612
2662.49	-0.000704956	0.00433746
2662.97	0.00103149	0.00661011
2663.43	-0.698212	-0.0177551
2663.89	-0.000622559	0.00432892
2664.37	6.40869e-05	0.00661163
2664.83	-0.698425	-0.0177582
2665.29	0.000100708	0.00433289
2665.77	1.83105e-05	0.00661041
2666.23	-0.698486	-0.0177582
2666.69	0.000131226	0.00433411
2667.17	3.35693e-05	0.00661194
2667.63	-0.698425	-0.0177521
2668.09	0.000100708	0.00433594
2668.57	-1.52588e-05	0.00661133
2669.03	-0.698456	-0.0177521
2669.49	9.76562e-05	0.00433533
2669.97	7.93457e-05	0.00661133
2670.43	-0.698486	-0.0177551
2670.89	0.00015564	0.00433716
2671.37	5.18799e-05	0.00661041
2671.83	-0.698425	-0.0177521
2672.29	0.000128174	0.00433624
2672.77	6.71387e-05	0.00660767
2673.23	-0.698364	-0.0177521
2673.69	0.000158691	0.00433746
2674.17	5.18799e-05	0.00660919
2674.63	-0.698456	-0.0177521
2675.09	0.000320435	0.0043338
2675.57	0.000738525	0.00660156
2676.03	-0.699097	-0.0177399
2676.49	-0.000680542	0.00434174
2676.97	0.000790405	0.00660034
2677.43	-0.697662	-0.017749
2677.89	-0.000576782	0.00434082
2678.37	0.000576782	0.00660522
2678.83	-0.697571	-0.0177551
2679.29	-0.000271606	0.00434387
2679.77	-0.000463867	0.00660919
2680.23	-0.698822	-0.0177368
2680.69	-0.000683594	0.00434082
2681.17	-0.000790405	0.00661072
2681.63	-0.697754	-0.0177521
2682.09	0.000671387	0.00433136
2682.57	-0.000314331	0.00661285
2683.03	-0.698761	-0.0177399
2683.49	0.00093689	0.00433624
2683.97	-0.000759888	0.00660767
2684.43	-0.699127	-0.0177429
2684.89	-0.000543213	0.00433502
2685.37	0.000595093	0.00659637
2685.83	-0.697845	-0.017746
2686.29	0.000448608	0.00433746
2686.77	-0.000378418	0.00660706
2687.23	-0.698181	-0.017749
2687.69	0.00100403	0.0043338
2688.17	-0.000302124	0.00660675
2688.63	-0.697876	-0.0177521
2689.09	0.000802612	0.00433655
2689.57	-0.000750732	0.00660675
2690.03	-0.697723	-0.0177521
2690.49	0.000842285	0.00433563
2690.97	-0.000598145	0.00660583
2691.43	-0.697571	-0.017746
2691.89	0.000912476	0.00433594
2692.37	-0.000115967	0.00660492
2692.83	-0.697601	-0.0177429
2693.29	0.00100403	0.0043338
2693.77	-0.000823975	0.0066037
2694.23	-0.699341	-0.0177399
2694.69	0.000958252	0.00433472
2695.17	0.000939941	0.00659271
2695.63	-0.697418	-0.017746
2696.09	0.00090332	0.00433319
2696.57	0.000793457	0.00659515
2697.03	-0.699249	-0.0177307
2697.49	0.00098877	0.0043396
2697.97	9.15527e-06	0.00659943
2698.43	-0.698975	-0.0177399
2698.89	0.000723267	0.00433472
2699.37	-0.00055542	0.00660339
2699.83	-0.698303	-0.017746
2700.29	0.0009765625	0.00433441
2700.77	-0.000354004	0.00660065
2701.23	-0.698181	-0.0177368
2701.69	0.000985718	0.00433655
2702.17	-0.000167847	0.00659454
2702.63	-0.69754	-0.0177368
2703.09	-0.000695801	0.00434784
2703.57	0.000244141	0.00659637
2704.03	-0.69812	-0.017749
2704.49	0.00065918	0.00434052
2704.97	-0.000744629	0.00659546
2705.43	-0.699249	-0.0177338
2705.89	0.000845337	0.00433624
2706.37	-0.000704956	0.00660034
2706.83	-0.69928	-0.0177368
2707.29	-0.000314331	0.00434387
2707.77	4.57764e-05	0.00659637
2708.23	-0.697418	-0.0177307
2708.69	0.000891113	0.00434296
2709.17	0.000921631	0.00658875
2709.63	-0.699097	-0.0177216
2710.09	0.0010437	0.00434174
2710.57	-0.000527954	0.00659515
2711.03	-0.69812	-0.0177277
2711.49	-0.000421143	0.00434479
2711.97	-0.000320435	0.0065979
2712.43	-0.697998	-0.0177399
2712.89	-0.00062561	0.00434967
2713.37	0.000939941	0.0065863
2713.83	-0.699158	-0.0177185
2714.29	0.000964355	0.00433746
2714.77	-0.000686646	0.00659454
2715.23	-0.69751	-0.0177368
2715.69	-0.000689697	0.00435089
2716.17	0.000521851	0.00659058
2716.63	-0.699066	-0.0177216
2717.09	0.000866699	0.0043396
2717.57	9.46045e-05	0.00658417
2718.03	-0.698669	-0.0177368
2718.49	0.0009552	0.00434082
2718.97	0.000350952	0.00659393
2719.43	-0.697754	-0.0177246
2719.89	0.000790405	0.00434235
2720.37	0.000247192	0.00659302
2720.83	-0.699097	-0.0177155
2721.29	-0.000695801	0.00434753
2721.77	-0.000546265	0.00659454
2722.23	-0.698944	-0.0177307
2722.69	0.000970459	0.00434052
2723.17	-0.000445557	0.00659393
2723.63	-0.699219	-0.0177246
2724.09	0.00107422	0.00434296
2724.57	-0.000683594	0.00659302
2725.03	-0.698364	-0.0177246
2725.49	-0.000552368	0.00435303
2725.97	-0.000723267	0.00659302
2726.43	-0.697845	-0.0177338
2726.89	-0.000534058	0.00435486
2727.37	-0.000418091	0.0065921
2727.83	-0.699127	-0.0177216
2728.29	0.000949097	0.00434509
2728.77	0.000811768	0.00658569
2729.23	-0.699219	-0.0177185
2729.69	0.000811768	0.00434082
2730.17	0.000610352	0.00658051
2730.63	-0.698181	-0.0177155
2731.09	2.74658e-05	0.00434784
2731.57	0.000582886	0.00658813
2732.03	-0.697571	-0.0177307
2732.49	-0.000656128	0.00435394
2732.97	0.00102234	0.00657959
2733.43	-0.697937	-0.0177155
2733.89	-0.000592041	0.00435547
2734.37	0.000286865	0.00658142
2734.83	-0.698761	-0.0177155
2735.29	-0.000637817	0.00435547
2735.77	-0.000418091	0.00658844
2736.23	-0.699402	-0.0177155
2736.69	-2.74658e-05	0.00434448
2737.17	0.000476074	0.00657837
2737.63	-0.698853	-0.0177063
2738.09	0.000158691	0.00435608
2738.57	-0.000158691	0.00658844
2739.03	-0.698547	-0.0177155
2739.49	0.00072937	0.00434784
2739.97	0.000579834	0.00657715
2740.43	-0.698334	-0.0177124
2740.89	-0.000686646	0.00435547
2741.37	0.000115967	0.00658234
2741.83	-0.698914	-0.0177155
2742.29	0.000857544	0.00434387
2742.77	-0.000689697	0.00658539
2743.23	-0.69754	-0.0177185
2743.69	0.000253296	0.00435333
2744.17	0.000491333	0.00657593
2744.63	-0.698456	-0.0177032
2745.09	-0.000698853	0.00435669
2745.57	-0.000726318	0.00658691
2746.03	-0.699188	-0.0177094
2746.49	3.05176e-05	0.00435028
2746.97	-0.000765991	0.006586
2747.43	-0.698212	-0.0177155
2747.89	-0.000289917	0.00435181
2748.37	-0.000152588	0.006586
2748.83	-0.697449	-0.0177124
2749.29	-0.000360107	0.00435791
2749.77	3.35693e-05	0.00657471
2750.23	-0.698914	-0.0177155
2750.69	-0.000714111	0.00435791
2751.17	0.000512695	0.00657379
2751.63	-0.69931	-0.0177063
2752.09	0.000732422	0.0043457
2752.57	-0.00055542	0.00657959
2753.03	-0.698212	-0.0177216
2753.49	-7.32422e-05	0.00434906
2753.97	-0.00057373	0.0065799
2754.43	-0.698853	-0.0177094
2754.89	-0.000231934	0.00436005
2755.37	-0.0006073	0.00658173
2755.83	-0.699249	-0.0177002
2756.29	0.000445557	0.00435333
2756.77	0.000619507	0.00657501
2757.23	-0.697784	-0.0177094
2757.69	-6.10352e-05	0.00435303
2758.17	-0.000152588	0.00657532
2758.63	-0.699188	-0.0177032
2759.09	0.00038147	0.00435455
2759.57	0.000939941	0.0065683
2760.03	-0.697876	-0.0177155
2760.49	-0.000686646	0.00435974
2760.97	-0.000714111	0.00657959
2761.43	-0.698517	-0.0176941
2761.89	0.000442505	0.00435059
2762.37	0.000180054	0.00656921
2762.83	-0.69931	-0.0176941
2763.29	0.000982666	0.00434906
2763.77	0.000848389	0.00657074
2764.23	-0.699097	-0.0177032
2764.69	0.000610352	0.00435486
2765.17	0.00103149	0.00657104
2765.63	-0.697815	-0.0177094
2766.09	2.44141e-05	0.00435883
2766.57	-0.000198364	0.00656799
2767.03	-0.697632	-0.0177032
2767.49	-0.000518799	0.00436157
2767.97	-0.000683594	0.00657806
2768.43	-0.698975	-0.0177032
2768.89	-0.000653076	0.00436279
2769.37	0.000128174	0.00656891
2769.83	-0.698029	-0.017691
2770.29	-0.000646973	0.00436523
2770.77	-0.000613403	0.00657806
2771.23	-0.698944	-0.0176941
2771.69	0.000201416	0.0043515
2772.17	0.000222778	0.00656586
2772.63	-0.698517	-0.017691
2773.09	0.000854492	0.00435883
2773.57	-0.000228882	0.0065744
2774.03	-0.697784	-0.0177032
2774.49	-0.000814819	0.00436218
2774.97	0.00055542	0.00656281
2775.43	-0.699066	-0.0176819
2775.89	0.000933838	0.00435303
2776.37	0.000622559	0.00656586
2776.83	-0.699188	-0.0176941
2777.29	0.000512695	0.00435913
2777.77	-0.000366211	0.0065741
2778.23	-0.698212	-0.0177002
2778.69	-5.79834e-05	0.00436188
2779.17	-0.000241089	0.00657104
2779.63	-0.69873	-0.0176971
2780.09	0.000765991	0.00435608
2780.57	0.000708008	0.00656342
2781.03	-0.699219	-0.017688
2781.49	0.000494385	0.00435547
2781.97	0.000131226	0.00656433
2782.43	-0.69751	-0.0176971
2782.89	-0.00010376	0.00436432
2783.37	0.000662231	0.00656494
2783.83	-0.699188	-0.0176971
2784.29	0.000985718	0.00435577
2784.77	-6.10352e-05	0.00656372
2785.23	-0.697601	-0.0176849
2785.69	-0.000485229	0.00436798
2786.17	0.000601196	0.00656464
2786.63	-0.699249	-0.0176788
2787.09	-5.79834e-05	0.00436096
2787.57	-0.000717163	0.00656708
2788.03	-0.698151	-0.0177002
2788.49	0.000830078	0.00435852
2788.97	-0.000738525	0.00657104
2789.43	-0.697632	-0.017688
2789.89	0.000408936	0.0043631
2790.37	0.0010498	0.00655914
2790.83	-0.69873	-0.0176758
2791.29	-0.000183105	0.00436676
2791.77	-0.000546265	0.0065625
2792.23	-0.699371	-0.017691
2792.69	-0.000521851	0.00436859
2793.17	0.000912476	0.00656006
2793.63	-0.697449	-0.0176849
2794.09	-0.000415039	0.00436829
2794.57	-0.000491333	0.0065683
2795.03	-0.699341	-0.0176819
2795.49	6.10352e-05	0.00434692
2795.97	6.10352e-05	0.00656982
2796.43	-0.698456	-0.0177124
2796.89	0.00131226	0.00438354
2797.37	0.000823975	0.00657104
2797.83	-0.697693	-0.0177002
2798.29	6.40869e-05	0.00436646
2798.77	0.00172119	0.00657562
2799.23	-0.699402	-0.0177032
2799.69	0.000360107	0.00436829
2800.17	0.00126343	0.00659393
2800.63	-0.69873	-0.0177063
2801.09	0.000320435	0.00436401
2801.57	0.0017334	0.00656952
2802.03	-0.697662	-0.0177094
2802.49	5.79834e-05	0.00436707
2802.97	0.00125427	0.00659088
2803.43	-0.697784	-0.0177063
2803.89	-3.66211e-05	0.004375
2804.37	0.000637817	0.00656586
2804.83	-0.698517	-0.0177032
2805.29	0.000152588	0.00436279
2805.77	-0.000299072	0.0065741
2806.23	-0.697815	-0.0176941
2806.69	-0.000158691	0.00437439
2807.17	-0.000622559	0.00657288
2807.63	-0.699219	-0.017691
2808.09	7.32422e-05	0.00437164
2808.57	0.000991821	0.00656067
2809.03	-0.698883	-0.017688
2809.49	-0.000482178	0.00437469
2809.97	0.000326538	0.00656036
2810.43	-0.698059	-0.0176941
2810.89	-0.00072937	0.00437256
2811.37	-0.0003479	0.00656982
2811.83	-0.697632	-0.0177063
2812.29	0.000839233	0.00436981
2812.77	-0.00012207	0.0065683
2813.23	-0.697968	-0.0177032
2813.69	-0.000616455	0.00437744
2814.17	0.000848389	0.00655884
2814.63	-0.697876	-0.0177094
2815.09	0.000717163	0.0043692
2815.57	-0.000320435	0.00656342
2816.03	-0.698792	-0.017688
2816.49	-0.000613403	0.00437714
2816.97	0.000253296	0.00656555
2817.43	-0.697601	-0.0177032
2817.89	0.000247192	0.00437317
2818.37	-0.000567627	0.00656494
2818.83	-0.698944	-0.017688
2819.29	-0.00065918	0.00437775
2819.77	-0.00039978	0.00656891
2820.23	-0.697571	-0.0176971
2820.69	0.000924683	0.00436676
2821.17	0.000949097	0.00655579
2821.63	-0.69751	-0.0176971
2822.09	0.000177002	0.00437347
2822.57	0.00071106	0.0065564
2823.03	-0.698761	-0.017688
2823.49	0.00102234	0.00436646
2823.97	-0.000289917	0.00656433
2824.43	-0.697968	-0.0177032
2824.89	-0.000537109	0.00437195
2825.37	0.000460815	0.00655609
2825.83	-0.699219	-0.0176849
2826.29	-0.000177002	0.00437897
2826.77	0.000302124	0.00656067
2827.23	-0.697693	-0.0177002
2827.69	0.000393677	0.00437256
2828.17	-1.83105e-05	0.00655884
2828.63	-0.698975	-0.0176819
2829.09	0.000415039	0.00437317
2829.57	0.000674438	0.00655762
2830.03	-0.697968	-0.0176971
2830.49	-0.000320435	0.00437592
2830.97	-0.000714111	0.00656372
2831.43	-0.697754	-0.0176941
2831.89	0.000808716	0.0043689
2832.37	0.000906372	0.00655548
2832.83	-0.699005	-0.0176788
2833.29	-0.000595093	0.00438263
2833.77	0.000152588	0.00655304
2834.23	-0.699097	-0.0176819
2834.69	0.000808716	0.00437225
2835.17	0.000570679	0.00655945
2835.63	-0.699249	-0.0176941
2836.09	0.000296021	0.00437714
2836.57	9.15527e-06	0.00655975
2837.03	-0.69928	-0.017688
2837.49	0.00109863	0.00437347
2837.97	7.62939e-05	0.00655975
2838.43	-0.697571	-0.0176941
2838.89	0.000527954	0.00437683
2839.37	-0.000692749	0.00656219
2839.83	-0.698303	-0.017688
2840.29	-0.000646973	0.00438171
2840.77	0.000335693	0.00655579
2841.23	-0.698547	-0.017688
2841.69	-0.000350952	0.0043808
2842.17	0.000881958	0.00654846
2842.63	-0.69928	-0.0176697
2843.09	0.000921631	0.00437347
2843.57	-8.23975e-05	0.00655334
2844.03	-0.699188	-0.0176849
2844.49	0.00085144	0.00437469
2844.97	4.88281e-05	0.0065567
2845.43	-0.698944	-0.0176849
2845.89	0.0009765625	0.00437134
2846.37	-0.000747681	0.00656189
2846.83	-0.697815	-0.017688
2847.29	-9.46045e-05	0.00437714
2847.77	0.000119019	0.00655914
2848.23	-0.697876	-0.0176971
2848.69	-0.000656128	0.00438324
2849.17	0.000167847	0.00655914
2849.63	-0.698151	-0.0176941
2850.09	-0.000582886	0.00438293
2850.57	-9.46045e-05	0.0065509
2851.03	-0.697693	-0.0176971
2851.49	-0.000668335	0.00438232
2851.97	-0.000863647	0.00655945
2852.43	-0.698547	-0.0176788
2852.89	0.00027771	0.00437469
2853.37	-0.00085144	0.00655762
2853.83	-0.697449	-0.017691
2854.29	0.00062561	0.00437347
2854.77	0.000741577	0.00655029
2855.23	-0.699402	-0.0176849
2855.69	-0.000695801	0.00438416
2856.17	5.18799e-05	0.00655151
2856.63	-0.698914	-0.0176941
2857.09	-0.000463867	0.00438568
2857.57	0.000881958	0.00654663
2858.03	-0.698975	-0.0176849
2858.49	-0.000466919	0.00438538
2858.97	0.00015564	0.00655426
2859.43	-0.699188	-0.0176849
2859.89	0.000823975	0.00437988
2860.37	-0.000125122	0.0065567
2860.83	-0.697723	-0.0177032
2861.29	0.000283813	0.00438293
2861.77	8.8501e-05	0.00655548
2862.23	-0.699005	-0.0177002
2862.69	-0.000167847	0.00438019
2863.17	-0.00072937	0.00655823
2863.63	-0.698669	-0.0177032
2864.09	-0.0006073	0.00438385
2864.57	-0.000445557	0.00655762
2865.03	-0.699249	-0.0177002
2865.49	-0.000524902	0.0043866
2865.97	-0.000222778	0.00655609
2866.43	-0.699249	-0.0176971
2866.89	-0.000698853	0.00438629
2867.37	-5.18799e-05	0.00655487
2867.83	-0.698975	-0.017688
2868.29	0.000192261	0.00438538
2868.77	0.000274658	0.00655365
2869.23	-0.699036	-0.017688
2869.69	-0.000570679	0.0043869
2870.17	-0.000521851	0.00655823
2870.63	-0.699188	-0.0176941
2871.09	-0.000680542	0.00438721
2871.57	-0.00057373	0.0065567
2872.03	-0.699158	-0.017691
2872.49	-0.000482178	0.00438812
2872.97	0.000518799	0.00654877
2873.43	-0.697601	-0.0177063
2873.89	0.000204468	0.00437927
2874.37	-0.000695801	0.00655457
2874.83	-0.699036	-0.017688
2875.29	-4.27246e-05	0.00438477
2875.77	0.00093689	0.00654388
2876.23	-0.697693	-0.0176971
2876.69	0.000787354	0.00437714
2877.17	0.000692749	0.00654205
2877.63	-0.699188	-0.0176971
2878.09	-0.000692749	0.00438995
2878.57	-0.000488281	0.00655548
2879.03	-0.697937	-0.0177032
2879.49	-0.000299072	0.00438538
2879.97	-0.000665283	0.00654999
2880.43	-0.697662	-0.0177002
2880.89	0.000546265	0.00438049
2881.37	-0.000567627	0.00655548
2881.83	-0.698883	-0.0176819
2882.29	-7.93457e-05	0.00438782
2882.77	0.000866699	0.00654053
2883.23	-0.698608	-0.0177032
2883.69	-0.000204468	0.00438507
2884.17	-0.000549316	0.00654358
2884.63	-0.69754	-0.0176971
2885.09	-0.000616455	0.00438965
2885.57	-0.000662231	0.00654633
2886.03	-0.698456	-0.0177002
2886.49	0.000375366	0.00438568
2886.97	2.13623e-05	0.0065506
2887.43	-0.69931	-0.0176941
2887.89	0.000213623	0.00438202
2888.37	2.13623e-05	0.00654877
2888.83	-0.697845	-0.0177002
2889.29	9.15527e-05	0.00438354
2889.77	0.000601196	0.00654205
2890.23	-0.697418	-0.017688
2890.69	-0.000637817	0.00439362
2891.17	-0.000741577	0.00654938
2891.63	-0.699371	-0.017688
2892.09	0.000299072	0.00438263
2892.57	-0.000308228	0.00654388
2893.03	-0.69754	-0.0176971
2893.49	0.000189209	0.00439392
2893.97	-0.000653076	0.00654633
2894.43	-0.697998	-0.0176819
2894.89	-3.05176e-06	0.00439392
2895.37	0.000497437	0.00653717
2895.83	-0.69931	-0.0176849
2896.29	-1.2207e-05	0.00438232
2896.77	0.000613403	0.00653992
2897.23	-0.697723	-0.017691
2897.69	0.00108948	0.00438477
2898.17	-0.000286865	0.00654541
2898.63	-0.69751	-0.0176849
2899.09	0.000985718	0.00438782
2899.57	0.000408936	0.00653839
2900.03	-0.699127	-0.0176819
2900.49	-0.000695801	0.00439178
2900.97	0.000762939	0.0065387
2901.43	-0.698517	-0.017688
2901.89	0.00065918	0.00438477
2902.37	-0.000506592	0.00654449
2902.83	-0.699036	-0.0176819
2903.29	4.27246e-05	0.00438507
2903.77	-0.000512695	0.00654236
2904.23	-0.698029	-0.0176849
2904.69	4.27246e-05	0.00439392
2905.17	0.000918579	0.00653412
2905.63	-0.699219	-0.0176758
2906.09	0.000509644	0.00438354
2906.57	-0.000601196	0.00654449
2907.03	-0.698273	-0.017688
2907.49	0.000808716	0.00439117
2907.97	5.79834e-05	0.00654053
2908.43	-0.698883	-0.0176819
2908.89	0.00112	0.00438751
2909.37	-0.000640869	0.00654358
2909.83	-0.697693	-0.017688
2910.29	-0.000726318	0.00439575
2910.77	0.00090332	0.00653076
2911.23	-0.698975	-0.0176697
2911.69	0.000247192	0.00439545
2912.17	-6.40869e-05	0.00654053
2912.63	-0.699249	-0.0176666
2913.09	-0.000540161	0.00439819
2913.57	0.000314331	0.00653656
2914.03	-0.698761	-0.0176727
2914.49	0.00098877	0.00438538
2914.97	0.000698853	0.00652954
2915.43	-0.698364	-0.0176849
2915.89	-0.000756836	0.00439575
2916.37	-0.000280762	0.00653839
2916.83	-0.698914	-0.0176636
2917.29	-0.000177002	0.00439514
2917.77	0.000866699	0.00652863
2918.23	-0.698395	-0.0176697
2918.69	0.000622559	0.00439117
2919.17	0.000848389	0.00652618
2919.63	-0.697571	-0.0176788
2920.09	0.00106201	0.00438721
2920.57	0.000125122	0.00652863
2921.03	-0.699005	-0.0176758
2921.49	-0.000350952	0.00439789
2921.97	0.000772095	0.00652588
2922.43	-0.699066	-0.0176758
2922.89	0.000149536	0.00439667
2923.37	-2.44141e-05	0.00652985
2923.83	-0.699005	-0.0176636
2924.29	0.0010437	0.00438782
2924.77	-0.000323486	0.00653473
2925.23	-0.697693	-0.0176727
2925.69	0.00090332	0.00438507
2926.17	-0.000460815	0.00653412
2926.63	-0.697937	-0.0176697
2927.09	0.000134277	0.00439331
2927.57	0.00010376	0.00652893
2928.03	-0.698456	-0.0176727
2928.49	0.000131226	0.0043927
2928.97	9.15527e-05	0.00652771
2929.43	-0.698395	-0.0176697
2929.89	0.000134277	0.00439331
2930.37	6.40869e-05	0.00652802
2930.83	-0.698456	-0.0176666
2931.29	0.000112915	0.00439331
2931.77	0.000119019	0.0065274
2932.23	-0.698456	-0.0176697
2932.69	0.00012207	0.00439453
2933.17	6.71387e-05	0.0065274
2933.63	-0.698456	-0.0176697
2934.09	0.000128174	0.00439453
2934.57	7.01904e-05	0.0065271
2935.03	-0.698456	-0.0176666
2935.49	0.000125122	0.00439514
2935.97	9.46045e-05	0.00652679
2936.43	-0.698456	-0.0176697
2936.89	0.000125122	0.00439484
2937.37	7.32422e-05	0.00652618
2937.83	-0.698425	-0.0176697
2938.29	-0.000640869	0.0043985
2938.77	0.000927734	0.00652008
2939.23	-0.697449	-0.0176727
2939.69	-0.000524902	0.00439392
2940.17	-0.000720215	0.00653076
2940.63	-0.699158	-0.0176575
2941.09	0.000704956	0.00439453
2941.57	0.000839233	0.00651947
2942.03	-0.697784	-0.0176666
2942.49	0.000924683	0.00438965
2942.97	-0.000350952	0.00652313
2943.43	-0.698517	-0.0176575
2943.89	-0.00065918	0.00439972
2944.37	0.000921631	0.00651672
2944.83	-0.699341	-0.0176605
2945.29	-0.000744629	0.00440186
2945.77	0.000787354	0.00652069
2946.23	-0.698273	-0.0176575
2946.69	0.000842285	0.00439087
2947.17	-0.000524902	0.00652527
2947.63	-0.69928	-0.0176514
2948.09	0.000500488	0.00439667
2948.57	-0.000479126	0.00652374
2949.03	-0.699219	-0.0176514
2949.49	0.000726318	0.00439453
2949.97	-0.000708008	0.00652771
2950.43	-0.698669	-0.0176514
2950.89	-0.000274658	0.00439789
2951.37	0.000985718	0.0065152
2951.83	-0.699219	-0.0176483
2952.29	-2.44141e-05	0.00440094
2952.77	0.000610352	0.0065152
2953.23	-0.698029	-0.0176544
2953.69	0.000619507	0.00440094
2954.17	0.000363159	0.00651672
2954.63	-0.697632	-0.0176636
2955.09	0.000158691	0.0043924
2955.57	0.000231934	0.00651672
2956.03	-0.697784	-0.0176575
2956.49	0.000109863	0.00440033
2956.97	-0.000112915	0.00652252
2957.43	-0.699066	-0.0176514
2957.89	0.00022583	0.00439636
2958.37	0.000628662	0.0065155
2958.83	-0.697601	-0.0176483
2959.29	0.000906372	0.00439667
2959.77	-0.000201416	0.00652557
2960.23	-0.697632	-0.0176605
2960.69	0.000112915	0.00439697
2961.17	0.000317383	0.00651184
2961.63	-0.699371	-0.0176514
2962.09	0.000927734	0.00439606
2962.57	0.000509644	0.00651642
2963.03	-0.697601	-0.0176544
2963.49	0.000497437	0.00439484
2963.97	-0.000622559	0.00652222
2964.43	-0.6987	-0.0176483
2964.89	-0.000567627	0.00440338
2965.37	-0.000488281	0.00652344
2965.83	-0.699188	-0.0176483
2966.29	-2.74658e-05	0.00440216
2966.77	0.000820923	0.00651154
2967.23	-0.697571	-0.0176514
2967.69	-0.000411987	0.00440277
2968.17	0.000463867	0.0065152
2968.63	-0.697662	-0.0176544
2969.09	-0.000646973	0.00440643
2969.57	0.000265503	0.00651794
2970.03	-0.699188	-0.0176422
2970.49	0.000961304	0.00439667
2970.97	-0.000830078	0.00651733
2971.43	-0.697784	-0.0176392
2971.89	0.000958252	0.00439789
2972.37	0.000195313	0.00651611
2972.83	-0.697571	-0.0176514
2973.29	-0.000436401	0.00439941
2973.77	-0.000582886	0.00651825
2974.23	-0.697784	-0.0176483
2974.69	0.000411987	0.00439789
2975.17	0.000418091	0.00651184
2975.63	-0.698364	-0.0176544
2976.09	-0.000253296	0.00440704
2976.57	-0.000665283	0.00651672
2977.03	-0.697632	-0.0176422
2977.49	-0.000704956	0.00440887
2977.97	0.000149536	0.0065094
2978.43	-0.697937	-0.0176392
2978.89	-0.000115967	0.00440216
2979.37	0.000912476	0.00650513
2979.83	-0.697876	-0.0176483
2980.29	-0.000689697	0.00440735
2980.77	-0.000808716	0.0065152
2981.23	-0.699219	-0.01763
2981.69	0.000732422	0.00439697
2982.17	-0.000622559	0.00651611
2982.63	-0.697876	-0.0176392
2983.09	0.000421143	0.00440765
2983.57	0.000704956	0.00650391
2984.03	-0.699097	-0.017627
2984.49	0.000982666	0.00439758
2984.97	6.40869e-05	0.00650726
2985.43	-0.697998	-0.0176392
2985.89	-0.000570679	0.00440796
2986.37	-0.000701904	0.00651489
2986.83	-0.69754	-0.0176453
2987.29	-0.00050354	0.00440704
2987.77	-3.66211e-05	0.00650696
2988.23	-0.699158	-0.01763
2988.69	0.000195313	0.00440613
2989.17	-0.000744629	0.00651276
2989.63	-0.69751	-0.0176392
2990.09	0.000427246	0.00440247
2990.57	0.00103455	0.0065033
2991.03	-0.699341	-0.0176239
2991.49	0.000973511	0.00440155
2991.97	0.000396729	0.00650848
2992.43	-0.697876	-0.017627
2992.89	-0.000805664	0.00440887
2993.37	0.000320435	0.0065036
2993.83	-0.698303	-0.01763
2994.29	0.000585937	0.00440948
2994.77	0.000939941	0.00650116
2995.23	-0.69873	-0.01763
2995.69	-0.000631714	0.00441345
2996.17	0.000875854	0.00649963
2996.63	-0.698456	-0.0176331
2997.09	-0.000567627	0.00441315
2997.57	0.000888062	0.00649994
2998.03	-0.698792	-0.0176331
2998.49	0.000540161	0.00440735
2998.97	-0.000476074	0.00650696
2999.43	-0.697845	-0.017627
2999.89	-0.000653076	0.00441376
3000.37	-8.8501e-05	0.00651184
3000.83	-0.698486	-0.0176208
3001.29	-0.000674438	0.00441193
3001.77	-0.000241089	0.00650146
3002.23	-0.69754	-0.0176361
3002.69	-0.00071106	0.00441315
3003.17	-0.000292969	0.00650848
3003.63	-0.699219	-0.0176239
3004.09	0.000320435	0.00440308
3004.57	0.000314331	0.00649902
3005.03	-0.698944	-0.0176239
3005.49	0.000942993	0.00440338
3005.97	-0.00078125	0.00650879
3006.43	-0.697571	-0.017627
3006.89	-4.57764e-05	0.00441284
3007.37	8.8501e-05	0.00650085
3007.79	0.000949097	0.00312561