File: Edgar/20240607/20240607/electrodeposition_pulsed_potential_20240607_F/pulses_0_to_1000.txt
Time (s)	WE(1).Potential (V)	WE(1).Current (A)
181.614	-0.698364	-0.00382904
182.074	-0.000576782	9.765625E-06
182.554	0.000778198	0.000100006
183.014	-0.700134	-0.00401245
183.474	0.00043335	1.77612e-05
183.954	-0.000671387	0.000159119
184.414	-0.698547	-0.00512207
184.874	-0.000390625	2.771e-05
185.354	-0.000387573	0.000211823
185.814	-0.699066	-0.00627411
186.274	0.000506592	1.25122e-06
186.754	-0.000146484	0.000243774
187.214	-0.698853	-0.00724915
187.674	0.000561523	-3.28674e-05
188.154	-0.00065918	0.000279755
188.614	-0.698364	-0.00805359
189.074	-7.93457e-05	-6.71997e-05
189.554	0.000195313	0.00033429
190.014	-0.699921	-0.00871582
190.474	0.000994873	-0.000106842
190.954	-3.05176e-06	0.000460571
191.414	-0.698151	-0.00930481
191.874	0.000689697	-0.000127197
192.354	0.000537109	0.000662842
192.814	-0.698334	-0.00982056
193.274	0.000616455	-0.000150757
193.754	-0.000527954	0.000964355
194.214	-0.69809	-0.0102783
194.674	-0.00045166	-0.000158173
195.154	0.000811768	0.00130859
195.614	-0.699463	-0.0106842
196.074	-0.000637817	-0.000167542
196.554	-1.52588e-05	0.00171692
197.014	-0.698334	-0.0110626
197.474	0.000799561	-0.000187775
197.954	-8.23975e-05	0.00212372
198.414	-0.699249	-0.0113953
198.874	-0.000759888	-0.000183167
199.354	0.000402832	0.00253143
199.814	-0.698151	-0.0117096
200.274	0.000973511	-0.000199158
200.754	-0.000613403	0.00291962
201.214	-0.699493	-0.011969
201.674	-0.000204468	-0.000197449
202.154	-0.000280762	0.00327789
202.614	-0.697968	-0.0122375
203.074	0.000997925	-0.000207886
203.554	0.000891113	0.00359741
204.014	-0.697906	-0.0124725
204.474	-0.000479126	-0.000198853
204.954	6.10352e-05	0.00390015
205.414	-0.699463	-0.012677
205.874	0.000866699	-0.000213257
206.354	0.00112	0.00417267
206.814	-0.698792	-0.0128937
207.274	-0.000271606	-0.000204041
207.754	-0.000466919	0.0044281
208.214	-0.699524	-0.0130646
208.674	0.000195313	-0.000207123
209.154	0.00103455	0.00464569
209.614	-0.698517	-0.0132599
210.074	-0.000408936	-0.000202972
210.554	-0.000656128	0.00486176
211.014	-0.697876	-0.0134155
211.474	-0.000378418	-0.000201752
211.954	0.00012207	0.00504333
212.414	-0.699585	-0.0135529
212.874	-0.000686646	-0.000196472
213.354	0.00108337	0.00521576
213.814	-0.698914	-0.0136963
214.274	0.000949097	-0.00020639
214.754	-5.18799e-05	0.00537628
215.214	-0.697815	-0.0138336
215.674	-0.000543213	-0.000193298
216.154	0.000411987	0.0055188
216.614	-0.699341	-0.0139496
217.074	-0.000527954	-0.00018988
217.554	-0.000683594	0.00566406
218.014	-0.698914	-0.0140686
218.474	-0.000616455	-0.000184662
218.954	-0.000695801	0.00579163
219.414	-0.697968	-0.0141785
219.874	-0.000680542	-0.000180908
220.354	-0.000747681	0.00591156
220.814	-0.697968	-0.0142761
221.274	0.000982666	-0.000189758
221.754	0.000836182	0.00601135
222.214	-0.699127	-0.0143585
222.674	0.000100708	-0.00018045
223.154	0.000891113	0.0061142
223.614	-0.699463	-0.0144592
224.074	0.000808716	-0.000182983
224.554	0.000308228	0.0062149
225.014	-0.698486	-0.0145447
225.474	-0.000314331	-0.000168579
225.954	-5.49316e-05	0.00631012
226.414	-0.699341	-0.0146332
226.874	-0.0003479	-0.000163971
227.354	-0.000363159	0.00639709
227.814	-0.699036	-0.0147034
228.274	-0.000326538	-0.000161041
228.754	0.000921631	0.00647736
229.214	-0.699127	-0.0147919
229.674	0.000756836	-0.000162231
230.154	-0.000515747	0.00656494
230.614	-0.698761	-0.014859
231.074	-0.00067749	-0.000150208
231.554	-1.83105e-05	0.00664032
232.014	-0.699158	-0.0149292
232.474	0.000769043	-0.000153748
232.954	-0.000357056	0.00671326
233.414	-0.698212	-0.0150085
233.874	-0.000421143	-0.000137604
234.354	0.000296021	0.00677063
234.814	-0.697968	-0.0150726
235.274	-0.000588989	-0.00013327
235.754	-5.79834e-05	0.00684448
236.214	-0.698334	-0.0151306
236.674	-0.00045166	-0.000131134
237.154	-0.00072937	0.00690887
237.614	-0.697998	-0.01521
238.074	7.62939e-05	-0.000126495
238.554	-0.000692749	0.00696869
239.014	-0.699432	-0.0152649
239.474	0.000436401	-0.00012616
239.954	0.000827026	0.00701233
240.414	-0.69812	-0.0153168
240.874	0.000552368	-0.000116302
241.354	0.000485229	0.00706573
241.814	-0.698212	-0.0153778
242.274	0.000708008	-0.000114868
242.754	0.000436401	0.00711884
243.214	-0.698486	-0.0154205
243.674	-0.00055542	-0.000100708
244.154	0.000228882	0.00717529
244.614	-0.697937	-0.0154999
245.074	-0.000183105	-9.8053e-05
245.554	0.000137329	0.0072229
246.014	-0.699493	-0.0155396
246.474	0.000762939	-9.97925e-05
246.954	-0.000714111	0.00727173
247.414	-0.698822	-0.0155853
247.874	0.000949097	-9.021e-05
248.354	-0.000524902	0.00730927
248.814	-0.699005	-0.0156433
249.274	0.000775146	-8.68225e-05
249.754	0.000494385	0.00734711
250.214	-0.698151	-0.015686
250.674	0.000933838	-8.15125e-05
251.154	0.000491333	0.00738739
251.614	-0.697968	-0.015744
252.074	0.000424194	-7.06177e-05
252.554	-0.0003479	0.00743256
253.014	-0.699463	-0.0157837
253.474	-0.000402832	-5.68542e-05
253.954	-0.000222778	0.00746857
254.414	-0.699341	-0.0158295
254.874	0.000680542	-5.41382e-05
255.354	6.10352e-06	0.00751648
255.814	-0.69931	-0.0158752
256.274	-0.000588989	-4.22058e-05
256.754	0.000598145	0.00753784
257.214	-0.697693	-0.0159241
257.674	0.000274658	-4.21448e-05
258.154	-5.49316e-05	0.00756226
258.614	-0.698425	-0.015976
259.074	0.000848389	-3.66821e-05
259.554	-0.000872803	0.00760498
260.014	-0.69928	-0.0160004
260.474	-0.000543213	-1.94397e-05
260.954	0.000692749	0.00762634
261.414	-0.699402	-0.01604
261.874	-0.000692749	-1.40686e-05
262.354	-0.00085144	0.00766602
262.814	-0.698822	-0.0160858
263.274	0.000732422	-1.42517e-05
263.754	-0.000320435	0.00769653
264.214	-0.697723	-0.0161316
264.674	0.000933838	-7.93457e-06
265.154	3.05176e-06	0.00770874
265.614	-0.699402	-0.0161682
266.074	0.000521851	3.8147e-06
266.554	-0.00078125	0.00773926
267.014	-0.697723	-0.0162048
267.474	0.00032959	1.38245e-05
267.954	-0.00017395	0.00775452
268.414	-0.698517	-0.0162537
268.874	0.00085144	2.11487e-05
269.354	-0.000509644	0.00780334
269.814	-0.697815	-0.0162903
270.274	4.88281e-05	3.1311e-05
270.754	0.000787354	0.00781555
271.214	-0.698761	-0.0163177
271.674	-0.00071106	4.65393e-05
272.154	-0.000933838	0.00783386
272.614	-0.699066	-0.0163483
273.074	-0.000592041	5.36194e-05
273.554	0.00017395	0.00787048
274.014	-0.698242	-0.0163971
274.474	1.83105e-05	6.00891e-05
274.954	-0.000753784	0.00788269
275.414	-0.697845	-0.0164307
275.874	-0.000314331	6.84814e-05
276.354	-0.000805664	0.0079071
276.814	-0.698364	-0.016452
277.274	0.000143433	7.6355e-05
277.754	-0.000585937	0.00794067
278.214	-0.698364	-0.0164825
278.674	-0.000692749	8.88062e-05
279.154	-0.000601196	0.00795288
279.614	-0.698029	-0.0165344
280.074	-0.000689697	0.000100494
280.554	0.000778198	0.00796204
281.014	-0.698914	-0.0165466
281.474	0.000982666	9.92126e-05
281.954	-0.000543213	0.0079834
282.414	-0.699005	-0.0165771
282.874	0.00078125	0.000110718
283.354	-0.000735474	0.00801392
283.814	-0.698151	-0.016626
284.274	-0.000643921	0.000130219
284.754	-0.000317383	0.00802307
285.214	-0.697968	-0.0166443
285.674	0.0010498	0.00013205
286.154	0.000845337	0.00804749
286.614	-0.698914	-0.016684
287.074	-0.000674438	0.000151123
287.554	0.000543213	0.00806274
288.014	-0.698975	-0.0167114
288.474	0.00027771	0.000153595
288.954	-0.000814819	0.00808105
289.414	-0.697662	-0.0167358
289.874	0.000732422	0.0001604
290.354	0.000289917	0.00809631
290.814	-0.697632	-0.0167725
291.274	0.000314331	0.000172668
291.754	-0.000869751	0.00812683
292.214	-0.698395	-0.0167877
292.674	0.00111084	0.000179321
293.154	0.000549316	0.00812378
293.614	-0.697662	-0.0168274
294.074	-0.00032959	0.000197235
294.554	0.000244141	0.00814819
295.014	-0.697937	-0.0168579
295.474	0.000375366	0.000202728
295.954	-0.000918579	0.0081665
296.414	-0.699097	-0.0168793
296.874	0.000167847	0.000216309
297.354	0	0.0081665
297.814	-0.697693	-0.0169037
298.274	0.000610352	0.000222992
298.754	-0.000808716	0.00819092
299.214	-0.698364	-0.0169312
299.674	0.000283813	0.000232574
300.154	-0.000445557	0.00821228
300.614	-0.699188	-0.0169464
301.074	-0.000640869	0.000253113
301.554	-0.000842285	0.00821533
302.014	-0.698517	-0.0169739
302.474	0.000341797	0.000259033
302.954	-0.000619507	0.00823364
303.414	-0.698853	-0.0170166
303.874	0.000576782	0.000263641
304.354	0.000335693	0.00822754
304.814	-0.699249	-0.0170258
305.274	0.000842285	0.000272095
305.754	0.000671387	0.00825195
306.214	-0.699066	-0.017041
306.674	0.000100708	0.000289551
307.154	-0.000350952	0.008255
307.614	-0.698883	-0.0170837
308.074	0.000558472	0.00029895
308.554	0.000778198	0.00827332
309.014	-0.699371	-0.017099
309.474	0.00101624	0.000309509
309.954	0.000827026	0.00828857
310.414	-0.697601	-0.0171326
310.874	-0.000714111	0.000329346
311.354	0.000714111	0.00830383
311.814	-0.699371	-0.0171387
312.274	-0.000430298	0.000340668
312.754	0.000405884	0.00831604
313.214	-0.69873	-0.0171722
313.674	0.000527954	0.000345612
314.154	-0.000909424	0.0083252
314.614	-0.69928	-0.0171844
315.074	0.000994873	0.000352783
315.554	-0.000888062	0.00833435
316.014	-0.697968	-0.017215
316.474	0.000674438	0.000363373
316.954	-0.000265503	0.0083374
317.414	-0.69931	-0.0172272
317.874	0.000723267	0.000376892
318.354	-0.000424194	0.00835876
318.814	-0.698303	-0.0172607
319.274	-0.000485229	0.000395264
319.754	0.000479126	0.00837097
320.214	-0.697754	-0.0172791
320.674	0.00012207	0.000404877
321.154	-0.000506592	0.00837402
321.614	-0.698975	-0.0172882
322.074	-8.54492e-05	0.000416656
322.554	-0.000906372	0.00838013
323.014	-0.699188	-0.0173126
323.474	-0.000415039	0.000434662
323.954	0.000476074	0.00839539
324.414	-0.699005	-0.0173431
324.874	-0.000665283	0.000443756
325.354	0.000543213	0.00839844
325.814	-0.698547	-0.0173523
326.274	0.00112305	0.000444672
326.754	-0.000570679	0.00838928
327.214	-0.699066	-0.0173706
327.674	0.000924683	0.000457886
328.154	0.000552368	0.00841064
328.614	-0.699402	-0.017395
329.074	5.18799e-05	0.0004758
329.554	0.000366211	0.00842285
330.014	-0.698608	-0.0174072
330.474	0.000973511	0.000480438
330.954	0.000106812	0.00843811
331.414	-0.697571	-0.0174377
331.874	0.000491333	0.000498657
332.354	-0.000570679	0.00844421
332.814	-0.699188	-0.0174408
333.274	-0.000476074	0.000509338
333.754	0.000619507	0.00844727
334.214	-0.69931	-0.0174652
334.674	0.000109863	0.000525513
335.154	0.000695801	0.00844727
335.614	-0.698914	-0.0174805
336.074	0.00112	0.00052948
336.554	9.76562e-05	0.00845337
337.014	-0.697723	-0.0175079
337.474	0.00102234	0.000543518
337.954	0.000119019	0.00846863
338.414	-0.699432	-0.0175201
338.874	-0.00017395	0.000563354
339.354	-0.000180054	0.00847778
339.814	-0.698059	-0.0175446
340.274	0.0009765625	0.000562744
340.754	0.00088501	0.00847778
341.214	-0.698853	-0.0175568
341.674	-0.000518799	0.000587769
342.154	-0.000375366	0.00849304
342.614	-0.698944	-0.0175842
343.074	-0.00055542	0.00059967
343.554	0.000817871	0.00849304
344.014	-0.69812	-0.0175873
344.474	-0.000570679	0.000610046
344.954	4.57764e-05	0.00848694
345.414	-0.699341	-0.0176056
345.874	0.000271606	0.000618896
346.354	-0.000570679	0.0085144
346.814	-0.697571	-0.017627
347.274	0.000738525	0.000622864
347.754	-0.00072937	0.00849609
348.214	-0.698578	-0.0176453
348.674	0.00107727	0.000636902
349.154	0.00078125	0.0085022
349.614	-0.698395	-0.0176605
350.074	0.000704956	0.000656128
350.554	0.000268555	0.00852051
351.014	-0.698914	-0.0176636
351.474	0.000106812	0.000662842
351.954	0.0003479	0.00850525
352.414	-0.698181	-0.0176758
352.874	-0.000610352	0.000680237
353.354	-0.000811768	0.00852356
353.814	-0.697998	-0.0176971
354.274	-0.000488281	0.000690918
354.754	-0.000402832	0.0085144
355.214	-0.698303	-0.0177032
355.674	-1.52588e-05	0.00070282
356.154	0.000756836	0.00852356
356.614	-0.697601	-0.0177277
357.074	0.000628662	0.000714111
357.554	0.000753784	0.00852051
358.014	-0.699188	-0.0177368
358.474	0.00106812	0.000717468
358.954	0.000567627	0.00852661
359.414	-0.698273	-0.0177612
359.874	0.000582886	0.000729675
360.354	-0.000906372	0.00853882
360.814	-0.698761	-0.0177612
361.274	0.00107727	0.000740967
361.754	0.000515747	0.00853271
362.214	-0.69751	-0.0177826
362.674	0.000997925	0.000751953
363.154	-0.000897217	0.00854187
363.614	-0.699127	-0.0177856
364.074	0.000720215	0.000763245
364.554	-0.000488281	0.00854187
365.014	-0.697937	-0.0178131
365.474	-6.40869e-05	0.000782776
365.954	-0.000906372	0.00855103
366.414	-0.699158	-0.0178131
366.874	3.66211e-05	0.000791931
367.354	-0.000112915	0.00855713
367.814	-0.697937	-0.0178436
368.274	-7.62939e-05	0.000805664
368.754	-0.000845337	0.00856323
369.214	-0.698425	-0.0178345
369.674	0.00039978	0.000813293
370.154	0.000744629	0.00855103
370.614	-0.699249	-0.0178497
371.074	0.00109863	0.000822754
371.554	0.000250244	0.00855103
372.014	-0.697968	-0.0178833
372.474	0.00105286	0.000834961
372.954	0.000665283	0.00856018
373.414	-0.697876	-0.0178833
373.874	-0.000674438	0.000853271
374.354	7.32422e-05	0.00855408
374.814	-0.697784	-0.0178986
375.274	0.000982666	0.000858459
375.754	0.000732422	0.00856323
376.214	-0.699066	-0.0179016
376.674	0.00105896	0.00086792
377.154	0.000817871	0.00856323
377.614	-0.697937	-0.0179199
378.074	0.000561523	0.000884094
378.554	0.000656128	0.00856934
379.014	-0.699463	-0.0179321
379.474	0.0010498	0.000890808
379.954	-0.000415039	0.00858154
380.414	-0.697998	-0.0179565
380.874	0.000500488	0.00091156
381.354	0.000790405	0.00857849
381.814	-0.697876	-0.0179565
382.274	-0.00038147	0.000922546
382.754	0.000357056	0.00858154
383.214	-0.69931	-0.0179626
383.674	-0.0003479	0.00093689
384.154	0.000289917	0.00858765
384.614	-0.697662	-0.017981
385.074	0.000704956	0.000938416
385.554	0.000421143	0.00858459
386.014	-0.69873	-0.017984
386.474	-0.000564575	0.000959473
386.954	-0.000875854	0.00858765
387.414	-0.697662	-0.0180084
387.874	-0.000595093	0.000972595
388.354	-0.000515747	0.0085907
388.814	-0.699219	-0.0180054
389.274	0.000427246	0.0009765625
389.754	-0.000796509	0.00858765
390.214	-0.698792	-0.0180176
390.674	0.000213623	0.000993652
391.154	-0.000421143	0.0085907
391.614	-0.697632	-0.018042
392.074	0.000790405	0.000997314
392.554	0.000662231	0.00858154
393.014	-0.699036	-0.0180359
393.474	0.000656128	0.00100861
393.954	-0.000872803	0.00858765
394.414	-0.698608	-0.0180542
394.874	0.000802612	0.00101501
395.354	0.000753784	0.00858459
395.814	-0.698975	-0.0180664
396.274	0.00104065	0.001026
396.754	-0.000747681	0.00858459
397.214	-0.697815	-0.0180878
397.674	-0.000585937	0.00104889
398.154	-0.000637817	0.00858765
398.614	-0.699066	-0.0180725
399.074	9.15527e-05	0.00105713
399.554	-0.000762939	0.00858765
400.014	-0.697906	-0.0180939
400.474	0.00090332	0.00105774
400.954	0.000698853	0.0085968
401.414	-0.697601	-0.0181091
401.874	0.000836182	0.00107361
402.354	-0.000759888	0.00859985
402.814	-0.698639	-0.0181244
403.274	-0.000561523	0.00109375
403.754	-0.000534058	0.0085907
404.214	-0.697571	-0.0181366
404.674	-8.8501e-05	0.00110168
405.154	-0.000735474	0.00860291
405.614	-0.697388	-0.0181396
406.074	0.000784302	0.00110291
406.554	0.000527954	0.00858459
407.014	-0.697845	-0.0181458
407.474	-0.000598145	0.00112091
407.954	-0.000726318	0.00859375
408.414	-0.697662	-0.018158
408.874	0.000692749	0.00112305
409.354	-0.000100708	0.00858765
409.814	-0.697815	-0.0181763
410.274	0.000598145	0.00113953
410.754	-0.000515747	0.00860596
411.214	-0.699127	-0.0181824
411.674	-0.000460815	0.00115601
412.154	0.000546265	0.00859985
412.614	-0.697601	-0.0181763
413.074	0.000549316	0.00116119
413.554	-0.000512695	0.00859375
414.014	-0.699188	-0.0181915
414.474	-0.000341797	0.00117828
414.954	0.00078125	0.00859375
415.414	-0.697998	-0.0182007
415.874	-0.00050354	0.00118591
416.354	0.000213623	0.00860291
416.814	-0.69754	-0.0182159
417.274	-0.00062561	0.00119537
417.754	0.000485229	0.0085968
418.214	-0.69809	-0.018219
418.674	-0.000271606	0.00120605
419.154	-0.00015564	0.00860291
419.614	-0.698883	-0.0182312
420.074	1.2207e-05	0.0012149
420.554	0.000247192	0.00859375
421.014	-0.698181	-0.0182373
421.474	-0.000579834	0.0012323
421.954	0.00045166	0.00859375
422.414	-0.69809	-0.0182404
422.874	0.000958252	0.00123047
423.354	-0.000244141	0.00860901
423.814	-0.697601	-0.0182526
424.274	0.00115662	0.00124176
424.754	-0.000396729	0.00860596
425.214	-0.698792	-0.0182617
425.674	0.000802612	0.00125183
426.154	-0.000543213	0.00860596
426.614	-0.697632	-0.01828
427.074	-0.000375366	0.00126892
427.554	-0.000125122	0.00858765
428.014	-0.698761	-0.018277
428.474	-0.000198364	0.00127869
428.954	-0.000784302	0.00860596
429.414	-0.699249	-0.018277
429.874	0.00106812	0.00128357
430.354	-0.000872803	0.00859985
430.814	-0.699219	-0.0182861
431.274	0.000933838	0.00130005
431.754	-0.00083313	0.00859985
432.214	-0.697693	-0.0183075
432.674	-0.000250244	0.00131042
433.154	-0.000396729	0.00860291
433.614	-0.698822	-0.0182983
434.074	0.00105286	0.00131683
434.554	0.000100708	0.00858459
435.014	-0.699219	-0.0183075
435.474	0	0.00133087
435.954	0.000717163	0.0085907
436.414	-0.698883	-0.0183136
436.874	-0.00012207	0.00134247
437.354	0.000671387	0.00858765
437.814	-0.698395	-0.0183411
438.274	-0.000534058	0.00135193
438.754	0.000491333	0.00859375
439.214	-0.69754	-0.0183411
439.674	-0.000579834	0.00136475
440.154	0.000567627	0.0085907
440.614	-0.697601	-0.0183533
441.074	9.76562e-05	0.00137543
441.554	0.00038147	0.00858154
442.014	-0.698547	-0.0183533
442.474	-0.00027771	0.00138458
442.954	-0.000152588	0.00858154
443.414	-0.699249	-0.0183502
443.874	-0.000454712	0.00139191
444.354	-0.000497437	0.00859985
444.814	-0.698822	-0.0183716
445.274	9.15527e-06	0.00140259
445.754	0.000305176	0.00857849
446.214	-0.698334	-0.0183624
446.674	-0.000552368	0.00141296
447.154	0.000756836	0.0085907
447.614	-0.699249	-0.0183746
448.074	0.000357056	0.00141327
448.554	-0.000631714	0.00858459
449.014	-0.698242	-0.0183899
449.474	-0.000524902	0.00143555
449.954	-0.000787354	0.00858765
450.414	-0.697662	-0.0183929
450.874	-0.000500488	0.00144531
451.354	-0.000424194	0.00857239
451.814	-0.697876	-0.0183929
452.274	0.000396729	0.00144379
452.754	-0.000479126	0.00857849
453.214	-0.699097	-0.0184052
453.674	-0.000204468	0.0014624
454.154	-0.000802612	0.00857239
454.614	-0.69873	-0.018399
455.074	0.000640869	0.00146545
455.554	-0.000219727	0.00858765
456.014	-0.698151	-0.0184235
456.474	-0.000115967	0.00147644
456.954	-1.2207e-05	0.00858154
457.414	-0.697662	-0.0184265
457.874	-0.00065918	0.00149261
458.354	0.00090332	0.00857544
458.814	-0.699066	-0.0184174
459.274	0.00055542	0.00149139
459.754	-0.000842285	0.00857849
460.214	-0.69928	-0.0184265
460.674	-0.000488281	0.00151184
461.154	-0.000595093	0.00858459
461.614	-0.69928	-0.0184326
462.074	0.000872803	0.00151428
462.554	0.000106812	0.00856018
463.014	-0.699066	-0.0184296
463.474	0.000378418	0.0015274
463.954	-0.00055542	0.00857239
464.414	-0.698456	-0.0184509
464.874	-0.000662231	0.00153931
465.354	0.000723267	0.00856934
465.814	-0.69754	-0.018454
466.274	0.000253296	0.00154236
466.754	-0.000421143	0.00856628
467.214	-0.697968	-0.018454
467.674	-0.00045166	0.00155945
468.154	0.000274658	0.00856934
468.614	-0.697601	-0.0184631
469.074	0.000521851	0.00155853
469.554	-0.000231934	0.00856018
470.014	-0.699188	-0.0184601
470.474	-0.000506592	0.00157593
470.954	-0.000302124	0.00855408
471.414	-0.698853	-0.0184631
471.874	0.000540161	0.0015744
472.354	0.000708008	0.00856018
472.814	-0.697632	-0.0184784
473.274	0.000805664	0.00158356
473.754	0.000268555	0.00854492
474.214	-0.698914	-0.0184692
474.674	8.23975e-05	0.001604
475.154	0.000534058	0.00856018
475.614	-0.698059	-0.0184814
476.074	0.000891113	0.00160034
476.554	-7.32422e-05	0.00854187
477.014	-0.698456	-0.0184906
477.474	-0.000454712	0.0016214
477.954	-0.000949097	0.00855103
478.414	-0.69754	-0.0184967
478.874	0.00103455	0.00161835
479.354	-0.000341797	0.00853882
479.814	-0.697815	-0.018512
480.274	-0.000128174	0.001633
480.754	0.000579834	0.00854492
481.214	-0.698822	-0.018512
481.674	0.00119019	0.0016391
482.154	0.000302124	0.00854797
482.614	-0.699188	-0.0185059
483.074	3.96729e-05	0.00165558
483.554	-0.00027771	0.00855408
484.014	-0.697723	-0.0185272
484.474	-0.000671387	0.00166504
484.954	-0.000656128	0.00854797
485.414	-0.698883	-0.0185242
485.874	-0.000524902	0.00167358
486.354	-0.000820923	0.00854797
486.814	-0.697968	-0.0185333
487.274	0.000939941	0.00167328
487.754	-0.000262451	0.00854797
488.214	-0.698425	-0.0185333
488.674	-0.000579834	0.00168945
489.154	-0.000582886	0.00855103
489.614	-0.69754	-0.0185425
490.074	0.00103455	0.00168793
490.554	0.000152588	0.00854492
491.014	-0.698822	-0.0185394
491.474	-0.000317383	0.00171051
491.954	-0.000888062	0.00853271
492.414	-0.699127	-0.0185364
492.874	0.000704956	0.0017099
493.354	0.000140381	0.00853577
493.814	-0.699005	-0.0185486
494.274	-0.000299072	0.0017218
494.754	-0.000485229	0.00853882
495.214	-0.699036	-0.0185425
495.674	0.000793457	0.00172272
496.154	0.000744629	0.00852051
496.614	-0.697754	-0.0185486
497.074	-0.000524902	0.00174225
497.554	-0.000900269	0.00853271
498.014	-0.697601	-0.0185608
498.474	-0.000537109	0.00174591
498.954	-0.000650024	0.00853271
499.414	-0.698181	-0.0185608
499.874	-0.000186157	0.00175385
500.354	-4.57764e-05	0.0085144
500.814	-0.69754	-0.018573
501.274	0.000952148	0.00176056
501.754	0.000698853	0.00851135
502.214	-0.697693	-0.018573
502.674	7.32422e-05	0.00177399
503.154	0.000741577	0.00851135
503.614	-0.699371	-0.0185791
504.074	0.00104065	0.00177582
504.554	0.000646973	0.0085083
505.014	-0.69754	-0.0185883
505.474	0.000427246	0.00178802
505.954	0.000491333	0.00850525
506.414	-0.697968	-0.0186005
506.874	0.000942993	0.00179108
507.354	3.05176e-06	0.0085022
507.814	-0.698547	-0.0185974
508.274	0.00093689	0.00180389
508.754	0.000701904	0.00850525
509.214	-0.697968	-0.0185913
509.674	-0.000634766	0.00181732
510.154	0.000735474	0.0085022
510.614	-0.697662	-0.0186096
511.074	0.000411987	0.00181549
511.554	-0.000595093	0.00849915
512.014	-0.698792	-0.0186005
512.474	0.000875854	0.00182526
512.954	-0.000634766	0.0085022
513.414	-0.699066	-0.0186157
513.874	0.000668335	0.00183502
514.354	0.000119019	0.00849304
514.814	-0.697784	-0.0186157
515.274	0.000146484	0.00184753
515.754	0.000125122	0.00849304
516.214	-0.698944	-0.0186127
516.674	0.000808716	0.00184753
517.154	-0.00072937	0.00849609
517.614	-0.69809	-0.0186279
518.074	0.000158691	0.00185699
518.554	-0.000289917	0.00848389
519.014	-0.698914	-0.0186127
519.474	0.000930786	0.00186096
519.954	-0.000228882	0.0085022
520.414	-0.697571	-0.0186279
520.874	-9.46045e-05	0.00187469
521.354	0.000283813	0.00847778
521.814	-0.698639	-0.0186218
522.274	-0.000549316	0.00188751
522.754	0.000588989	0.00848694
523.214	-0.697601	-0.0186249
523.674	0.000653076	0.00188965
524.154	0.000405884	0.00847168
524.614	-0.698914	-0.018634
525.074	-0.000643921	0.00189941
525.554	-0.00090332	0.00848389
526.014	-0.697571	-0.0186432
526.474	0.000982666	0.00189972
526.954	0.000140381	0.00846863
527.414	-0.697754	-0.0186493
527.874	-0.000143433	0.00191742
528.354	-0.000854492	0.00847168
528.814	-0.699066	-0.018634
529.274	-0.000421143	0.00192352
529.754	-0.000689697	0.00847473
530.214	-0.698639	-0.0186401
530.674	-0.000476074	0.0019339
531.154	-0.000732422	0.00847168
531.614	-0.699158	-0.0186493
532.074	-0.000656128	0.00194244
532.554	-0.000228882	0.00847778
533.014	-0.697601	-0.0186523
533.474	-0.00062561	0.00194885
533.954	0.000820923	0.00845642
534.414	-0.699249	-0.0186462
534.874	0.000839233	0.00194427
535.354	0.000830078	0.00845947
535.814	-0.698212	-0.0186523
536.274	-0.000613403	0.00196472
536.754	0.000442505	0.00846252
537.214	-0.699341	-0.0186554
537.674	0.000567627	0.00196411
538.154	-9.76562e-05	0.00846252
538.614	-0.697571	-0.0186676
539.074	-0.000512695	0.00197784
539.554	0.00055542	0.00845337
540.014	-0.697632	-0.0186615
540.474	0.000234985	0.00197937
540.954	-0.000640869	0.00846252
541.414	-0.698425	-0.0186615
541.874	0.000991821	0.00198578
542.354	0.000180054	0.00845337
542.814	-0.698547	-0.0186646
543.274	-0.000604248	0.00200287
543.754	0.00071106	0.00844727
544.214	-0.697937	-0.0186798
544.674	0.00057373	0.00200745
545.154	0.000708008	0.00843811
545.614	-0.697906	-0.0186859
546.074	0.000912476	0.00200592
546.554	-0.000588989	0.00843506
547.014	-0.697754	-0.0186707
547.474	0.000631714	0.00201538
547.954	-0.00062561	0.00843201
548.414	-0.697998	-0.0186829
548.874	0.000646973	0.00202179
549.354	-0.000665283	0.00842896
549.814	-0.698914	-0.0186707
550.274	-0.000546265	0.00204102
550.754	7.93457e-05	0.00843201
551.214	-0.697906	-0.0186768
551.674	-0.000665283	0.00204407
552.154	0.000689697	0.00842285
552.614	-0.699097	-0.0186829
553.074	0.000198364	0.0020462
553.554	-0.000750732	0.0084259
554.014	-0.699127	-0.0186859
554.474	0.00101318	0.00204987
554.954	-0.000149536	0.0084137
555.414	-0.698944	-0.0186768
555.874	0.000689697	0.00205811
556.354	-0.000756836	0.0084259
556.814	-0.699341	-0.0186829
557.274	-0.000531006	0.00207367
557.754	-0.000137329	0.00842896
558.214	-0.697662	-0.0187012
558.674	3.05176e-05	0.00207642
559.154	0.00020752	0.0084137
559.614	-0.697662	-0.0187073
560.074	0.00100708	0.00207886
560.554	-0.000827026	0.00841675
561.014	-0.699219	-0.0186859
561.474	0.00020752	0.00209656
561.954	0.000384521	0.00840454
562.414	-0.69809	-0.0186981
562.874	-0.000634766	0.0021048
563.354	-0.000921631	0.00841064
563.814	-0.698883	-0.018692
564.274	-0.000390625	0.00211243
564.754	0.00072937	0.00839844
565.214	-0.698761	-0.0187012
565.674	0.00105286	0.002109375
566.154	0.000665283	0.00840149
566.614	-0.69812	-0.0187195
567.074	-0.000512695	0.00212433
567.554	-0.000778198	0.00840454
568.014	-0.697754	-0.0187164
568.474	0.000588989	0.00212616
568.954	-0.000497437	0.00839539
569.414	-0.698029	-0.0187225
569.874	0.000512695	0.00213135
570.354	-0.00072937	0.00840454
570.814	-0.697601	-0.0187225
571.274	0.00106812	0.00213135
571.754	-0.00093689	0.00839844
572.214	-0.699066	-0.0187195
572.674	0.000265503	0.00214142
573.154	0.000115967	0.00840454
573.614	-0.698334	-0.0187195
574.074	-0.000326538	0.00215179
574.554	0.000747681	0.00838928
575.014	-0.699066	-0.0187225
575.474	-0.00020752	0.0021582
575.954	-0.000875854	0.00838928
576.414	-0.697357	-0.0187286
576.874	-0.000497437	0.00216888
577.354	0.000640869	0.00838623
577.814	-0.698303	-0.0187347
578.274	0.000973511	0.00217163
578.754	0.000247192	0.00837097
579.214	-0.69751	-0.0187378
579.674	-0.000534058	0.00218384
580.154	0.000744629	0.00837402
580.614	-0.698395	-0.0187317
581.074	0.00100403	0.0021817
581.554	0.000576782	0.00837402
582.014	-0.699066	-0.0187286
582.474	-0.000585937	0.00219727
582.954	0.000561523	0.00836792
583.414	-0.697479	-0.0187347
583.874	-0.000363159	0.00220032
584.354	-0.000808716	0.00836792
584.814	-0.699188	-0.0187317
585.274	0.000994873	0.00219971
585.754	5.49316e-05	0.00837097
586.214	-0.697388	-0.0187317
586.674	0.0009765625	0.00220703
587.154	0.000570679	0.00836182
587.614	-0.699066	-0.0187317
588.074	0.000958252	0.00221497
588.554	0.000149536	0.00837097
589.014	-0.698364	-0.0187347
589.474	-0.000366211	0.00222778
589.954	-0.000375366	0.00835266
590.414	-0.698242	-0.0187408
590.874	0.000234985	0.00223358
591.354	0.000744629	0.00836182
591.814	-0.697601	-0.0187469
592.274	0.000695801	0.00223267
592.754	0.000170898	0.00834961
593.214	-0.697876	-0.0187531
593.674	0.000796509	0.00223846
594.154	0.000817871	0.00835876
594.614	-0.697571	-0.0187531
595.074	0.000311279	0.00225128
595.554	0.000271606	0.00835571
596.014	-0.699127	-0.0187408
596.474	0.000973511	0.00225281
596.954	0.000671387	0.00835266
597.414	-0.698944	-0.0187531
597.874	0.00118408	0.00225769
598.354	0.000875854	0.00834961
598.814	-0.698486	-0.0187531
599.274	-0.000668335	0.00227417
599.754	0.000308228	0.00832825
600.214	-0.699066	-0.0187408
600.674	0.00072937	0.00227112
601.154	0.000494385	0.00834656
601.614	-0.699188	-0.0187469
602.074	-0.000177002	0.0022879
602.554	0.000582886	0.00832825
603.014	-0.69751	-0.0187592
603.474	0.0009552	0.00228333
603.954	6.40869e-05	0.0083252
604.414	-0.697662	-0.0187592
604.874	0.000457764	0.00229095
605.354	-1.2207e-05	0.00832214
605.814	-0.697571	-0.0187592
606.274	-0.00062561	0.00230652
606.754	0.000756836	0.0083252
607.214	-0.698975	-0.01875
607.674	0.000259399	0.00231079
608.154	-0.000778198	0.00833435
608.614	-0.698792	-0.0187469
609.074	0.000244141	0.00231445
609.554	0.000537109	0.00831299
610.014	-0.698273	-0.0187531
610.474	-5.49316e-05	0.00232544
610.954	0.000747681	0.0083313
611.414	-0.697662	-0.0187653
611.874	0.000994873	0.00231812
612.354	-0.00071106	0.00831604
612.814	-0.697693	-0.0187561
613.274	0.000906372	0.00232513
613.754	0.000332642	0.00830078
614.214	-0.69754	-0.0187714
614.674	0.00105286	0.00233215
615.154	0.000762939	0.00830688
615.614	-0.699341	-0.0187592
616.074	0.000469971	0.00233856
616.554	-0.000836182	0.00831909
617.014	-0.698425	-0.0187714
617.474	0.00105896	0.00234741
617.954	-1.83105e-05	0.00830078
618.414	-0.699158	-0.0187561
618.874	-0.000350952	0.00235931
619.354	0.000759888	0.00829773
619.814	-0.698547	-0.0187561
620.274	0.000775146	0.00236176
620.754	-0.000793457	0.00830688
621.214	-0.697571	-0.0187714
621.674	0.0010376	0.00235992
622.154	0.000228882	0.00828857
622.614	-0.699005	-0.0187592
623.074	0.00102234	0.00236694
623.554	-0.00103149	0.00829468
624.014	-0.697632	-0.0187683
624.474	0.000918579	0.00237244
624.954	-0.000167847	0.00828247
625.414	-0.697815	-0.0187653
625.874	-0.000128174	0.002388
626.354	8.54492e-05	0.00829773
626.814	-0.698212	-0.0187683
627.274	0.00113525	0.00238556
627.754	0.000717163	0.00827942
628.214	-0.699219	-0.0187714
628.674	-0.000418091	0.00240204
629.154	0.000177002	0.00827332
629.614	-0.698853	-0.0187683
630.074	0.00115967	0.00239563
630.554	0.000704956	0.00829163
631.014	-0.699188	-0.0187714
631.474	0.000311279	0.00240387
631.954	0.000628662	0.00827026
632.414	-0.697906	-0.0187744
632.874	0.000445557	0.00240936
633.354	0.000653076	0.00827942
633.814	-0.698242	-0.0187683
634.274	-0.000454712	0.00242432
634.754	-0.000836182	0.00827332
635.214	-0.69928	-0.0187714
635.674	0.000357056	0.00242615
636.154	0.000537109	0.00827332
636.614	-0.699249	-0.0187683
637.074	-0.000717163	0.00243591
637.554	-0.000601196	0.00827026
638.014	-0.698517	-0.0187683
638.474	0.000717163	0.00243439
638.954	-9.46045e-05	0.00827026
639.414	-0.698975	-0.0187805
639.874	-0.000466919	0.00244965
640.354	-0.000961304	0.00826111
640.814	-0.697632	-0.0187836
641.274	0.00102844	0.00244141
641.754	0.000500488	0.00826111
642.214	-0.69809	-0.0187836
642.674	0.000143433	0.00245544
643.154	-0.000192261	0.00826721
643.614	-0.699127	-0.0187653
644.074	-0.0006073	0.00246277
644.554	0.000546265	0.00824585
645.014	-0.698151	-0.0187653
645.474	0.00102539	0.00245605
645.954	0.000494385	0.008255
646.414	-0.699219	-0.0187775
646.874	-0.000714111	0.00247009
647.355	0.000802612	0.0082489
647.815	-0.698486	-0.0187836
648.275	-0.000588989	0.00247681
648.755	0	0.00823975
649.215	-0.698456	-0.0187744
649.675	0.000350952	0.00247101
650.155	0.000897217	0.0082428
650.615	-0.699066	-0.0187744
651.075	-9.15527e-05	0.00248627
651.555	-0.00078125	0.00823975
652.015	-0.697845	-0.0187866
652.475	0.000866699	0.00248596
652.955	0.000213623	0.00823669
653.415	-0.698151	-0.0187927
653.875	-0.00038147	0.00249542
654.355	-0.000405884	0.00825195
654.815	-0.698517	-0.0187744
655.275	0.000967407	0.00249359
655.755	-0.000439453	0.00823364
656.215	-0.699066	-0.0187836
656.675	-0.000106812	0.00250153
657.155	-0.000439453	0.0082428
657.615	-0.697571	-0.0187866
658.075	-0.000469971	0.00251709
658.555	0.000741577	0.00823059
659.015	-0.699219	-0.0187775
659.475	-0.00067749	0.0025177
659.955	-0.000540161	0.00821838
660.415	-0.69754	-0.0187866
660.875	-0.000579834	0.00252594
661.355	0.000680542	0.00822754
661.815	-0.698425	-0.0187927
662.275	-0.000552368	0.00253021
662.755	-0.000775146	0.00823059
663.215	-0.699066	-0.0187836
663.675	-0.000588989	0.00253632
664.155	-0.000244141	0.00822754
664.615	-0.69751	-0.0187805
665.075	-0.000442505	0.00254272
665.555	6.40869e-05	0.00822144
666.015	-0.699188	-0.0187897
666.475	-0.000524902	0.00254883
666.955	-0.000549316	0.00821533
667.415	-0.699188	-0.0187866
667.875	-0.000613403	0.00255127
668.355	-0.00039978	0.00822449
668.815	-0.699097	-0.0187897
669.275	0.00083313	0.00255188
669.755	0.000177002	0.00821533
670.215	-0.699066	-0.0187836
670.675	0.00101929	0.00255005
671.155	-0.000189209	0.00820007
671.615	-0.697479	-0.0187958
672.075	0.000891113	0.00255493
672.555	0.000915527	0.00820618
673.015	-0.697876	-0.0187927
673.475	0.000857544	0.00256042
673.955	-0.000650024	0.00821533
674.415	-0.698151	-0.0188019
674.875	0.000549316	0.00256744
675.355	-0.000262451	0.00820923
675.815	-0.697601	-0.0187927
676.275	-0.00043335	0.00257568
676.755	-0.00043335	0.00820618
677.215	-0.699188	-0.0187866
677.675	0.00104065	0.0025769
678.155	-0.000909424	0.00819397
678.615	-0.698639	-0.0187836
679.075	0.00107727	0.00258667
679.555	0.000869751	0.00819702
680.015	-0.698486	-0.0187988
680.475	0.000543213	0.00258911
680.955	0.000585937	0.00818481
681.415	-0.698883	-0.0187958
681.875	-0.000576782	0.00260254
682.355	-7.93457e-05	0.00820007
682.815	-0.699249	-0.0187958
683.275	0.000637817	0.00260193
683.755	-0.000915527	0.00818787
684.215	-0.699188	-0.0187897
684.675	0.000820923	0.00260529
685.155	0.000531006	0.00817871
685.615	-0.697449	-0.0188019
686.075	-0.000265503	0.00261993
686.555	-0.000445557	0.00817871
687.015	-0.699341	-0.0187927
687.475	-0.000512695	0.00262054
687.955	-0.000192261	0.00817566
688.415	-0.697571	-0.0188019
688.875	-0.000570679	0.00262146
689.355	-0.000808716	0.00819092
689.815	-0.698517	-0.0187897
690.275	0.000619507	0.00262238
690.755	8.8501e-05	0.0081665
691.215	-0.698517	-0.0188019
691.675	-0.000674438	0.00263794
692.155	-0.000601196	0.00817871
692.615	-0.697479	-0.0187988
693.075	0.000942993	0.00263397
693.555	0.000601196	0.0081665
694.015	-0.697693	-0.0187988
694.475	0.0010437	0.00263702
694.955	0.000662231	0.00816956
695.415	-0.698181	-0.0187897
695.875	0.000146484	0.00264954
696.355	-0.000476074	0.00815735
696.815	-0.69812	-0.0187866
697.275	0.000668335	0.00265015
697.755	-0.0009552	0.0081604
698.215	-0.698395	-0.0187927
698.675	0.00119934	0.00265228
699.155	-0.000146484	0.00814514
699.615	-0.697449	-0.0188019
700.075	0.000515747	0.00265686
700.555	-0.000942993	0.0081543
701.015	-0.697662	-0.0187897
701.475	-0.000689697	0.00266968
701.955	0.000680542	0.00814514
702.415	-0.698273	-0.0188049
702.875	0.000497437	0.00267029
703.355	0.000799561	0.00815125
703.815	-0.69931	-0.0187927
704.275	0.000506592	0.00267487
704.755	0.000558472	0.00814819
705.215	-0.698944	-0.0187897
705.675	0.00115967	0.00267487
706.155	0.000762939	0.00814209
706.615	-0.698364	-0.0187927
707.075	0.000756836	0.00268097
707.555	0.000268555	0.00813599
708.015	-0.697968	-0.0188019
708.475	0.000305176	0.00268463
708.955	-0.000714111	0.00815125
709.415	-0.697662	-0.0188019
709.875	-0.000531006	0.00269775
710.355	0.000765991	0.00813599
710.815	-0.697571	-0.0188049
711.275	-0.000521851	0.00270111
711.755	0.000723267	0.00812683
712.215	-0.698608	-0.0187927
712.675	-0.000250244	0.00270721
713.155	0.000750732	0.00812988
713.615	-0.69928	-0.0187866
714.075	-6.40869e-05	0.0027063
714.555	-0.000543213	0.00814209
715.015	-0.698578	-0.0187805
715.475	-0.00020752	0.00270782
715.955	0.000714111	0.00811157
716.415	-0.699249	-0.0187805
716.875	0.000958252	0.00271088
717.355	-0.000631714	0.00812988
717.815	-0.697998	-0.0187805
718.275	-0.000582886	0.00272675
718.755	0.000289917	0.00810242
719.215	-0.697693	-0.0187897
719.675	0.000808716	0.00271973
720.155	0.000689697	0.00811462
720.615	-0.697906	-0.0187744
721.075	-0.000244141	0.00273102
721.555	0.000762939	0.00810547
722.015	-0.698425	-0.0187714
722.475	-0.000430298	0.00273468
722.955	-0.000610352	0.00809937
723.415	-0.698395	-0.0187836
723.875	-0.000564575	0.00273987
724.355	0.000463867	0.00809021
724.815	-0.699127	-0.0187653
725.275	0.000274658	0.00274475
725.755	-0.000704956	0.00808716
726.215	-0.697998	-0.0187836
726.675	0.00015564	0.0027417
727.155	0.000372314	0.00809937
727.615	-0.698761	-0.0187592
728.075	-0.000231934	0.00274902
728.555	0.00085144	0.00809631
729.015	-0.699097	-0.0187653
729.475	-0.000247192	0.00275879
729.955	-2.13623e-05	0.008078
730.415	-0.697449	-0.0187836
730.875	-5.79834e-05	0.00276093
731.355	0.000592041	0.00807495
731.815	-0.69754	-0.0187683
732.275	-0.000405884	0.00276794
732.755	-0.000668335	0.00809631
733.215	-0.698547	-0.01875
733.675	-0.000244141	0.00277191
734.155	-0.000949097	0.00808411
734.615	-0.697479	-0.0187622
735.075	0.000201416	0.00276398
735.555	0.0006073	0.00807495
736.015	-0.698334	-0.0187531
736.475	0.00078125	0.00277161
736.955	0.000201416	0.00805969
737.415	-0.697845	-0.0187531
737.875	-0.000466919	0.00278046
738.355	0.000772095	0.0080658
738.815	-0.699036	-0.0187622
739.275	-0.000656128	0.00278595
739.755	3.96729e-05	0.0080658
740.215	-0.698547	-0.01875
740.675	0.0010376	0.00277985
741.155	0.000268555	0.00805054
741.615	-0.697479	-0.0187622
742.075	0.00112915	0.00278442
742.555	-0.00090332	0.00805664
743.015	-0.699036	-0.0187439
743.475	-0.00027771	0.00279419
743.955	0.000769043	0.00805054
744.415	-0.698792	-0.01875
744.875	0.000622559	0.00279999
745.355	-0.000650024	0.00805969
745.815	-0.698486	-0.0187378
746.275	-0.000546265	0.00280731
746.755	0.000643921	0.00804443
747.215	-0.698853	-0.0187378
747.675	0.00012207	0.00280273
748.155	0.000808716	0.00804138
748.615	-0.699188	-0.0187439
749.075	-0.000668335	0.00281372
749.555	0.000683594	0.00803223
750.015	-0.697571	-0.01875
750.475	-0.000567627	0.00281708
750.955	0.000698853	0.00803833
751.415	-0.69751	-0.0187439
751.875	0.000296021	0.00281708
752.355	0.000289917	0.00803223
752.815	-0.697815	-0.01875
753.275	0.000714111	0.0028125
753.755	0.000415039	0.00801697
754.215	-0.697632	-0.01875
754.675	-0.000411987	0.00282043
755.155	-0.000985718	0.00803223
755.615	-0.697784	-0.0187317
756.075	5.18799e-05	0.00282562
756.555	-0.000656128	0.00801392
757.015	-0.698059	-0.0187439
757.475	0.00106201	0.00282593
757.955	0.000823975	0.00801086
758.415	-0.697571	-0.0187378
758.875	-0.000680542	0.00283997
759.355	0.000479126	0.00800476
759.815	-0.69754	-0.0187439
760.275	-0.000585937	0.00284332
760.755	0.000784302	0.00801086
761.215	-0.699066	-0.0187256
761.675	0.000360107	0.00283966
762.155	0.000674438	0.00801086
762.615	-0.69873	-0.0187195
763.075	0.000582886	0.0028418
763.555	0.000759888	0.00800171
764.015	-0.699005	-0.0187347
764.475	0.000244141	0.00285461
764.955	-0.000106812	0.00799561
765.415	-0.698761	-0.0187225
765.875	3.05176e-06	0.00285828
766.355	0.000595093	0.00800781
766.815	-0.697754	-0.0187317
767.275	0.000189209	0.00286102
767.755	0.000454712	0.00800781
768.215	-0.698303	-0.0187378
768.675	-0.000421143	0.00286804
769.155	-0.000460815	0.00800781
769.615	-0.699127	-0.0187195
770.075	0.000460815	0.00286713
770.555	-0.000482178	0.00800476
771.015	-0.697845	-0.0187347
771.475	-0.000299072	0.00287628
771.955	-0.000439453	0.0079895
772.415	-0.697998	-0.0187378
772.875	-0.00039978	0.00288147
773.355	-0.000939941	0.0079895
773.815	-0.697601	-0.0187256
774.275	0.00088501	0.00287323
774.755	-0.000430298	0.0079834
775.215	-0.697601	-0.0187378
775.675	0.000717163	0.00287964
776.155	0.000747681	0.00798645
776.615	-0.69754	-0.0187347
777.075	-0.000662231	0.00288879
777.555	0.000683594	0.00798035
778.015	-0.697693	-0.0187317
778.475	0.000509644	0.00288544
778.955	0.000622559	0.00797119
779.415	-0.698425	-0.0187164
779.875	0.000668335	0.00288757
780.355	0.000671387	0.00798035
780.815	-0.697632	-0.0187347
781.275	-0.000704956	0.00290222
781.755	0.000506592	0.00798035
782.215	-0.698486	-0.0187286
782.675	0.000479126	0.00289825
783.155	-6.71387e-05	0.00796509
783.615	-0.699249	-0.0187164
784.075	3.05176e-06	0.00290863
784.555	-0.000946045	0.00797729
785.015	-0.697723	-0.0187195
785.475	-0.000170898	0.00291107
785.955	-0.000888062	0.00797424
786.415	-0.69754	-0.0187317
786.875	-0.000134277	0.00291077
787.355	-0.000842285	0.00795898
787.815	-0.699066	-0.0187134
788.275	0.000656128	0.00290985
788.755	-0.000784302	0.00797119
789.215	-0.69931	-0.0187103
789.675	0.000671387	0.00291321
790.155	-0.000570679	0.00797424
790.615	-0.69751	-0.0187195
791.075	0.000668335	0.00292175
791.555	0.000466919	0.00796509
792.015	-0.699219	-0.0187073
792.475	0.000109863	0.00292847
792.955	-0.000253296	0.00796509
793.415	-0.699188	-0.0187164
793.875	0.000878906	0.00293091
794.355	0.000827026	0.00795288
794.815	-0.697571	-0.0187225
795.275	-0.000604248	0.00293823
795.755	-0.000894165	0.00795288
796.215	-0.697815	-0.0187134
796.675	0.00113831	0.0029306
797.155	-0.000540161	0.00794067
797.615	-0.697479	-0.0187195
798.075	0.000683594	0.00293549
798.555	-0.000442505	0.00794678
799.015	-0.698364	-0.0187225
799.475	0.000720215	0.00293854
799.955	0.000402832	0.00795593
800.415	-0.698425	-0.0187195
800.875	0.000891113	0.00294373
801.355	-0.000250244	0.00794678
801.815	-0.699249	-0.0187103
802.275	0.000750732	0.00294769
802.755	-0.000616455	0.00794983
803.215	-0.698181	-0.0187195
803.675	0.000198364	0.00295654
804.155	-0.000274658	0.00794678
804.615	-0.698151	-0.0187225
805.075	0.000479126	0.00295654
805.555	-0.000177002	0.00794678
806.015	-0.697571	-0.0187164
806.475	0.00072937	0.00296204
806.955	-0.000698853	0.00794373
807.415	-0.697845	-0.0187195
807.875	0.000231934	0.00296234
808.355	-0.000894165	0.00793152
808.815	-0.699219	-0.0187134
809.275	-0.000787354	0.00297394
809.755	-0.000561523	0.00794067
810.215	-0.699249	-0.0187042
810.675	0.000634766	0.0029715
811.155	-0.000665283	0.00793457
811.615	-0.69931	-0.0187073
812.075	0.000192261	0.00297272
812.555	-0.000411987	0.00791321
813.015	-0.69928	-0.0186981
813.475	-0.000585937	0.00298553
813.955	-0.000723267	0.00792847
814.415	-0.699249	-0.0187073
814.875	-0.000454712	0.00298859
815.355	-0.000778198	0.00791931
815.815	-0.698456	-0.0187134
816.275	0.000656128	0.00298431
816.755	-0.000796509	0.00791931
817.215	-0.698456	-0.018689
817.675	0.000308228	0.00299164
818.155	-0.000112915	0.0079071
818.615	-0.698181	-0.0187103
819.075	6.40869e-05	0.00298706
819.555	0.000140381	0.007901
820.015	-0.699188	-0.0187012
820.475	0.000350952	0.00299255
820.955	0.000802612	0.0079071
821.415	-0.697693	-0.0187042
821.875	-0.000372314	0.00299988
822.355	0.00083313	0.00790405
822.815	-0.698364	-0.0186951
823.275	0.000970459	0.00299866
823.755	0.000708008	0.007901
824.215	-0.699371	-0.018692
824.675	0.000872803	0.00299835
825.155	-0.000820923	0.00789795
825.615	-0.698364	-0.018692
826.075	-0.000628662	0.00301453
826.555	-0.000869751	0.00791016
827.015	-0.69751	-0.0187012
827.475	0.000485229	0.0030127
827.955	0.00010376	0.00788574
828.415	-0.698578	-0.0187042
828.875	0.00101624	0.00301483
829.355	-0.000448608	0.00790405
829.815	-0.698608	-0.0187012
830.275	-7.01904e-05	0.00302155
830.755	-0.000915527	0.00789795
831.215	-0.697693	-0.0186951
831.675	-0.000778198	0.00302673
832.155	-0.000857544	0.00789185
832.615	-0.697571	-0.0186951
833.075	0.000863647	0.0030188
833.555	-0.000869751	0.0078949
834.015	-0.698975	-0.0186829
834.475	-0.000619507	0.00303192
834.955	-0.000869751	0.00788269
835.415	-0.697571	-0.018692
835.875	0.00067749	0.00302582
836.355	-0.000930786	0.00789185
836.815	-0.69931	-0.0186981
837.275	0.000912476	0.00303192
837.755	-0.000662231	0.00786438
838.215	-0.698608	-0.0186829
838.675	-0.000509644	0.00304108
839.155	-0.000860596	0.00787659
839.615	-0.697357	-0.018692
840.075	-0.000656128	0.00304565
840.555	-0.000515747	0.00788269
841.015	-0.699097	-0.0186859
841.475	-5.49316e-05	0.00304932
841.955	0.000802612	0.00787354
842.415	-0.697845	-0.0187012
842.875	-0.000628662	0.00305298
843.355	-0.000790405	0.00787659
843.815	-0.698303	-0.0186951
844.275	0.000982666	0.00304535
844.755	0.000366211	0.00788269
845.215	-0.69931	-0.0186829
845.675	-0.000634766	0.00305939
846.155	-0.000582886	0.00787659
846.615	-0.698456	-0.0186768
847.075	0.0003479	0.00305267
847.555	0.000762939	0.00786438
848.015	-0.697662	-0.0186951
848.475	0.000216675	0.00306152
848.955	-0.000125122	0.00787048
849.415	-0.698181	-0.0187012
849.875	0.000424194	0.00305664
850.355	-0.000286865	0.00785217
850.815	-0.697723	-0.018692
851.275	0.000952148	0.00305817
851.755	-0.000863647	0.00785522
852.215	-0.699158	-0.0186829
852.675	0.000231934	0.00306976
853.155	-2.13623e-05	0.00784912
853.615	-0.69751	-0.018689
854.075	0.00017395	0.0030661
854.555	-2.13623e-05	0.00784302
855.015	-0.699127	-0.0186798
855.475	-0.000680542	0.00308044
855.955	1.2207e-05	0.00785828
856.415	-0.698608	-0.0186798
856.875	0.000720215	0.00307953
857.355	0.000747681	0.00785522
857.815	-0.698273	-0.018689
858.275	0.000921631	0.00307526
858.755	-0.000906372	0.00785522
859.215	-0.699127	-0.0186859
859.675	-0.000720215	0.0030896
860.155	0.000796509	0.00784912
860.615	-0.697723	-0.0186768
861.075	-0.000518799	0.00309082
861.555	0.000668335	0.00783386
862.015	-0.699097	-0.0186707
862.475	0.000231934	0.00309113
862.955	-0.00045166	0.00783386
863.415	-0.698151	-0.0186707
863.875	-6.10352e-05	0.00309357
864.355	0.000424194	0.00783081
864.815	-0.699402	-0.0186707
865.275	0.0010376	0.00309143
865.755	-0.000595093	0.00784912
866.215	-0.697723	-0.018689
866.675	0.000750732	0.00309265
867.155	-0.000918579	0.00783997
867.615	-0.699066	-0.0186646
868.075	-0.000323486	0.00310364
868.555	0.000790405	0.00782166
869.015	-0.699188	-0.0186737
869.475	0.000396729	0.00310913
869.955	-0.00088501	0.00782471
870.415	-0.698242	-0.0186829
870.875	0.000863647	0.00310181
871.355	-0.000927734	0.00783081
871.815	-0.69751	-0.0186768
872.275	-7.32422e-05	0.00310883
872.755	0.000354004	0.0078125
873.215	-0.69873	-0.0186768
873.675	-2.74658e-05	0.00311188
874.155	-0.000894165	0.00782471
874.615	-0.697815	-0.0186676
875.075	0.000787354	0.0031134
875.555	-6.10352e-05	0.00781555
876.015	-0.697968	-0.018692
876.475	6.10352e-05	0.00311615
876.955	-0.000747681	0.00782471
877.415	-0.697357	-0.0186859
877.875	0.000698853	0.00311676
878.355	0.000106812	0.0078064
878.815	-0.698822	-0.018692
879.275	0.000848389	0.00312103
879.755	-0.000747681	0.0078186
880.215	-0.697845	-0.018692
880.675	-0.000323486	0.00312439
881.155	0.00039978	0.0078186
881.575	0.000473022	0.00108337