File: Edgar/20240607/20240607/electrodeposition_pulsed_potential_20240607_F/pulses_1000_to_2000.txt
Time (s)	WE(1).Potential (V)	WE(1).Current (A)
890.134	-0.698944	-0.0200287
890.594	-9.46045e-05	0.00237885
891.074	0.000875854	0.00738464
891.534	-0.699219	-0.0188782
891.994	-0.000341797	0.00287628
892.474	0.000183105	0.00758972
892.934	-0.698029	-0.0188049
893.394	-0.000668335	0.00296814
893.874	-0.000845337	0.00765076
894.334	-0.697388	-0.0187653
894.794	0.000927734	0.00299988
895.274	0.000527954	0.00766602
895.734	-0.698059	-0.0187439
896.194	-0.000256348	0.00304077
896.674	-5.79834e-05	0.00770569
897.134	-0.697693	-0.0187408
897.594	-0.000149536	0.00305328
898.074	0	0.00770264
898.534	-0.697693	-0.0187256
898.994	-0.000192261	0.0030777
899.474	-0.000445557	0.00772705
899.934	-0.697662	-0.0187164
900.394	0.0009552	0.00307861
900.874	-0.000408936	0.00773926
901.334	-0.698242	-0.0187103
901.794	-0.00032959	0.00309235
902.274	0.000854492	0.00772705
902.734	-0.69754	-0.0187012
903.194	-0.000192261	0.00310883
903.674	0.000357056	0.00772705
904.134	-0.697754	-0.018689
904.594	0.00100403	0.00310638
905.074	-0.000140381	0.00774536
905.534	-0.69873	-0.0186951
905.994	0.000952148	0.00311493
906.474	-0.000881958	0.00774841
906.934	-0.697388	-0.018692
907.394	-0.000610352	0.00313507
907.874	9.15527e-05	0.00773621
908.334	-0.699249	-0.0186737
908.794	0.000979614	0.00312683
909.274	-0.000811768	0.00774536
909.734	-0.699402	-0.0186768
910.194	0.000210571	0.00314148
910.674	-0.000622559	0.00774841
911.134	-0.699036	-0.0186676
911.594	-0.000744629	0.00314941
912.074	-5.79834e-05	0.00774536
912.534	-0.697662	-0.018689
912.994	0.000543213	0.00315155
913.474	0.000411987	0.00774231
913.934	-0.699158	-0.0186646
914.394	-0.000820923	0.0031601
914.874	-0.000869751	0.00775146
915.334	-0.697754	-0.0186768
915.794	0.000939941	0.00315887
916.274	0.00072937	0.00774231
916.734	-0.698975	-0.0186615
917.194	0.000787354	0.00316772
917.674	-0.000546265	0.00774841
918.134	-0.699036	-0.0186646
918.594	0.000515747	0.00316589
919.074	0.000265503	0.00773926
919.534	-0.698242	-0.0186584
919.994	0.000497437	0.0031723
920.474	0.000463867	0.00775452
920.934	-0.697601	-0.0186646
921.394	0.000112915	0.00318359
921.874	0.000796509	0.00774841
922.334	-0.697418	-0.0186646
922.794	0.00101929	0.00318024
923.274	0.000170898	0.00773926
923.734	-0.697479	-0.0186646
924.194	-0.000152588	0.00319458
924.674	-0.000894165	0.00774841
925.134	-0.69812	-0.0186707
925.594	0.0009765625	0.00318878
926.074	0.000106812	0.00775146
926.534	-0.697754	-0.0186615
926.994	-0.000674438	0.00320374
927.474	-0.00090332	0.00775452
927.934	-0.699219	-0.0186462
928.394	0.000335693	0.00319946
928.874	0.000790405	0.00774841
929.334	-0.698853	-0.0186554
929.794	0.00116882	0.00320099
930.274	-0.000442505	0.00775146
930.734	-0.697601	-0.0186523
931.194	0.000906372	0.00320587
931.674	-0.000921631	0.00774536
932.134	-0.69751	-0.0186523
932.594	-0.000515747	0.00321991
933.074	0.000289917	0.00774841
933.534	-0.697845	-0.0186554
933.994	1.52588e-05	0.00321564
934.474	-0.000714111	0.00775146
934.934	-0.698151	-0.0186401
935.394	0.000216675	0.00322205
935.874	0.000613403	0.00774231
936.334	-0.697693	-0.0186432
936.794	0.00100403	0.00321747
937.274	0.000317383	0.0077301
937.734	-0.699219	-0.0186493
938.194	-0.000665283	0.0032312
938.674	-0.000491333	0.00774841
939.134	-0.698975	-0.018634
939.594	-0.000805664	0.00323425
940.074	-4.88281e-05	0.00772705
940.534	-0.698853	-0.0186401
940.994	0.000784302	0.00322845
941.474	-0.000393677	0.00774231
941.934	-0.698059	-0.0186462
942.394	-0.000772095	0.00324036
942.874	-0.000753784	0.00772705
943.334	-0.69751	-0.0186493
943.794	0.000390625	0.00323395
944.274	0.00043335	0.00772095
944.734	-0.698944	-0.018634
945.194	0.000469971	0.00323578
945.674	0.000253296	0.00772705
946.134	-0.697632	-0.0186462
946.594	0.000732422	0.00323883
947.074	-0.000360107	0.00772095
947.534	-0.697845	-0.0186371
947.994	0.000512695	0.00324615
948.474	0.000784302	0.00772705
948.934	-0.697845	-0.018631
949.394	0.000198364	0.00324829
949.874	0.000732422	0.00772705
950.334	-0.699158	-0.0186249
950.794	0.000973511	0.00324677
951.274	-0.000213623	0.00773315
951.734	-0.69873	-0.018634
952.194	0.000418091	0.00325653
952.674	-0.000650024	0.0077301
953.134	-0.69751	-0.018634
953.594	-4.27246e-05	0.00325928
954.074	-0.000854492	0.00772095
954.534	-0.697815	-0.018634
954.994	0.0009552	0.00325806
955.474	-0.00071106	0.00772705
955.934	-0.698975	-0.0186188
956.394	0.000228882	0.00326294
956.874	0.000784302	0.00770264
957.334	-0.69751	-0.018631
957.794	0.000866699	0.00326385
958.274	0.000830078	0.0077179
958.734	-0.698975	-0.0186279
959.194	-0.000265503	0.00327087
959.674	-0.000631714	0.00772095
960.134	-0.698944	-0.0186127
960.594	0.00105286	0.00326813
961.074	-0.000912476	0.00771484
961.534	-0.699249	-0.0186249
961.994	0.00103149	0.0032666
962.474	-0.000405884	0.0077179
962.934	-0.69751	-0.018631
963.394	0.00105286	0.00326935
963.874	-0.000863647	0.00771484
964.334	-0.697571	-0.0186279
964.794	-0.000613403	0.00328156
965.274	0.000784302	0.00769958
965.734	-0.699158	-0.0186188
966.194	4.88281e-05	0.00327759
966.674	0.000323486	0.00770874
967.134	-0.698853	-0.0186188
967.594	-0.000497437	0.00328522
968.074	-0.000616455	0.00769958
968.534	-0.697327	-0.0186249
968.994	0.000927734	0.00328247
969.474	-0.000201416	0.00771179
969.934	-0.697937	-0.0186127
970.394	0.00114441	0.00328186
970.874	2.74658e-05	0.00770569
971.334	-0.697906	-0.018631
971.794	0.00100098	0.00328308
972.274	0.000177002	0.00770264
972.734	-0.699127	-0.0186035
973.194	0.001171875	0.00328979
973.674	0.00067749	0.00768433
974.134	-0.698822	-0.0186096
974.594	-0.000656128	0.00329956
975.074	0.000421143	0.00768127
975.534	-0.699036	-0.0186035
975.994	0.000933838	0.00329132
976.474	-0.000463867	0.00769348
976.934	-0.699097	-0.0186005
977.394	-0.000613403	0.00329987
977.874	0.000738525	0.00768433
978.334	-0.697723	-0.0186188
978.794	-0.000598145	0.00330292
979.274	0.000189209	0.00767212
979.734	-0.697571	-0.0186157
980.194	0.000949097	0.00329529
980.674	0.000222778	0.00768433
981.134	-0.699005	-0.0186035
981.594	-0.000616455	0.00330658
982.074	0.000350952	0.00767822
982.534	-0.697998	-0.0186157
982.994	-0.000650024	0.00331177
983.474	0.000500488	0.00767517
983.934	-0.698883	-0.018634
984.394	-0.00020752	0.00330719
984.874	0.000775146	0.00767517
985.334	-0.69928	-0.0186157
985.794	-0.000369263	0.00331696
986.274	0.000115967	0.00768127
986.734	-0.698059	-0.0186188
987.194	0.000817871	0.00330688
987.674	0.000320435	0.00767212
988.134	-0.698761	-0.0186127
988.594	0.000183105	0.00332123
989.074	2.13623e-05	0.00768127
989.534	-0.697388	-0.0186249
989.994	0.00039978	0.00331451
990.474	-0.00065918	0.00768433
990.934	-0.698334	-0.018631
991.394	0.000424194	0.00331482
991.874	-0.000723267	0.00766296
992.334	-0.698944	-0.0186127
992.794	0.000213623	0.00331726
993.274	0.000772095	0.00766296
993.734	-0.698639	-0.0186157
994.194	-0.000634766	0.00332916
994.674	-0.000195313	0.00767822
995.134	-0.698242	-0.0186188
995.594	-0.000100708	0.00332489
996.074	-0.000125122	0.00766602
996.534	-0.697845	-0.0186127
996.994	0.000552368	0.00332184
997.474	0.000216675	0.00765381
997.934	-0.69751	-0.0186249
998.394	0.00071106	0.00333069
998.874	0.000927734	0.00766296
999.334	-0.697845	-0.0186279
999.794	-0.000500488	0.00333496
1000.27	-0.000857544	0.00766296
1000.73	-0.699066	-0.0186157
1001.19	7.32422e-05	0.00333038
1001.67	-0.000460815	0.00766602
1002.13	-0.698944	-0.0186035
1002.59	0.00101624	0.00333008
1003.07	0.000335693	0.00766296
1003.53	-0.699341	-0.0186127
1003.99	-0.000442505	0.00334412
1004.47	-0.000772095	0.00765076
1004.93	-0.697998	-0.0186218
1005.39	0.000683594	0.00333923
1005.87	0.000158691	0.00765686
1006.33	-0.697479	-0.0186127
1006.79	-0.000674438	0.00334717
1007.27	-0.000546265	0.00765076
1007.73	-0.69754	-0.0186615
1008.19	0.000897217	0.00333649
1008.67	-0.000939941	0.00767517
1009.13	-0.699036	-0.0186432
1009.59	-0.000134277	0.00334808
1010.07	-0.00088501	0.00766602
1010.53	-0.697601	-0.0186615
1010.99	-0.000186157	0.00335236
1011.47	0.000366211	0.00765991
1011.93	-0.697479	-0.0186615
1012.39	0.000482178	0.00334381
1012.87	-0.00039978	0.00767517
1013.33	-0.699249	-0.0186554
1013.79	0.000665283	0.00334473
1014.27	0.000323486	0.00765686
1014.73	-0.698883	-0.0186676
1015.19	-0.000442505	0.00335419
1015.67	0.000296021	0.00766602
1016.13	-0.697693	-0.0186554
1016.59	0.000912476	0.003349
1017.07	-0.000543213	0.00765991
1017.53	-0.698425	-0.0186646
1017.99	0.00108643	0.0033493
1018.47	0.000479126	0.00766296
1018.93	-0.69751	-0.0186615
1019.39	8.54492e-05	0.00335968
1019.87	-0.000692749	0.00766602
1020.33	-0.698242	-0.0186615
1020.79	0.000875854	0.00335297
1021.27	0.000131226	0.00766296
1021.73	-0.698853	-0.0186493
1022.19	-0.000488281	0.00336853
1022.67	0.00085144	0.00765076
1023.13	-0.69928	-0.0186523
1023.59	0.000924683	0.00336182
1024.07	0.000384521	0.00764465
1024.53	-0.697723	-0.0186676
1024.99	-5.49316e-05	0.00336548
1025.47	-0.000808716	0.00765686
1025.93	-0.699371	-0.0186493
1026.39	0.000640869	0.003367
1026.87	0.000335693	0.00765686
1027.33	-0.697754	-0.0186523
1027.79	-0.000518799	0.0033783
1028.27	0.000357056	0.0076416
1028.73	-0.69751	-0.0186615
1029.19	0.000891113	0.00336823
1029.67	-0.000933838	0.00764465
1030.13	-0.697479	-0.0186584
1030.59	-0.000622559	0.00338257
1031.07	-0.000927734	0.00764771
1031.53	-0.69754	-0.0186554
1031.99	0.00102844	0.00337372
1032.47	0.000198364	0.0076416
1032.93	-0.698273	-0.0186584
1033.39	-0.000616455	0.00338837
1033.87	-0.00022583	0.00763245
1034.33	-0.6987	-0.0186523
1034.79	0.000283813	0.00337769
1035.27	0.000256348	0.00764771
1035.73	-0.698608	-0.0186615
1036.19	0.000128174	0.00337738
1036.67	-0.000942993	0.0076355
1037.13	-0.698792	-0.0186462
1037.59	0.00012207	0.00338593
1038.07	0.000805664	0.00763855
1038.53	-0.698029	-0.0186554
1038.99	0.000137329	0.00338196
1039.47	0.000759888	0.00763245
1039.93	-0.697876	-0.0186615
1040.39	0.00101624	0.00338135
1040.87	-0.000894165	0.0076355
1041.33	-0.698608	-0.0186584
1041.79	-0.000393677	0.00339539
1042.27	0.000643921	0.00762939
1042.73	-0.697662	-0.0186523
1043.19	-0.000653076	0.0033963
1043.67	-0.000720215	0.00763245
1044.13	-0.699005	-0.0186584
1044.59	0.000469971	0.0033902
1045.07	0.000595093	0.00762329
1045.53	-0.698883	-0.0186462
1045.99	0.000192261	0.0033902
1046.47	-0.00090332	0.00762634
1046.93	-0.697754	-0.0186401
1047.39	0.000143433	0.00339935
1047.87	-0.000567627	0.0076355
1048.33	-0.698975	-0.0186462
1048.79	-0.000772095	0.00340057
1049.27	-0.00103149	0.00762329
1049.73	-0.697662	-0.0186554
1050.19	-0.000631714	0.00340729
1050.67	-0.000106812	0.00761108
1051.13	-0.698822	-0.0186462
1051.59	0.000994873	0.00339844
1052.07	0.000378418	0.00762939
1052.53	-0.698578	-0.018634
1052.99	-0.000100708	0.00340546
1053.47	0.000350952	0.00761108
1053.93	-0.697937	-0.0186371
1054.39	-0.000692749	0.00341278
1054.87	0.000811768	0.00760803
1055.33	-0.699127	-0.018631
1055.79	0.00093689	0.00340729
1056.27	-0.000592041	0.00761414
1056.73	-0.697388	-0.0186401
1057.19	-0.000631714	0.00341736
1057.67	-0.000125122	0.00761719
1058.13	-0.697906	-0.0186401
1058.59	0.00090332	0.0034082
1059.07	-0.000881958	0.00760803
1059.53	-0.698608	-0.0186249
1059.99	0.000750732	0.00341064
1060.47	-0.000872803	0.00762024
1060.93	-0.699036	-0.0186279
1061.39	0.000949097	0.00341125
1061.87	-0.00103455	0.00760803
1062.33	-0.697632	-0.0186371
1062.79	-0.000582886	0.00342468
1063.27	-8.8501e-05	0.00761719
1063.73	-0.697662	-0.018631
1064.19	0.00106201	0.00341827
1064.67	0.000790405	0.00761414
1065.13	-0.697662	-0.0186401
1065.59	-0.000482178	0.0034314
1066.07	-0.000836182	0.00760498
1066.53	-0.697754	-0.0186371
1066.99	7.32422e-05	0.00343048
1067.47	4.27246e-05	0.00759583
1067.93	-0.699097	-0.0186157
1068.39	0.000222778	0.00343079
1068.87	-0.0006073	0.00759888
1069.33	-0.699219	-0.0186279
1069.79	-0.000411987	0.00343292
1070.27	0.00065918	0.00760193
1070.73	-0.697601	-0.018631
1071.19	-0.000302124	0.00344086
1071.67	-0.000183105	0.00760498
1072.13	-0.699219	-0.0186188
1072.59	-0.000570679	0.00343903
1073.07	0.000628662	0.00758972
1073.53	-0.69754	-0.0186249
1073.99	-6.10352e-05	0.00343292
1074.47	0.000698853	0.00758972
1074.93	-0.697784	-0.018631
1075.39	-7.32422e-05	0.00344299
1075.87	-0.000921631	0.00759277
1076.33	-0.697754	-0.0186279
1076.79	0.000213623	0.00343811
1077.27	-0.000894165	0.00758362
1077.73	-0.698181	-0.018631
1078.19	0.000888062	0.00343964
1078.67	-0.000271606	0.00759277
1079.13	-0.699402	-0.0186096
1079.59	-0.000714111	0.00345032
1080.07	-0.000149536	0.00758362
1080.53	-0.697876	-0.0186157
1080.99	-0.000680542	0.00345184
1081.47	0.000405884	0.00758057
1081.93	-0.69928	-0.0186127
1082.39	-0.000628662	0.00345306
1082.87	0.000259399	0.00757751
1083.33	-0.698669	-0.0186066
1083.79	0.00109253	0.00344574
1084.27	0.000149536	0.00757446
1084.73	-0.699097	-0.0186096
1085.19	-0.000421143	0.00345917
1085.67	0.000360107	0.00757446
1086.13	-0.697693	-0.0186127
1086.59	-0.000680542	0.00346222
1087.07	-7.93457e-05	0.00758667
1087.53	-0.697693	-0.0186066
1087.99	0.00101929	0.00345062
1088.47	-0.000805664	0.00758362
1088.93	-0.698761	-0.0186005
1089.39	0.000952148	0.00345337
1089.87	-0.000741577	0.00756836
1090.33	-0.699219	-0.0185974
1090.79	-0.000601196	0.00346558
1091.27	0.000268555	0.00756836
1091.73	-0.699097	-0.0186127
1092.19	-0.000698853	0.00346954
1092.67	0.000744629	0.00757446
1093.13	-0.697571	-0.0186035
1093.59	-0.000396729	0.00346985
1094.07	-0.000909424	0.00756836
1094.53	-0.697937	-0.0186096
1094.99	-0.00071106	0.00347321
1095.47	3.05176e-06	0.00756226
1095.93	-0.698029	-0.0185944
1096.39	-6.71387e-05	0.00346924
1096.87	0.000234985	0.00755615
1097.33	-0.697632	-0.0186035
1097.79	0.00102539	0.00346588
1098.27	-0.000115967	0.00757141
1098.73	-0.697754	-0.0185974
1099.19	0.000958252	0.00347321
1099.67	0.00017395	0.00755615
1100.13	-0.698151	-0.0185944
1100.59	-0.000311279	0.00347626
1101.07	0.000772095	0.0075592
1101.53	-0.698212	-0.0185852
1101.99	-0.000289917	0.00347687
1102.47	0.000964355	0.00756226
1102.93	-0.697906	-0.0186005
1103.39	-0.00071106	0.00348572
1103.87	0.000631714	0.0075531
1104.33	-0.697876	-0.0185944
1104.79	0.000759888	0.00347626
1105.27	-0.000283813	0.00755005
1105.73	-0.697723	-0.0185822
1106.19	8.54492e-05	0.00348236
1106.67	0.000354004	0.00755005
1107.13	-0.699249	-0.0185822
1107.59	-0.00067749	0.00349182
1108.07	-0.000430298	0.0075531
1108.53	-0.698242	-0.0185852
1108.99	0.000558472	0.00348724
1109.47	-0.000186157	0.007547
1109.93	-0.699158	-0.0185852
1110.39	-0.00017395	0.00349121
1110.87	-0.000848389	0.0075592
1111.33	-0.697937	-0.0185852
1111.79	-0.000732422	0.00349579
1112.27	0.000497437	0.007547
1112.73	-0.698944	-0.018576
1113.19	0.000973511	0.00348694
1113.67	-0.000823975	0.00756226
1114.13	-0.698303	-0.0185791
1114.59	-0.000515747	0.00350189
1115.07	0.000799561	0.00754089
1115.53	-0.697571	-0.0185852
1115.99	0.00102234	0.00349243
1116.47	-0.000268555	0.00754089
1116.93	-0.698334	-0.018573
1117.39	0.00022583	0.00349335
1117.87	-0.000967407	0.00755005
1118.33	-0.697662	-0.0185852
1118.79	-0.000726318	0.00350586
1119.27	0.000680542	0.00753479
1119.73	-0.6987	-0.0185822
1120.19	0.000393677	0.00349762
1120.67	-0.00103149	0.00753479
1121.13	-0.699188	-0.018573
1121.59	0.000994873	0.00349823
1122.07	0.000769043	0.00754089
1122.53	-0.697418	-0.0185822
1122.99	-0.000640869	0.00351227
1123.47	-0.000830078	0.00754089
1123.93	-0.697784	-0.0185822
1124.39	-0.000564575	0.00351532
1124.87	-0.000112915	0.00754395
1125.33	-0.697784	-0.0185669
1125.79	0.000143433	0.00350952
1126.27	-0.000924683	0.00754089
1126.73	-0.698029	-0.0185669
1127.19	-0.000775146	0.00351715
1127.67	0.000259399	0.007547
1128.13	-0.698029	-0.0185699
1128.59	0.000405884	0.00351044
1129.07	-0.000909424	0.00753174
1129.53	-0.698792	-0.0185608
1129.99	-0.000610352	0.00352295
1130.47	-0.000360107	0.00752258
1130.93	-0.699005	-0.0185699
1131.39	-0.000244141	0.00352081
1131.87	0.000241089	0.00752563
1132.33	-0.698059	-0.018573
1132.79	0.000796509	0.00351746
1133.27	0.000949097	0.00753174
1133.73	-0.698761	-0.0185516
1134.19	0.000405884	0.0035199
1134.67	0.000720215	0.00752563
1135.13	-0.699249	-0.0185608
1135.59	0.00015564	0.00352448
1136.07	0.000811768	0.00751953
1136.53	-0.69751	-0.0185699
1136.99	-0.00043335	0.00352478
1137.47	0.000439453	0.00751038
1137.93	-0.697479	-0.0185608
1138.39	0.00103455	0.0035199
1138.87	0.000350952	0.00752258
1139.33	-0.697479	-0.0185669
1139.79	0.000689697	0.00352936
1140.27	0.000527954	0.00752258
1140.73	-0.699249	-0.0185516
1141.19	-0.000210571	0.00353485
1141.67	-0.000610352	0.00751343
1142.13	-0.698578	-0.0185516
1142.59	0.000991821	0.00352478
1143.07	0.000830078	0.00751953
1143.53	-0.699158	-0.0185547
1143.99	0.000939941	0.00352753
1144.47	0.00071106	0.00751343
1144.93	-0.697876	-0.0185577
1145.39	0.000723267	0.00353577
1145.87	0.000869751	0.00751953
1146.33	-0.697998	-0.0185638
1146.79	0.000460815	0.00353607
1147.27	0.000152588	0.00751648
1147.73	-0.698425	-0.0185455
1148.19	0.000982666	0.00353271
1148.67	0.000527954	0.00749817
1149.13	-0.697754	-0.0185638
1149.59	-0.000714111	0.00354309
1150.07	4.88281e-05	0.00749817
1150.53	-0.699249	-0.0185516
1150.99	0.000915527	0.00353485
1151.47	0.000283813	0.00751038
1151.93	-0.697662	-0.0185455
1152.39	-0.000424194	0.0035437
1152.87	-0.000149536	0.00751038
1153.33	-0.697998	-0.0185547
1153.79	6.10352e-06	0.00354828
1154.27	-0.000164795	0.00749908
1154.73	-0.699005	-0.0185303
1155.19	0.000457764	0.00354858
1155.67	0.000463867	0.00751648
1156.13	-0.699249	-0.0185364
1156.59	-0.000650024	0.00355286
1157.07	-0.000296021	0.00749695
1157.53	-0.69928	-0.0185364
1157.99	-0.000201416	0.00355591
1158.47	-0.000430298	0.00750336
1158.93	-0.697968	-0.0185516
1159.39	0.000973511	0.00354706
1159.87	0.000875854	0.00748932
1160.33	-0.698303	-0.0185394
1160.79	-0.00062561	0.00355682
1161.27	-0.000662231	0.00749481
1161.73	-0.698883	-0.0185455
1162.19	-0.000692749	0.00355957
1162.67	-0.000494385	0.00749268
1163.13	-0.698242	-0.0185364
1163.59	0.000424194	0.00355682
1164.07	-0.000378418	0.0074939
1164.53	-0.699127	-0.0185425
1164.99	-0.0006073	0.00356323
1165.47	0.000787354	0.00748199
1165.93	-0.697968	-0.0185303
1166.39	0.000894165	0.00355652
1166.87	-0.00065918	0.00749207
1167.33	-0.698975	-0.0185333
1167.79	0.000247192	0.00355621
1168.27	-0.000714111	0.00748657
1168.73	-0.69751	-0.0185394
1169.19	-0.000250244	0.00356384
1169.67	0.000823975	0.00747681
1170.13	-0.697601	-0.0185455
1170.59	-0.000335693	0.00357239
1171.07	0.000448608	0.0074826
1171.53	-0.697601	-0.0185394
1171.99	0.00101013	0.00356079
1172.47	0.00022583	0.00747559
1172.93	-0.698578	-0.0185211
1173.39	-0.000668335	0.00356842
1173.87	-0.000616455	0.00748505
1174.33	-0.697662	-0.0185394
1174.79	0.000790405	0.00356323
1175.27	-0.000775146	0.00748138
1175.73	-0.698608	-0.0185333
1176.19	-0.000326538	0.00357666
1176.67	-6.40869e-05	0.00746918
1177.13	-0.698914	-0.0185211
1177.59	-0.000634766	0.00357727
1178.07	-0.000537109	0.00747894
1178.53	-0.697479	-0.0185272
1178.99	0.000531006	0.00357452
1179.47	0.000524902	0.00747009
1179.93	-0.697571	-0.0185242
1180.39	0.000152588	0.00357788
1180.87	-0.000427246	0.00746948
1181.33	-0.697723	-0.0185181
1181.79	-0.000567627	0.00358276
1182.27	0.000747681	0.00746338
1182.73	-0.697571	-0.0185333
1183.19	0.00102539	0.0035788
1183.67	0.00057373	0.00746674
1184.13	-0.697998	-0.0185394
1184.59	0.000875854	0.00357452
1185.07	0.000421143	0.00746643
1185.53	-0.699158	-0.0185242
1185.99	-0.000579834	0.00358185
1186.47	-8.23975e-05	0.00746338
1186.93	-0.698578	-0.0185303
1187.39	-0.000585937	0.00358734
1187.87	0.000933838	0.00745819
1188.33	-0.698822	-0.018512
1188.79	0.000949097	0.00358582
1189.27	0.000924683	0.0074585
1189.73	-0.699036	-0.0185211
1190.19	-0.000506592	0.00359314
1190.67	0.000888062	0.00745392
1191.13	-0.698273	-0.018515
1191.59	0.00039978	0.00358429
1192.07	-0.000778198	0.00746429
1192.53	-0.697784	-0.0185272
1192.99	0.000982666	0.00358398
1193.47	0.000234985	0.00745422
1193.93	-0.699371	-0.0185089
1194.39	-0.000738525	0.0035968
1194.87	-0.000765991	0.0074588
1195.33	-0.6987	-0.0185211
1195.79	0.000177002	0.00359253
1196.27	0.000924683	0.00744904
1196.73	-0.698975	-0.0185059
1197.19	-0.00072937	0.00360046
1197.67	-0.000332642	0.0074588
1198.13	-0.69754	-0.0185211
1198.59	0.000250244	0.00359283
1199.07	-0.000164795	0.00745697
1199.53	-0.697479	-0.0185181
1199.99	0.000637817	0.00359558
1200.47	0.000924683	0.0074469
1200.93	-0.69754	-0.0185211
1201.39	0.000738525	0.00359253
1201.87	-0.000234985	0.00744965
1202.33	-0.698456	-0.0185028
1202.79	0.000735474	0.00359589
1203.27	-0.000317383	0.00744934
1203.73	-0.697998	-0.018512
1204.19	0.000891113	0.00359558
1204.67	-0.00015564	0.00744598
1205.13	-0.697937	-0.0185059
1205.59	0.000100708	0.0036026
1206.07	0.000762939	0.00743896
1206.53	-0.697845	-0.018515
1206.99	-0.000143433	0.00360382
1207.47	0.000213623	0.00744781
1207.93	-0.69751	-0.0185089
1208.39	-0.000210571	0.00360901
1208.87	0.000662231	0.00743866
1209.33	-0.699249	-0.0185028
1209.79	0.000778198	0.00360413
1210.27	-0.0006073	0.00744812
1210.73	-0.697632	-0.018512
1211.19	0.00072937	0.0036087
1211.67	0.000250244	0.00743958
1212.13	-0.697479	-0.0185089
1212.59	-0.000671387	0.00361847
1213.07	0.00105591	0.0074353
1213.53	-0.698547	-0.0185028
1213.99	-0.000384521	0.00361786
1214.47	0.000128174	0.00743866
1214.93	-0.697998	-0.018512
1215.39	0.000396729	0.00361084
1215.87	-0.00055542	0.00743652
1216.33	-0.698486	-0.0185089
1216.79	0.000723267	0.00361115
1217.27	0.000213623	0.00743134
1217.73	-0.69928	-0.0184937
1218.19	0.000759888	0.00361542
1218.67	0.000735474	0.0074295
1219.13	-0.697693	-0.0185059
1219.59	-0.00078125	0.00362366
1220.07	0.000613403	0.00742584
1220.53	-0.698792	-0.0184937
1220.99	-0.000683594	0.00362549
1221.47	-0.000595093	0.00743469
1221.93	-0.69751	-0.0184998
1222.39	-0.000558472	0.00362885
1222.87	-0.000701904	0.00743256
1223.33	-0.699158	-0.0184906
1223.79	0.000650024	0.00361938
1224.27	0.000289917	0.00742126
1224.73	-0.69873	-0.0184845
1225.19	-0.000271606	0.00362183
1225.67	0.000811768	0.00742401
1226.13	-0.698456	-0.0184998
1226.59	0.000839233	0.00362427
1227.07	0.000674438	0.00742035
1227.53	-0.699158	-0.0184845
1227.99	-9.15527e-06	0.0036322
1228.47	-0.000143433	0.00742828
1228.93	-0.697632	-0.0184967
1229.39	-0.000592041	0.00363617
1229.87	-0.000305176	0.00742523
1230.33	-0.699249	-0.0184875
1230.79	-0.000463867	0.00363342
1231.27	0.000918579	0.00741333
1231.73	-0.697998	-0.0184845
1232.19	-0.000228882	0.00363281
1232.67	-0.0006073	0.00742126
1233.13	-0.697449	-0.0184845
1233.59	0.000952148	0.00362793
1234.07	6.71387e-05	0.00741791
1234.53	-0.698395	-0.0184937
1234.99	-0.000619507	0.00364105
1235.47	-0.000582886	0.0074173
1235.93	-0.698975	-0.0184723
1236.39	-0.000421143	0.00363831
1236.87	0.000897217	0.00740906
1237.33	-0.698608	-0.0184875
1237.79	0.000488281	0.00363129
1238.27	0.000579834	0.00740601
1238.73	-0.697968	-0.0184753
1239.19	0.000726318	0.00363342
1239.67	0.000482178	0.00740997
1240.13	-0.697784	-0.0184875
1240.59	-0.000579834	0.00364105
1241.07	0.000546265	0.00741089
1241.53	-0.698975	-0.0184662
1241.99	0.000485229	0.00364227
1242.47	0.000518799	0.00740204
1242.93	-0.697754	-0.0184814
1243.39	-0.000546265	0.00365143
1243.87	0.000735474	0.00739838
1244.33	-0.69928	-0.0184692
1244.79	-0.000515747	0.00364838
1245.27	-0.000210571	0.00740601
1245.73	-0.699158	-0.0184692
1246.19	-0.000442505	0.00364929
1246.67	-0.00078125	0.00740967
1247.13	-0.697479	-0.0184814
1247.59	0.000241089	0.00364594
1248.07	-7.93457e-05	0.00740448
1248.53	-0.697449	-0.0184784
1248.99	0.000701904	0.00364532
1249.47	0.00083313	0.00739746
1249.93	-0.697601	-0.0184723
1250.39	0.000927734	0.00364594
1250.87	0.000848389	0.00739471
1251.33	-0.697723	-0.0184662
1251.79	-0.000296021	0.00365845
1252.27	0.000570679	0.00739624
1252.73	-0.698242	-0.0184662
1253.19	0.000259399	0.0036557
1253.67	0.000613403	0.00739532
1254.13	-0.698029	-0.0184601
1254.59	-0.000357056	0.00366211
1255.07	-5.49316e-05	0.00739929
1255.53	-0.699005	-0.0184601
1255.99	0.000808716	0.00365082
1256.47	0.000891113	0.00738953
1256.93	-0.698914	-0.018454
1257.39	6.10352e-05	0.00365723
1257.87	-0.000765991	0.0073999
1258.33	-0.699005	-0.018457
1258.79	0.000613403	0.00366394
1259.27	-0.000131226	0.00739288
1259.73	-0.698639	-0.0184723
1260.19	0.000805664	0.00366058
1260.67	-0.000598145	0.0073941
1261.13	-0.698151	-0.0184601
1261.59	-0.000164795	0.00365906
1262.07	0.00106812	0.00738556
1262.53	-0.698761	-0.018454
1262.99	-0.000604248	0.00367065
1263.47	-0.000494385	0.00738922
1263.93	-0.69754	-0.0184662
1264.39	-0.000601196	0.00366852
1264.87	0.000634766	0.00737976
1265.33	-0.699066	-0.0184631
1265.79	-0.000415039	0.00367493
1266.27	-0.000778198	0.00739166
1266.73	-0.697937	-0.0184631
1267.19	0.00071106	0.00366425
1267.67	-0.000744629	0.00739075
1268.13	-0.69873	-0.0184601
1268.59	-2.44141e-05	0.00367523
1269.07	-0.00078125	0.00738617
1269.53	-0.699219	-0.018454
1269.99	-0.000491333	0.0036792
1270.47	3.96729e-05	0.00737549
1270.93	-0.69754	-0.018457
1271.39	-0.000100708	0.00367859
1271.87	-0.000723267	0.00738403
1272.33	-0.698486	-0.0184662
1272.79	0.000927734	0.00367065
1273.27	0.000518799	0.00737274
1273.73	-0.697968	-0.0184509
1274.19	-0.000509644	0.00368347
1274.67	-0.000759888	0.00738159
1275.13	-0.69928	-0.0184509
1275.59	-0.000683594	0.00368408
1276.07	-0.000762939	0.00737946
1276.53	-0.698273	-0.018457
1276.99	0.000888062	0.0036734
1277.47	0.000509644	0.00737274
1277.93	-0.697479	-0.018457
1278.39	0.000134277	0.00368439
1278.87	-0.000338745	0.0073764
1279.33	-0.699158	-0.0184448
1279.79	0.00100708	0.00367676
1280.27	-0.00072937	0.00737213
1280.73	-0.699005	-0.0184296
1281.19	0.000360107	0.00368195
1281.67	-0.000680542	0.00737244
1282.13	-0.697998	-0.018454
1282.59	0.00088501	0.0036795
1283.07	0.000912476	0.00736267
1283.53	-0.699188	-0.0184418
1283.99	0.000918579	0.00368347
1284.47	-0.000509644	0.00736908
1284.93	-0.697937	-0.0184479
1285.39	-0.000564575	0.00369415
1285.87	0.000714111	0.00736725
1286.33	-0.699097	-0.0184357
1286.79	0.000274658	0.00368835
1287.27	-0.000244141	0.00737
1287.73	-0.698425	-0.0184326
1288.19	0.000189209	0.00369476
1288.67	0.000827026	0.0073584
1289.13	-0.698029	-0.0184387
1289.59	-0.000393677	0.00369751
1290.07	0.000875854	0.00735718
1290.53	-0.698608	-0.0184296
1290.99	0.000561523	0.00369568
1291.47	0.000512695	0.00735687
1291.93	-0.699005	-0.0184296
1292.39	0.000424194	0.00369751
1292.87	-0.000408936	0.00736176
1293.33	-0.69812	-0.0184296
1293.79	0.00065918	0.00369659
1294.27	0.000396729	0.00735535
1294.73	-0.69931	-0.0184265
1295.19	0.000241089	0.00369537
1295.67	0.000411987	0.00735443
1296.13	-0.697601	-0.0184418
1296.59	-0.000613403	0.00370575
1297.07	-0.000476074	0.00736328
1297.53	-0.698914	-0.0184326
1297.99	-0.000546265	0.00370178
1298.47	0.000198364	0.00735992
1298.93	-0.697601	-0.0184387
1299.39	0.000115967	0.00370361
1299.87	-0.000735474	0.00736023
1300.33	-0.699188	-0.0184204
1300.79	0.00109253	0.00370331
1301.27	-0.000357056	0.00735016
1301.73	-0.69873	-0.0184235
1302.19	0.000109863	0.00371155
1302.67	0.000778198	0.00734833
1303.13	-0.698151	-0.0184174
1303.59	-0.000686646	0.00371521
1304.07	-0.000390625	0.00734772
1304.53	-0.69751	-0.0184235
1304.99	0.000720215	0.0037085
1305.47	0.000723267	0.00734161
1305.93	-0.698608	-0.0184296
1306.39	-0.000366211	0.00371613
1306.87	0.000570679	0.00734558
1307.33	-0.698395	-0.0184174
1307.79	-0.000131226	0.0037149
1308.27	-4.88281e-05	0.00734802
1308.73	-0.699249	-0.0184113
1309.19	-0.000402832	0.00371613
1309.67	-0.000741577	0.00734955
1310.13	-0.698822	-0.0184174
1310.59	3.05176e-05	0.00371399
1311.07	-0.000210571	0.00734283
1311.53	-0.697449	-0.0184235
1311.99	0.000961304	0.00371185
1312.47	0.000283813	0.00733673
1312.93	-0.697632	-0.0184235
1313.39	-0.000463867	0.00371765
1313.87	0.000411987	0.00733765
1314.33	-0.699188	-0.0184052
1314.79	0.000967407	0.00371399
1315.27	0.000344849	0.00733582
1315.73	-0.697601	-0.0184235
1316.19	0.000717163	0.00371338
1316.67	-0.000714111	0.00734344
1317.13	-0.697571	-0.0184204
1317.59	-7.93457e-05	0.00372009
1318.07	-0.000296021	0.00733765
1318.53	-0.69751	-0.0184204
1318.99	-0.000442505	0.0037323
1319.47	0.000570679	0.00733795
1319.93	-0.698547	-0.0184021
1320.39	0.000888062	0.00372131
1320.87	0.000863647	0.00732819
1321.33	-0.697876	-0.0184204
1321.79	-0.000341797	0.00371826
1322.27	-0.000802612	0.00733459
1322.73	-0.697815	-0.0184235
1323.19	0.000299072	0.00371582
1323.67	0.000323486	0.00732208
1324.13	-0.698425	-0.0184265
1324.59	0.000283813	0.00371826
1325.07	0.000454712	0.0073288
1325.53	-0.699158	-0.0184143
1325.99	0.000595093	0.00371979
1326.47	0.000918579	0.0073172
1326.93	-0.698059	-0.0184296
1327.39	0.000787354	0.00371643
1327.87	0.000466919	0.00731567
1328.33	-0.6987	-0.0184143
1328.79	0.000906372	0.00372131
1329.27	0.000854492	0.00731659
1329.73	-0.698853	-0.0184204
1330.19	0.00078125	0.00371948
1330.67	-7.01904e-05	0.00731812
1331.13	-0.698669	-0.0184143
1331.59	-2.44141e-05	0.00373291
1332.07	-0.000646973	0.00732544
1332.53	-0.698639	-0.0184174
1332.99	0.000857544	0.00372681
1333.47	0.000778198	0.00731537
1333.93	-0.697571	-0.0184143
1334.39	-0.000772095	0.00373383
1334.87	-0.0006073	0.00731873
1335.33	-0.697632	-0.0184113
1335.79	-0.000634766	0.00373474
1336.27	-0.000634766	0.00732086
1336.73	-0.699188	-0.0184052
1337.19	0.000778198	0.00373444
1337.67	0.000921631	0.00731628
1338.13	-0.698975	-0.0184082
1338.59	0.000283813	0.00373596
1339.07	0.000537109	0.00731293
1339.53	-0.698822	-0.018399
1339.99	-0.000592041	0.00374023
1340.47	-0.000802612	0.00731354
1340.93	-0.698547	-0.0184021
1341.39	0.000686646	0.00373169
1341.87	0.000759888	0.0073053
1342.33	-0.697723	-0.018399
1342.79	0.000418091	0.00373535
1343.27	0.000634766	0.00730377
1343.73	-0.698517	-0.0184113
1344.19	3.05176e-06	0.0037439
1344.67	-0.000631714	0.00731171
1345.13	-0.697754	-0.0184082
1345.59	-0.00057373	0.00374817
1346.07	-0.000534058	0.00731079
1346.53	-0.698578	-0.0183929
1346.99	-0.000778198	0.00374634
1347.47	0.00072937	0.00730499
1347.93	-0.69931	-0.0184052
1348.39	0.00078125	0.00373932
1348.87	0.000857544	0.00730103
1349.33	-0.699127	-0.0183868
1349.79	-0.000439453	0.00374451
1350.27	0.000933838	0.00730133
1350.73	-0.698242	-0.0183929
1351.19	0.000918579	0.00374268
1351.67	0.000723267	0.00729889
1352.13	-0.698853	-0.0183899
1352.59	-0.000604248	0.00375214
1353.07	-0.000250244	0.00729858
1353.53	-0.697571	-0.018399
1353.99	0.000912476	0.00374542
1354.47	0.000442505	0.00729675
1354.93	-0.698792	-0.0183899
1355.39	0.000735474	0.00374908
1355.87	-0.000366211	0.0072995
1356.33	-0.698273	-0.0184021
1356.79	0.000369263	0.00375153
1357.27	-0.000402832	0.00730652
1357.73	-0.698212	-0.0184052
1358.19	0.000582886	0.00375275
1358.67	-0.000506592	0.00730835
1359.13	-0.698517	-0.0183899
1359.59	-0.000228882	0.00375946
1360.07	-0.000534058	0.0073056
1360.53	-0.69809	-0.018396
1360.99	0.000714111	0.00375336
1361.47	-0.000326538	0.00730316
1361.93	-0.699097	-0.018396
1362.39	0.000286865	0.00375824
1362.87	0.000595093	0.00729187
1363.33	-0.699005	-0.018396
1363.79	7.32422e-05	0.00376282
1364.27	0.000210571	0.0072937
1364.73	-0.698059	-0.018399
1365.19	-0.000546265	0.00376648
1365.67	-0.000576782	0.0072998
1366.13	-0.697693	-0.0183868
1366.59	-0.000341797	0.00376465
1367.07	0.000500488	0.00729218
1367.53	-0.697754	-0.0183899
1367.99	0.000106812	0.00376038
1368.47	-0.000445557	0.00729279
1368.93	-0.697754	-0.0183929
1369.39	-0.000192261	0.00376709
1369.87	-0.000418091	0.00729553
1370.33	-0.698151	-0.0183868
1370.79	0.000231934	0.00377106
1371.27	4.57764e-05	0.00729279
1371.73	-0.698883	-0.0183838
1372.19	-0.000344849	0.00377167
1372.67	0.000741577	0.00728394
1373.13	-0.697968	-0.0183899
1373.59	-0.000366211	0.0037738
1374.07	0.000799561	0.00728607
1374.53	-0.697937	-0.0183899
1374.99	0.00020752	0.00376801
1375.47	0.000463867	0.00728668
1375.93	-0.6987	-0.0183899
1376.39	-0.000314331	0.00377563
1376.87	0.00043335	0.00728607
1377.33	-0.697968	-0.0183868
1377.79	-5.18799e-05	0.00377258
1378.27	0.00071106	0.00728027
1378.73	-0.697998	-0.0183899
1379.19	0.000802612	0.00377136
1379.67	6.10352e-05	0.00728241
1380.13	-0.699005	-0.0183746
1380.59	-0.000106812	0.00377869
1381.07	-0.000488281	0.00728729
1381.53	-0.697632	-0.0183807
1381.99	-0.000119019	0.00378113
1382.47	-0.000488281	0.00728424
1382.93	-0.697784	-0.0183746
1383.39	0.000872803	0.0037735
1383.87	0.000668335	0.00727478
1384.33	-0.697632	-0.0183807
1384.79	-0.000485229	0.00378448
1385.27	-0.000680542	0.00728149
1385.73	-0.697632	-0.0183746
1386.19	-0.000717163	0.00378326
1386.67	0.00093689	0.00727234
1387.13	-0.698883	-0.0183685
1387.59	0.000234985	0.00377838
1388.07	-0.000170898	0.00727417
1388.53	-0.698822	-0.0183594
1388.99	0.00017395	0.00378632
1389.47	0.000842285	0.00726746
1389.93	-0.699188	-0.0183716
1390.39	-0.000479126	0.00378662
1390.87	-0.000680542	0.00727936
1391.33	-0.697449	-0.0183716
1391.79	0.000686646	0.00377869
1392.27	-0.000640869	0.00727875
1392.73	-0.697723	-0.0183746
1393.19	-0.000375366	0.00379181
1393.67	0.000610352	0.00726593
1394.13	-0.6987	-0.0183563
1394.59	0.000866699	0.00378448
1395.07	-0.000534058	0.00727539
1395.53	-0.697784	-0.0183685
1395.99	-0.00017395	0.00379333
1396.47	-6.10352e-05	0.00726807
1396.93	-0.699371	-0.0183594
1397.39	0.000317383	0.0037912
1397.87	-0.000695801	0.00727234
1398.33	-0.698242	-0.0183594
1398.79	0.000561523	0.0037854
1399.27	-0.000164795	0.00727081
1399.73	-0.699097	-0.0183594
1400.19	0.000735474	0.00379181
1400.67	0.000613403	0.00726044
1401.13	-0.697906	-0.0183746
1401.59	-0.000515747	0.00379242
1402.07	-0.000891113	0.00726929
1402.53	-0.698792	-0.0183502
1402.99	0.000137329	0.00379272
1403.47	0.000720215	0.00725922
1403.93	-0.698792	-0.0183624
1404.39	-0.0006073	0.00380341
1404.87	1.2207e-05	0.00725525
1405.33	-0.697998	-0.0183533
1405.79	-0.000460815	0.00380127
1406.27	0.000445557	0.00726013
1406.73	-0.698822	-0.0183502
1407.19	-0.000598145	0.00380402
1407.67	-0.000726318	0.00726593
1408.13	-0.697906	-0.0183563
1408.59	0.000958252	0.00379364
1409.07	-0.000469971	0.00726288
1409.53	-0.697601	-0.0183563
1409.99	-0.000656128	0.00380676
1410.47	0.000119019	0.0072522
1410.93	-0.697571	-0.0183533
1411.39	0.000753784	0.00379608
1411.87	-0.000762939	0.00726105
1412.33	-0.698883	-0.0183533
1412.79	0.000671387	0.00380249
1413.27	0.000387573	0.00724976
1413.73	-0.697662	-0.0183533
1414.19	0.000762939	0.00379913
1414.67	0.000299072	0.00724915
1415.13	-0.698151	-0.0183594
1415.59	0.000762939	0.00380219
1416.07	0.000131226	0.00724854
1416.53	-0.69928	-0.018335
1416.99	-0.000668335	0.00380798
1417.47	-0.000631714	0.00725342
1417.93	-0.698029	-0.0183472
1418.39	-0.00057373	0.00381226
1418.87	0.000723267	0.00724243
1419.33	-0.699188	-0.018338
1419.79	0.000964355	0.00380829
1420.27	0.0009765625	0.00724579
1420.73	-0.698273	-0.018338
1421.19	0.00100098	0.00380554
1421.67	0.000640869	0.0072403
1422.13	-0.6987	-0.0183441
1422.59	-0.000561523	0.00381958
1423.07	0.000601196	0.00724792
1423.53	-0.698242	-0.018338
1423.99	0.000991821	0.00381042
1424.47	-0.000518799	0.00724609
1424.93	-0.699219	-0.018335
1425.39	0.000756836	0.00381012
1425.87	7.62939e-05	0.00724731
1426.33	-0.697601	-0.0183472
1426.79	-0.000442505	0.00381958
1427.27	-0.000515747	0.00724792
1427.73	-0.697571	-0.0183289
1428.19	0.00083313	0.00381622
1428.67	-0.000195313	0.00723999
1429.13	-0.69873	-0.0183258
1429.59	0.000784302	0.00381317
1430.07	-1.2207e-05	0.00723907
1430.53	-0.699158	-0.0183319
1430.99	8.8501e-05	0.00382202
1431.47	0.000906372	0.00723328
1431.93	-0.699219	-0.0183228
1432.39	0.000784302	0.00381531
1432.87	0.000820923	0.00723602
1433.33	-0.698212	-0.018338
1433.79	-0.000576782	0.00382629
1434.27	-0.000360107	0.00724091
1434.73	-0.697632	-0.0183319
1435.19	0.000653076	0.00381561
1435.67	-0.000537109	0.00724121
1436.13	-0.699127	-0.0183167
1436.59	-0.000592041	0.00382874
1437.07	0.000326538	0.00723022
1437.53	-0.698334	-0.0183167
1437.99	0.00113831	0.00382263
1438.47	0.000662231	0.00722595
1438.93	-0.697937	-0.0183289
1439.39	-0.000366211	0.00383331
1439.87	-0.000323486	0.00723206
1440.33	-0.697784	-0.0183228
1440.79	-0.000582886	0.00383667
1441.27	0.00101624	0.00722626
1441.73	-0.697998	-0.0183197
1442.19	0.000256348	0.0038266
1442.67	-0.000204468	0.007229
1443.13	-0.697937	-0.0183167
1443.59	-0.000546265	0.00383636
1444.07	-0.000646973	0.00722687
1444.53	-0.697906	-0.0183228
1444.99	-0.000494385	0.00383728
1445.47	0.000350952	0.00722778
1445.93	-0.699371	-0.0183105
1446.39	-0.000634766	0.0038382
1446.87	0.000897217	0.00721924
1447.33	-0.697998	-0.0183167
1447.79	7.62939e-05	0.00383606
1448.27	-0.000540161	0.00723877
1448.73	-0.697449	-0.018335
1449.19	-0.000308228	0.00383728
1449.67	-0.000775146	0.00723724
1450.13	-0.697937	-0.0183411
1450.59	-0.000540161	0.00384277
1451.07	-0.000588989	0.0072348
1451.53	-0.698181	-0.0183197
1451.99	0.000634766	0.00383301
1452.47	-0.000653076	0.00723694
1452.93	-0.698944	-0.0183319
1453.39	0.00107422	0.00383148
1453.87	-0.000576782	0.00723511
1454.33	-0.698669	-0.0183197
1454.79	-0.00015564	0.00383881
1455.27	0.000308228	0.00722809
1455.73	-0.698822	-0.0183319
1456.19	-0.000759888	0.00384247
1456.67	-0.000695801	0.00723022
1457.13	-0.699249	-0.0183197
1457.59	0.000970459	0.00383667
1458.07	-0.000735474	0.00723114
1458.53	-0.697968	-0.0183258
1458.99	0.00102539	0.00384125
1459.47	-0.000674438	0.00722626
1459.93	-0.698029	-0.0183167
1460.39	0.000222778	0.00383972
1460.87	-1.83105e-05	0.00722534
1461.33	-0.698029	-0.0183289
1461.79	0.000320435	0.00383942
1462.27	0.000973511	0.00721619
1462.73	-0.699219	-0.0183075
1463.19	0.000524902	0.00383972
1463.67	-0.000268555	0.00722595
1464.13	-0.697449	-0.0183197
1464.59	0.000601196	0.00384064
1465.07	-0.000405884	0.00721832
1465.53	-0.697632	-0.0183197
1465.99	-0.000540161	0.00385284
1466.47	-9.76562e-05	0.00722076
1466.93	-0.698181	-0.0183044
1467.39	-0.000543213	0.0038501
1467.87	-0.000793457	0.00722168
1468.33	-0.697479	-0.0183258
1468.79	0.000341797	0.00384918
1469.27	0.000201416	0.0072168
1469.73	-0.697388	-0.0183105
1470.19	-0.000619507	0.0038559
1470.67	-0.00065918	0.00722046
1471.13	-0.698212	-0.0183167
1471.59	-0.000338745	0.00384766
1472.07	0.00085144	0.00720856
1472.53	-0.697937	-0.0183197
1472.99	-0.00062561	0.00385651
1473.47	-0.000213623	0.0072168
1473.93	-0.69754	-0.0183105
1474.39	0.00039978	0.00385681
1474.87	0.000204468	0.00720428
1475.33	-0.699249	-0.0183044
1475.79	-0.000286865	0.00385742
1476.27	0.000714111	0.00720337
1476.73	-0.69751	-0.0183105
1477.19	-0.000708008	0.00385712
1477.67	-0.000640869	0.00721649
1478.13	-0.697601	-0.0183167
1478.59	-0.000674438	0.00386108
1479.07	-0.000552368	0.00721069
1479.53	-0.698669	-0.0183136
1479.99	0.000509644	0.00385071
1480.47	-0.000268555	0.00720215
1480.93	-0.698151	-0.0183075
1481.39	-0.000689697	0.00386353
1481.87	-0.000244141	0.00720398
1482.33	-0.69931	-0.0182983
1482.79	0.000241089	0.00385651
1483.27	-0.000360107	0.00720795
1483.73	-0.697876	-0.0183136
1484.19	-0.000567627	0.0038681
1484.67	0.000558472	0.00719696
1485.13	-0.697327	-0.0183044
1485.59	0.000308228	0.00385986
1486.07	0.000143433	0.00720306
1486.53	-0.698303	-0.0183105
1486.99	-0.000286865	0.00386871
1487.47	-0.000268555	0.0071994
1487.93	-0.697784	-0.0182983
1488.39	-0.000668335	0.00386963
1488.87	0.000723267	0.00719177
1489.33	-0.699249	-0.0182922
1489.79	-0.00055542	0.00387177
1490.27	0.000512695	0.00719238
1490.73	-0.699066	-0.0183014
1491.19	0.000854492	0.00385925
1491.67	-0.000375366	0.00720154
1492.13	-0.697632	-0.0182953
1492.59	1.83105e-05	0.00387054
1493.07	0.000524902	0.00718903
1493.53	-0.697754	-0.0182953
1493.99	0.00102844	0.0038623
1494.47	0.000708008	0.00719177
1494.93	-0.697632	-0.0183044
1495.39	-0.000769043	0.00387207
1495.87	-0.000640869	0.00720001
1496.33	-0.697845	-0.0182983
1496.79	0.000985718	0.00386353
1497.27	0.000408936	0.0071875
1497.73	-0.698181	-0.0183014
1498.19	-0.000753784	0.00387726
1498.67	-0.000222778	0.00719666
1499.13	-0.699066	-0.0182922
1499.59	-0.000592041	0.00387695
1500.07	0.000222778	0.00718964
1500.53	-0.698914	-0.0182831
1500.99	-0.000152588	0.00387299
1501.47	0.000894165	0.00718231
1501.93	-0.699219	-0.0182861
1502.39	0.000646973	0.00387207
1502.87	0.000143433	0.00718842
1503.33	-0.698944	-0.0182892
1503.79	-0.000375366	0.00388
1504.27	3.66211e-05	0.00718414
1504.73	-0.699219	-0.0182861
1505.19	0.00098877	0.00387115
1505.67	-0.000744629	0.00719208
1506.13	-0.69812	-0.0182953
1506.59	0.000952148	0.0038736
1507.07	-0.000335693	0.00718811
1507.53	-0.698181	-0.0182922
1507.99	0.000854492	0.0038739
1508.47	0.000152588	0.00718445
1508.93	-0.6987	-0.0182892
1509.39	-0.000601196	0.00388153
1509.87	-0.000665283	0.00718445
1510.33	-0.697479	-0.0182892
1510.79	0.00112	0.00387482
1511.27	-0.000564575	0.00718536
1511.73	-0.698639	-0.0182739
1512.19	-0.000378418	0.00388336
1512.67	-0.000311279	0.00718445
1513.13	-0.699249	-0.018277
1513.59	0.000854492	0.00387451
1514.07	0.000418091	0.00717804
1514.53	-0.697632	-0.0182831
1514.99	-0.000259399	0.00388733
1515.47	-0.000756836	0.00718231
1515.93	-0.697601	-0.0182892
1516.39	-0.000158691	0.00389099
1516.87	-0.0003479	0.00718445
1517.33	-0.697601	-0.0182831
1517.79	0.000628662	0.00388397
1518.27	5.79834e-05	0.00717865
1518.73	-0.698547	-0.018277
1519.19	0.000921631	0.00388306
1519.67	-8.54492e-05	0.0071698
1520.13	-0.699036	-0.0182678
1520.59	0.00027771	0.00388947
1521.07	-0.000747681	0.00717926
1521.53	-0.698547	-0.0182648
1521.99	0.000985718	0.00388367
1522.47	-0.000784302	0.00717712
1522.93	-0.698242	-0.0182678
1523.39	0.000909424	0.00388275
1523.87	-0.000357056	0.00717285
1524.33	-0.698883	-0.0182709
1524.79	-0.000628662	0.0038913
1525.27	-2.74658e-05	0.00716705
1525.73	-0.697632	-0.0182831
1526.19	0.000991821	0.00388062
1526.67	-0.000100708	0.00716705
1527.13	-0.699249	-0.0182831
1527.59	0.00100708	0.00388123
1528.07	-0.000726318	0.00716766
1528.53	-0.699249	-0.0182678
1528.99	-0.000680542	0.00389435
1529.47	0.000912476	0.00715637
1529.93	-0.697693	-0.0182739
1530.39	-0.000714111	0.00389313
1530.87	0.000744629	0.00715424
1531.33	-0.698975	-0.0182648
1531.79	0.00109558	0.00388611
1532.27	0.00062561	0.00715851
1532.73	-0.698456	-0.0182678
1533.19	0.0009552	0.00388428
1533.67	-0.000335693	0.0071582
1534.13	-0.699219	-0.0182678
1534.59	0.000192261	0.00389618
1535.07	0.000570679	0.00714996
1535.53	-0.697601	-0.0182739
1535.99	0.00090332	0.00388641
1536.47	0.000946045	0.00715088
1536.93	-0.698914	-0.0182648
1537.39	0.000747681	0.00388672
1537.87	-0.000341797	0.00715118
1538.33	-0.699249	-0.0182587
1538.79	0.000463867	0.00388855
1539.27	-0.000704956	0.00716034
1539.73	-0.699219	-0.0182587
1540.19	-0.000689697	0.00390045
1540.67	0.00106812	0.00714722
1541.13	-0.698425	-0.0182617
1541.59	-0.000454712	0.00389832
1542.07	-0.000405884	0.00715332
1542.53	-0.697968	-0.0182678
1542.99	0.000930786	0.00389404
1543.47	0.000701904	0.00714905
1543.93	-0.699219	-0.0182587
1544.39	-0.000643921	0.0039032
1544.87	-6.40869e-05	0.00714813
1545.33	-0.69928	-0.0182526
1545.79	0.000720215	0.00389435
1546.27	0.000595093	0.00714478
1546.73	-0.697693	-0.0182556
1547.19	0.00039978	0.00390228
1547.67	0.000463867	0.00714355
1548.13	-0.697479	-0.0182526
1548.59	0.000259399	0.00389954
1549.07	-0.000744629	0.00715057
1549.53	-0.698944	-0.0182556
1549.99	-0.000567627	0.00390289
1550.47	-0.000582886	0.00715088
1550.93	-0.697784	-0.0182495
1551.39	-0.000558472	0.0039093
1551.87	0.000875854	0.00713898
1552.33	-0.698212	-0.0182465
1552.79	0.00104675	0.00389984
1553.27	0.000924683	0.00713745
1553.73	-0.698792	-0.0182526
1554.19	-4.27246e-05	0.00390594
1554.67	-0.000646973	0.00714661
1555.13	-0.698975	-0.0182465
1555.59	0.000921631	0.00390503
1556.07	-0.000619507	0.00714417
1556.53	-0.698364	-0.0182312
1556.99	0.0009552	0.0039032
1557.47	-0.000280762	0.0071405
1557.93	-0.698914	-0.0182465
1558.39	0.000100708	0.00390656
1558.87	-0.000576782	0.00714539
1559.33	-0.697754	-0.0182495
1559.79	-0.00045166	0.00391571
1560.27	-0.000622559	0.00714111
1560.73	-0.699341	-0.0182404
1561.19	0.0009765625	0.00390564
1561.67	8.54492e-05	0.0071402
1562.13	-0.698212	-0.0182495
1562.59	0.00085144	0.00390656
1563.07	0.000726318	0.00713165
1563.53	-0.698334	-0.0182495
1563.99	0.000115967	0.00391113
1564.47	0.000372314	0.00713135
1564.93	-0.697693	-0.0182404
1565.39	-0.000765991	0.00391876
1565.87	0.000863647	0.00712982
1566.33	-0.699097	-0.0182343
1566.79	0.000924683	0.00390961
1567.27	0.000109863	0.0071347
1567.73	-0.697906	-0.0182495
1568.19	0.000778198	0.00391846
1568.67	-0.000784302	0.00713623
1569.13	-0.697601	-0.0182434
1569.59	0.000802612	0.00391174
1570.07	0.00083313	0.00712524
1570.53	-0.69873	-0.0182434
1570.99	-0.000698853	0.00392303
1571.47	0.000466919	0.00713287
1571.93	-0.698395	-0.0182404
1572.39	0.000598145	0.00391479
1572.87	-0.00027771	0.00712952
1573.33	-0.698273	-0.0182404
1573.79	-0.000588989	0.00392578
1574.27	9.76562e-05	0.0071225
1574.73	-0.698059	-0.0182312
1575.19	0.000796509	0.00391541
1575.67	0.000732422	0.00712402
1576.13	-0.697784	-0.0182373
1576.59	0.000622559	0.00392059
1577.07	-0.000720215	0.00712982
1577.53	-0.697723	-0.0182281
1577.99	-0.000448608	0.00392365
1578.47	0.0003479	0.00712372
1578.93	-0.698975	-0.0182373
1579.39	0.000827026	0.0039209
1579.87	-0.000744629	0.00712646
1580.33	-0.698029	-0.0182312
1580.79	0.000982666	0.0039209
1581.27	0.000540161	0.00712036
1581.73	-0.69751	-0.0182281
1582.19	-0.000128174	0.00392578
1582.67	0.000796509	0.00711456
1583.13	-0.698212	-0.0182251
1583.59	0.00109253	0.00392303
1584.07	-0.000183105	0.00712219
1584.53	-0.697571	-0.0182251
1584.99	0.00083313	0.00392426
1585.47	0.000784302	0.00711365
1585.93	-0.698822	-0.0182251
1586.39	0.00107422	0.00392426
1586.87	0.000616455	0.00711029
1587.33	-0.698639	-0.0182251
1587.79	-0.00045166	0.00393127
1588.27	0.000616455	0.00711273
1588.73	-0.699188	-0.0182129
1589.19	0.0003479	0.00392426
1589.67	-0.000778198	0.00712097
1590.09	-0.00057373	0.00219055