File: Edgar/20230821/20230821/electrochromic_setup_test/test_2_1_0p5_OCP/CV_2.txt
Time (s)	WE(1).Potential (V)	WE(1).Current (A)
30.4969	0.0280457	2.96021e-08
30.619	0.0299896	2.41089e-08
30.7411	0.0329071	3.32642e-08
30.8631	0.0346283	4.42505e-08
30.9852	0.0377869	4.36096e-08
31.1073	0.0395386	3.42712e-08
31.2294	0.0428467	5.38635e-08
31.3514	0.0454987	5.05066e-08
31.4735	0.04729	5.01709e-08
31.5956	0.0508423	4.90112e-08
31.7176	0.0523682	4.31213e-08
31.8397	0.053894	3.79944e-08
31.9618	0.0570984	4.92859e-08
32.0838	0.0591125	5.16968e-08
32.2059	0.060791	4.22058e-08
32.328	0.0653992	5.41992e-08
32.4501	0.065918	4.77905e-08
32.5721	0.0673523	4.74243e-08
32.6942	0.0727844	5.06897e-08
32.8163	0.0730286	4.65698e-08
32.9383	0.0736389	4.30908e-08
33.0604	0.0784302	5.68542e-08
33.1825	0.0811462	5.31921e-08
33.3045	0.0823364	4.50745e-08
33.4266	0.0834656	4.83398e-08
33.5487	0.0887451	5.02319e-08
33.6708	0.0889587	5.27649e-08
33.7928	0.0918274	4.64478e-08
33.9149	0.0958862	5.5542e-08
34.037	0.0969849	5.0293e-08
34.159	0.100433	6.11572e-08
34.2811	0.103699	6.30493e-08
34.4032	0.104858	5.51453e-08
34.5252	0.108215	6.54907e-08
34.6473	0.111694	6.75354e-08
34.7694	0.110992	4.84314e-08
34.8915	0.115784	6.10962e-08
35.0135	0.119141	6.29272e-08
35.1356	0.120331	6.20117e-08
35.2577	0.122711	6.11572e-08
35.3797	0.127014	6.35071e-08
35.5018	0.127869	6.40259e-08
35.6239	0.130219	5.93262e-08
35.7459	0.13443	7.20215e-08
35.868	0.137238	6.93359e-08
35.9901	0.13739	6.53687e-08
36.1122	0.141418	7.35779e-08
36.2342	0.14328	6.90308e-08
36.3563	0.144562	6.32629e-08
36.4784	0.148163	6.69556e-08
36.6004	0.149841	6.56738e-08
36.7225	0.151245	6.26526e-08
36.8446	0.15448	7.37915e-08
36.9666	0.156525	7.31506e-08
37.0887	0.157776	6.57959e-08
37.2108	0.163116	7.19299e-08
37.3329	0.163696	6.07605e-08
37.4549	0.165222	6.32629e-08
37.577	0.17099	7.35168e-08
37.6991	0.171356	6.96411e-08
37.8211	0.171661	6.56128e-08
37.9432	0.176941	6.97937e-08
38.0653	0.178223	7.14722e-08
38.1873	0.178741	6.47888e-08
38.3094	0.18277	7.44934e-08
38.4315	0.186371	7.0343e-08
38.5536	0.187347	5.94788e-08
38.6756	0.189514	6.52771e-08
38.7977	0.192688	7.50427e-08
38.9198	0.193542	7.18994e-08
39.0418	0.195282	6.70776e-08
39.1639	0.201263	7.12585e-08
39.286	0.201141	7.06482e-08
39.408	0.204468	6.74438e-08
39.5301	0.20871	7.78809e-08
39.6522	0.209198	6.89392e-08
39.7743	0.212982	8.36182e-08
39.8963	0.215637	8.01697e-08
40.0184	0.21698	7.91016e-08
40.1405	0.220367	8.45337e-08
40.2625	0.222961	8.1665e-08
40.3846	0.223541	7.8186e-08
40.5067	0.227295	8.38623e-08
40.6287	0.230621	8.17566e-08
40.7508	0.230896	7.67822e-08
40.8729	0.235535	9.17358e-08
40.995	0.238068	8.67004e-08
41.117	0.239258	8.33435e-08
41.2391	0.242126	9.0271e-08
41.3612	0.246765	9.67712e-08
41.4832	0.247192	9.13696e-08
41.6053	0.249512	8.96606e-08
41.7274	0.253815	1.02325e-07
41.8494	0.255981	9.78088e-08
41.9715	0.256927	9.67407e-08
42.0936	0.260406	1.05682e-07
42.2157	0.263794	1.07513e-07
42.3377	0.26355	9.73511e-08
42.4598	0.268799	1.05621e-07
42.5819	0.271698	1.11237e-07
42.7039	0.270996	9.56421e-08
42.826	0.27533	1.09833e-07
42.9481	0.27652	1.12152e-07
43.0701	0.277954	1.05988e-07
43.1922	0.281494	1.09314e-07
43.3143	0.28363	1.11359e-07
43.4364	0.285126	1.09741e-07
43.5584	0.2890625	1.17889e-07
43.6805	0.29068	1.14441e-07
43.8026	0.292267	1.1084e-07
43.9246	0.296814	1.15479e-07
44.0467	0.297791	1.10779e-07
44.1688	0.29837	1.1026e-07
44.2908	0.304626	1.26007e-07
44.4129	0.304718	1.1795e-07
44.535	0.305878	1.15906e-07
44.6571	0.310822	1.27258e-07
44.7791	0.312866	1.18011e-07
44.9012	0.312744	1.14288e-07
45.0233	0.316864	1.26312e-07
45.1453	0.319702	1.23566e-07
45.2674	0.321625	1.15417e-07
45.3895	0.322693	1.23627e-07
45.5115	0.327789	1.29669e-07
45.6336	0.327728	1.24695e-07
45.7557	0.329376	1.2323e-07
45.8778	0.334961	1.26648e-07
45.9998	0.335388	1.31683e-07
46.1219	0.33725	1.2149e-07
46.244	0.341705	1.31042e-07
46.366	0.343506	1.26923e-07
46.4881	0.34729	1.28571e-07
46.6102	0.349854	1.37451e-07
46.7322	0.349609	1.16547e-07
46.8543	0.353577	1.25488e-07
46.9764	0.357239	1.35803e-07
47.0985	0.359161	1.28632e-07
47.2205	0.361908	1.39954e-07
47.3426	0.365021	1.39008e-07
47.4647	0.364136	1.29456e-07
47.5867	0.369415	1.34613e-07
47.7088	0.371826	1.45569e-07
47.8309	0.371979	1.3266e-07
47.9529	0.376068	1.38367e-07
48.075	0.379578	1.43921e-07
48.1971	0.381348	1.38123e-07
48.3192	0.383789	1.42212e-07
48.4412	0.387939	1.46179e-07
48.5633	0.388275	1.36505e-07
48.6854	0.391083	1.45905e-07
48.8074	0.394806	1.4624e-07
48.9295	0.397461	1.45935e-07
49.0516	0.397522	1.4856e-07
49.1736	0.402679	1.492e-07
49.2957	0.405487	1.49384e-07
49.4178	0.405731	1.41571e-07
49.5399	0.408844	1.54144e-07
49.6619	0.410309	1.55426e-07
49.784	0.41217	1.45142e-07
49.9061	0.416046	1.50269e-07
50.0281	0.417511	1.51154e-07
50.1502	0.419739	1.44653e-07
50.2723	0.422821	1.51764e-07
50.3943	0.425049	1.41998e-07
50.5164	0.426208	1.41998e-07
50.6385	0.42984	1.41296e-07
50.7606	0.431335	1.40564e-07
50.8826	0.433411	1.39008e-07
51.0047	0.438812	1.52039e-07
51.1268	0.43927	1.42334e-07
51.2488	0.440186	1.49109e-07
51.3709	0.445007	1.50482e-07
51.493	0.446503	1.48285e-07
51.615	0.446838	1.47034e-07
51.7371	0.452423	1.54968e-07
51.8592	0.453644	1.52618e-07
51.9813	0.45459	1.41144e-07
52.1033	0.458313	1.48376e-07
52.2254	0.4617	1.51489e-07
52.3475	0.462921	1.43433e-07
52.4695	0.463623	1.48346e-07
52.5916	0.469116	1.54724e-07
52.7137	0.468903	1.54541e-07
52.8357	0.470947	1.47247e-07
52.9578	0.475891	1.56006e-07
53.0799	0.476929	1.52069e-07
53.202	0.478668	1.47919e-07
53.324	0.483307	1.57806e-07
53.4461	0.484619	1.51306e-07
53.5682	0.488403	1.57562e-07
53.6902	0.491394	1.54724e-07
53.8123	0.49115	1.55396e-07
53.9344	0.494537	1.51276e-07
54.0564	0.498047	1.60461e-07
54.1785	0.500305	1.57227e-07
54.3006	0.503479	1.60797e-07
54.4227	0.505676	1.6272e-07
54.5447	0.505859	1.5564e-07
54.6668	0.510071	1.60828e-07
54.7889	0.513367	1.70319e-07
54.9109	0.513092	1.57074e-07
55.033	0.518036	1.65436e-07
55.1551	0.520447	1.66962e-07
55.2771	0.522156	1.58356e-07
55.3992	0.524872	1.63635e-07
55.5213	0.524597	1.34796e-07
55.6434	0.520142	1.23077e-07
55.7654	0.517609	1.09192e-07
55.8875	0.516968	1.09863e-07
56.0096	0.513947	9.61914e-08
56.1316	0.510773	9.23157e-08
56.2537	0.509613	9.765625E-08
56.3758	0.508118	9.198e-08
56.4978	0.502869	7.71179e-08
56.6199	0.502411	8.05359e-08
56.742	0.500214	7.61108e-08
56.8641	0.495941	6.70471e-08
56.9861	0.494507	6.92749e-08
57.1082	0.491302	6.56433e-08
57.2303	0.487976	5.36804e-08
57.3523	0.487427	5.859375E-08
57.4744	0.484283	5.98755e-08
57.5965	0.480225	5.76477e-08
57.7185	0.479034	5.08728e-08
57.8406	0.475922	4.79736e-08
57.9627	0.472961	4.63867e-08
58.0848	0.471802	4.99268e-08
58.2068	0.46817	3.98254e-08
58.3289	0.465424	4.245e-08
58.451	0.465485	4.44946e-08
58.573	0.461365	3.70789e-08
58.6951	0.457489	2.63367e-08
58.8172	0.457397	3.87268e-08
58.9392	0.454132	3.69873e-08
59.0613	0.449585	2.62146e-08
59.1834	0.449219	3.15552e-08
59.3055	0.447083	3.15247e-08
59.4275	0.44278	2.71301e-08
59.5496	0.440247	2.45361e-08
59.6717	0.440216	3.17078e-08
59.7937	0.435303	2.27966e-08
59.9158	0.432281	1.70288e-08
60.0379	0.4328	2.20337e-08
60.1599	0.428131	2.26135e-08
60.282	0.426239	1.55029e-08
60.4041	0.425323	2.67944e-08
60.5262	0.420868	1.80054e-08
60.6482	0.419922	2.51465e-08
60.7703	0.417969	1.78223e-08
60.8924	0.414124	1.35193e-08
61.0144	0.4133	1.6449e-08
61.1365	0.410858	1.94397e-08
61.2586	0.407135	1.71509e-08
61.3806	0.40625	1.88293e-08
61.5027	0.403656	1.75781e-08
61.6248	0.399109	5.95093e-09
61.7469	0.398682	1.08337e-08
61.8689	0.396637	1.18408e-08
61.991	0.392975	6.86646e-09
62.1131	0.391022	1.05896e-08
62.2351	0.389557	1.14746e-08
62.3572	0.385834	1.7395e-09
62.4793	0.383514	4.97437e-09
62.6013	0.383362	8.27026e-09
62.7234	0.378906	1.08032e-08
62.8455	0.376221	4.76074e-09
62.9676	0.375854	1.11084e-08
63.0896	0.372986	7.93457e-09
63.2117	0.369293	5.64575e-09
63.3338	0.36853	1.01318e-08
63.4558	0.366821	9.09424e-09
63.5779	0.361786	-2.65503e-09
63.7	0.361145	2.01416e-09
63.822	0.359436	7.04956e-09
63.9441	0.354309	-2.19727e-09
64.0662	0.352448	4.60815e-09
64.1883	0.349304	-2.71606e-09
64.3103	0.346344	-5.09644e-09
64.4324	0.345642	-5.64575e-09
64.5545	0.342316	-8.54492e-09
64.6765	0.339874	-7.75146e-09
64.7986	0.338531	-1.34277e-09
64.9207	0.33548	-3.05176e-10
65.0427	0.332336	-1.29395e-08
65.1648	0.33075	-1.12e-08
65.2869	0.327393	-1.29089e-08
65.409	0.324188	-2.20947e-08
65.531	0.324982	-9.30786e-09
65.6531	0.319702	-1.96228e-08
65.7752	0.316254	-1.58081e-08
65.8972	0.316132	-1.35498e-08
66.0193	0.312531	-1.84937e-08
66.1414	0.307953	-2.20642e-08
66.2634	0.307922	-1.84937e-08
66.3855	0.305695	-1.91956e-08
66.5076	0.301147	-2.56348e-08
66.6297	0.300049	-2.10266e-08
66.7517	0.298676	-2.33154e-08
66.8738	0.294434	-2.18201e-08
66.9959	0.290771	-2.95105e-08
67.1179	0.291718	-3.23181e-08
67.24	0.286407	-3.15247e-08
67.3621	0.283112	-3.515625E-08
67.4841	0.283783	-2.50549e-08
67.6062	0.279602	-3.70483e-08
67.7283	0.278778	-3.7323e-08
67.8504	0.275909	-3.14636e-08
67.9724	0.271973	-4.64783e-08
68.0945	0.271271	-3.72009e-08
68.2166	0.269836	-2.63062e-08
68.3386	0.266632	-4.01917e-08
68.4607	0.264984	-3.72314e-08
68.5828	0.262604	-3.80859e-08
68.7048	0.258698	-3.77502e-08
68.8269	0.256836	-4.8584e-08
68.949	0.255646	-3.97339e-08
69.0711	0.249207	-4.77905e-08
69.1931	0.249573	-4.22668e-08
69.3152	0.248169	-4.10767e-08
69.4373	0.24292	-5.66711e-08
69.5593	0.242981	-4.23584e-08
69.6814	0.240326	-4.6051e-08
69.8035	0.237579	-4.83704e-08
69.9255	0.235413	-4.72717e-08
70.0476	0.234467	-4.80957e-08
70.1697	0.229584	-5.76172e-08
70.2918	0.22702	-5.13611e-08
70.4138	0.227448	-4.00391e-08
70.5359	0.224457	-4.80042e-08
70.658	0.220032	-5.39551e-08
70.78	0.22049	-5.13611e-08
70.9021	0.217987	-4.46777e-08
71.0242	0.213379	-5.74036e-08
71.1462	0.212006	-4.71497e-08
71.2683	0.209961	-4.64783e-08
71.3904	0.205566	-5.76172e-08
71.5125	0.204254	-5.19714e-08
71.6345	0.200867	-5.85632e-08
71.7566	0.197601	-5.79834e-08
71.8787	0.197449	-5.10254e-08
72.0007	0.193634	-6.10352e-08
72.1228	0.190247	-6.02722e-08
72.2449	0.189392	-6.43311e-08
72.3669	0.185944	-6.72302e-08
72.489	0.182678	-6.20422e-08
72.6111	0.183472	-6.06079e-08
72.7332	0.178253	-6.06995e-08
72.8552	0.174622	-6.82678e-08
72.9773	0.175659	-5.71899e-08
73.0994	0.171509	-6.50635e-08
73.2214	0.166779	-6.82068e-08
73.3435	0.168152	-6.01501e-08
73.4656	0.163727	-6.61011e-08
73.5876	0.15918	-7.20215e-08
73.7097	0.159332	-5.91125e-08
73.8318	0.156921	-6.93054e-08
73.9539	0.152954	-8.16956e-08
74.0759	0.151794	-6.93359e-08
74.198	0.149994	-6.64368e-08
74.3201	0.145996	-7.1228e-08
74.4421	0.142365	-7.547e-08
74.5642	0.142212	-6.5033e-08
74.6863	0.138763	-7.56226e-08
74.8083	0.134979	-8.23975e-08
74.9304	0.135193	-6.99158e-08
75.0525	0.13092	-8.01392e-08
75.1746	0.127533	-8.08411e-08
75.2966	0.128723	-7.42493e-08
75.4187	0.123779	-7.48901e-08
75.5408	0.122681	-7.07703e-08
75.6628	0.120239	-7.82471e-08
75.7849	0.116486	-7.80334e-08
75.907	0.11554	-7.78503e-08
76.029	0.113251	-7.27844e-08
76.1511	0.110107	-7.48291e-08
76.2732	0.108704	-7.33337e-08
76.3953	0.106628	-7.52258e-08
76.5173	0.101898	-7.60803e-08
76.6394	0.101105	-7.1991e-08
76.7615	0.0994263	-7.26624e-08
76.8835	0.0936584	-8.64563e-08
77.0056	0.0940552	-7.94983e-08
77.1277	0.0913391	-7.08923e-08
77.2497	0.0871887	-8.52356e-08
77.3718	0.0860291	-7.25708e-08
77.4939	0.0856018	-7.59583e-08
77.616	0.0810852	-8.44727e-08
77.738	0.0794983	-7.54395e-08
77.8601	0.0785217	-7.08313e-08
77.9822	0.0740967	-7.901e-08
78.1042	0.0714111	-7.93762e-08
78.2263	0.0712585	-6.64368e-08
78.3484	0.0684814	-6.9397e-08
78.4704	0.0640564	-7.76367e-08
78.5925	0.06427	-7.55615e-08
78.7146	0.0612793	-7.94373e-08
78.8367	0.0570984	-7.83997e-08
78.9587	0.0563354	-7.54089e-08
79.0808	0.0536804	-7.421875E-08
79.2029	0.0495026	-8.20618e-08
79.3249	0.0488892	-7.91931e-08
79.447	0.0446686	-7.73621e-08
79.5691	0.0427765	-8.75854e-08
79.6911	0.0404633	-7.80945e-08
79.8132	0.0374451	-8.23364e-08
79.9353	0.0353271	-8.39539e-08
80.0574	0.0325439	-7.44934e-08
80.1794	0.0301147	-8.36182e-08
80.3015	0.0278534	-8.95081e-08
80.4236	0.0255554	-8.48083e-08
80.5456	0.0231262	-8.27332e-08
80.6677	0.0201813	-8.41675e-08
80.7898	0.0184357	-7.52869e-08
80.9118	0.0153381	-8.93555e-08
81.0339	0.0134674	-9.39331e-08
81.156	0.0106659	-7.20215e-08
81.2781	0.00865784	-9.05762e-08
81.4001	0.00553894	-9.53064e-08
81.5222	0.00349426	-8.15125e-08
81.6443	0.000668335	-9.39331e-08
81.7663	-0.00153809	-1.0318e-07
81.8884	-0.00413818	-8.99353e-08
82.0105	-0.00646057	-8.75244e-08
82.1325	-0.00920105	-9.42993e-08
82.2546	-0.0111755	-9.55505e-08
82.3767	-0.0136871	-8.82263e-08
82.4988	-0.0159912	-1.00403e-07
82.6208	-0.0185516	-9.32617e-08
82.7429	-0.021283	-9.22852e-08
82.865	-0.0235626	-9.82056e-08
82.987	-0.0261475	-9.77173e-08
83.1091	-0.0283173	-9.12781e-08
83.2312	-0.0313232	-9.91516e-08
83.3532	-0.0350342	-9.90906e-08
83.4753	-0.035672	-9.60083e-08
83.5974	-0.0378754	-1.01807e-07
83.7195	-0.0402191	-8.84094e-08
83.8415	-0.0424988	-9.59473e-08
83.9636	-0.0458069	-9.58252e-08
84.0857	-0.0481628	-9.52759e-08
84.2077	-0.0497986	-9.55811e-08
84.3298	-0.0534668	-9.16748e-08
84.4519	-0.0544739	-1.01288e-07
84.5739	-0.056427	-9.82056e-08
84.696	-0.0622253	-1.06354e-07
84.8181	-0.0621643	-9.76257e-08
84.9402	-0.0632935	-1.00006e-07
85.0622	-0.069397	-1.08337e-07
85.1843	-0.0691223	-9.66797e-08
85.3064	-0.0707397	-1.04126e-07
85.4284	-0.0743713	-1.00616e-07
85.5505	-0.0765991	-1.06598e-07
85.6726	-0.0777893	-9.96704e-08
85.7946	-0.0810852	-1.02753e-07
85.9167	-0.0845642	-1.09924e-07
86.0388	-0.0843201	-1.04584e-07
86.1609	-0.0871277	-1.07788e-07
86.2829	-0.0917664	-1.14624e-07
86.405	-0.0922852	-1.10809e-07
86.5271	-0.0941772	-1.09039e-07
86.6491	-0.0996399	-1.17218e-07
86.7712	-0.0995178	-1.12488e-07
86.8933	-0.10202	-1.11969e-07
87.0153	-0.106506	-1.25671e-07
87.1374	-0.106842	-1.15173e-07
87.2595	-0.110291	-1.16028e-07
87.3816	-0.113678	-1.32141e-07
87.5036	-0.114655	-1.23138e-07
87.6257	-0.117981	-1.26129e-07
87.7478	-0.121246	-1.36292e-07
87.8698	-0.121735	-1.25916e-07
87.9919	-0.125793	-1.34705e-07
88.114	-0.129364	-1.31622e-07
88.236	-0.130188	-1.38885e-07
88.3581	-0.13324	-1.43433e-07
88.4802	-0.137146	-1.46484e-07
88.6023	-0.136658	-1.49414e-07
88.7243	-0.141113	-1.51917e-07
88.8464	-0.144012	-1.55884e-07
88.9685	-0.143494	-1.53656e-07
89.0905	-0.147797	-1.58539e-07
89.2126	-0.152374	-1.6925e-07
89.3347	-0.151367	-1.63147e-07
89.4567	-0.155426	-1.74896e-07
89.5788	-0.159607	-1.80176e-07
89.7009	-0.159241	-1.66962e-07
89.823	-0.162109	-1.86279e-07
89.945	-0.167877	-2.03918e-07
90.0671	-0.166992	-1.89941e-07
90.1892	-0.169556	-1.96899e-07
90.3112	-0.173401	-2.13898e-07
90.4333	-0.175018	-2.05872e-07
90.5554	-0.176453	-2.10083e-07
90.6774	-0.181152	-2.25342e-07
90.7995	-0.184875	-2.33917e-07
90.9216	-0.184052	-2.37396e-07
91.0437	-0.18808	-2.5061e-07
91.1657	-0.191956	-2.60834e-07
91.2878	-0.190216	-2.53967e-07
91.4099	-0.196442	-2.75757e-07
91.5319	-0.199646	-2.78198e-07
91.654	-0.19751	-2.76855e-07
91.7761	-0.202026	-2.95532e-07
91.8981	-0.202362	-3.06213e-07
92.0202	-0.206665	-4.15039e-07
92.1423	-0.209503	-4.36707e-07
92.2644	-0.211609	-4.50439e-07
92.3864	-0.213837	-4.64172e-07
92.5085	-0.216095	-4.89502e-07
92.6306	-0.218658	-5.0415e-07
92.7526	-0.221008	-5.18799e-07
92.8747	-0.223785	-5.52063e-07
92.9968	-0.226318	-5.57556e-07
93.1188	-0.228455	-5.85632e-07
93.2409	-0.231201	-6.10046e-07
93.363	-0.232819	-6.30798e-07
93.4851	-0.23587	-6.56128e-07
93.6071	-0.238617	-7.04041e-07
93.7292	-0.241028	-7.20215e-07
93.8513	-0.242554	-7.47681e-07
93.9733	-0.245453	-7.92236e-07
94.0954	-0.247742	-8.21533e-07
94.2175	-0.250519	-8.49609e-07
94.3395	-0.253357	-8.88977e-07
94.4616	-0.25528	-9.35059e-07
94.5837	-0.257141	-9.67102e-07
94.7058	-0.259766	-1.01898e-06
94.8278	-0.262177	-1.07086e-06
94.9499	-0.264771	-1.10291e-06
95.072	-0.267242	-1.16638e-06
95.194	-0.269745	-1.2326e-06
95.3161	-0.272308	-1.27258e-06
95.4382	-0.273926	-1.32782e-06
95.5602	-0.277496	-1.41449e-06
95.6823	-0.278839	-1.46423e-06
95.8044	-0.280518	-1.51917e-06
95.9265	-0.284851	-1.63483e-06
96.0485	-0.287048	-1.70074e-06
96.1706	-0.289673	-1.79657e-06
96.2927	-0.291321	-1.88629e-06
96.4147	-0.294128	-1.97418e-06
96.5368	-0.296448	-2.08313e-06
96.6589	-0.299347	-2.19055e-06
96.7809	-0.301056	-2.29431e-06
96.903	-0.303284	-2.41089e-06
97.0251	-0.306488	-2.5528e-06
97.1472	-0.308411	-2.67578e-06
97.2692	-0.310944	-2.81708e-06
97.3913	-0.313416	-2.97302e-06
97.5134	-0.315216	-3.1134e-06
97.6354	-0.319061	-3.32031e-06
97.7575	-0.320831	-3.48206e-06
97.8796	-0.323639	-3.65601e-06
98.0016	-0.326538	-3.85742e-06
98.1237	-0.328369	-4.05884e-06
98.2458	-0.33075	-4.27551e-06
98.3679	-0.333527	-4.51355e-06
98.4899	-0.336182	-4.76379e-06
98.612	-0.33844	-5.00793e-06
98.7341	-0.341187	-5.27954e-06
98.8561	-0.343628	-5.57861e-06
98.9782	-0.3461	-5.87463e-06
99.1003	-0.348633	-6.1676e-06
99.2223	-0.350311	-6.52161e-06
99.3444	-0.352783	-6.86646e-06
99.4665	-0.355835	-7.23572e-06
99.5886	-0.357483	-7.6416e-06
99.7106	-0.359802	-8.06885e-06
99.8327	-0.362885	-8.5083e-06
99.9548	-0.365295	-8.99353e-06
100.077	-0.367584	-9.51233e-06
100.199	-0.370209	-1.00067e-05
100.321	-0.372833	-1.05743e-05
100.443	-0.375244	-1.11694e-05
100.565	-0.376801	-1.17706e-05
100.687	-0.379242	-1.24329e-05
100.809	-0.382568	-1.31165e-05
100.931	-0.383911	-1.38367e-05
101.053	-0.386932	-1.46271e-05
101.175	-0.389801	-1.54205e-05
101.298	-0.391296	-1.62567e-05
101.42	-0.394897	-1.71143e-05
101.542	-0.396942	-1.80176e-05
101.664	-0.398621	-1.89423e-05
101.786	-0.40094	-1.99158e-05
101.908	-0.404053	-2.08771e-05
102.03	-0.406189	-2.18628e-05
102.152	-0.4086	-2.28607e-05
102.274	-0.411285	-2.38434e-05
102.396	-0.413727	-2.48016e-05
102.518	-0.416046	-2.57538e-05
102.64	-0.418945	-2.66449e-05
102.762	-0.421234	-2.75085e-05
102.884	-0.423462	-2.83173e-05
103.007	-0.425537	-2.9068e-05
103.129	-0.428711	-2.97302e-05
103.251	-0.430878	-3.03436e-05
103.373	-0.433075	-3.08777e-05
103.495	-0.436371	-3.13416e-05
103.617	-0.438782	-3.17169e-05
103.739	-0.440948	-3.20587e-05
103.861	-0.443604	-3.2309e-05
103.983	-0.445953	-3.24951e-05
104.105	-0.447723	-3.2666e-05
104.227	-0.450623	-3.27393e-05
104.349	-0.453247	-3.27637e-05
104.471	-0.455292	-3.27911e-05
104.593	-0.458313	-3.27362e-05
104.715	-0.460236	-3.26752e-05
104.838	-0.462982	-3.25684e-05
104.96	-0.465607	-3.24249e-05
105.082	-0.467468	-3.22693e-05
105.204	-0.47049	-3.20831e-05
105.326	-0.472229	-3.18787e-05
105.448	-0.474731	-3.1665e-05
105.57	-0.477814	-3.14636e-05
105.692	-0.480225	-3.12408e-05
105.814	-0.481964	-3.10242e-05
105.936	-0.485138	-3.08228e-05
106.058	-0.487579	-3.06183e-05
106.18	-0.490082	-3.04291e-05
106.302	-0.49234	-3.0246e-05
106.424	-0.49472	-3.00842e-05
106.547	-0.497223	-2.99438e-05
106.669	-0.499268	-2.98431e-05
106.791	-0.501678	-2.97302e-05
106.913	-0.5047	-2.96509e-05
107.035	-0.50647	-2.96143e-05
107.157	-0.50885	-2.95624e-05
107.279	-0.511719	-2.9538e-05
107.401	-0.514282	-2.95685e-05
107.523	-0.516571	-2.96143e-05
107.645	-0.519073	-2.96814e-05
107.767	-0.521729	-2.97516e-05
107.889	-0.524109	-2.9895e-05
108.011	-0.525848	-2.99896e-05
108.133	-0.528809	-3.01666e-05
108.256	-0.53125	-3.03375e-05
108.378	-0.533386	-3.04993e-05
108.5	-0.535553	-3.07068e-05
108.622	-0.538269	-3.09326e-05
108.744	-0.541138	-3.11462e-05
108.866	-0.543091	-3.14056e-05
108.988	-0.545349	-3.16681e-05
109.11	-0.548553	-3.19336e-05
109.232	-0.551025	-3.22113e-05
109.354	-0.552673	-3.25043e-05
109.476	-0.555847	-3.27972e-05
109.598	-0.558197	-3.31085e-05
109.72	-0.560181	-3.3429e-05
109.842	-0.562927	-3.37524e-05
109.965	-0.565247	-3.41095e-05
110.087	-0.567291	-3.44543e-05
110.209	-0.569702	-3.47992e-05
110.331	-0.572266	-3.51593e-05
110.453	-0.574615	-3.55377e-05
110.575	-0.577454	-3.59039e-05
110.697	-0.580017	-3.63159e-05
110.819	-0.582428	-3.66974e-05
110.941	-0.585205	-3.7088e-05
111.063	-0.587433	-3.74603e-05
111.185	-0.589264	-3.7915e-05
111.307	-0.591614	-3.83209e-05
111.429	-0.594177	-3.87482e-05
111.551	-0.59729	-3.92242e-05
111.673	-0.599884	-3.96576e-05
111.796	-0.602173	-4.00696e-05
111.918	-0.603882	-4.05975e-05
112.04	-0.607147	-4.10736e-05
112.162	-0.609344	-4.15344e-05
112.284	-0.611572	-4.19922e-05
112.406	-0.614471	-4.25415e-05
112.528	-0.61618	-4.30298e-05
112.65	-0.619293	-4.35486e-05
112.772	-0.621765	-4.40674e-05
112.894	-0.623749	-4.45862e-05
113.016	-0.626007	-4.50745e-05
113.138	-0.628326	-4.56238e-05
113.26	-0.6315	-4.61426e-05
113.382	-0.633331	-4.67224e-05
113.505	-0.635773	-4.72412e-05
113.627	-0.638428	-4.7821e-05
113.749	-0.641388	-4.84009e-05
113.871	-0.643738	-4.89807e-05
113.993	-0.646179	-4.95605e-05
114.115	-0.647766	-5.01709e-05
114.237	-0.650238	-5.07507e-05
114.359	-0.653259	-5.13611e-05
114.481	-0.655792	-5.2002e-05
114.603	-0.658295	-5.26428e-05
114.725	-0.6604	-5.32532e-05
114.847	-0.662567	-5.39246e-05
114.969	-0.664917	-5.45654e-05
115.091	-0.668091	-5.51758e-05
115.214	-0.670319	-5.58472e-05
115.336	-0.672729	-5.65491e-05
115.458	-0.674652	-5.72205e-05
115.58	-0.677216	-5.78918e-05
115.702	-0.679657	-5.859375E-05
115.824	-0.682678	-5.93262e-05
115.946	-0.684875	-6.00586e-05
116.068	-0.687439	-6.07605e-05
116.19	-0.68924	-6.14929e-05
116.312	-0.692474	-6.22559e-05
116.434	-0.694427	-6.30188e-05
116.556	-0.697296	-6.37817e-05
116.678	-0.699707	-6.45752e-05
116.8	-0.701599	-6.53687e-05
116.922	-0.704041	-6.61926e-05
117.045	-0.70639	-6.70166e-05
117.167	-0.709351	-6.78406e-05
117.289	-0.711639	-6.8634e-05
117.411	-0.714355	-6.9519e-05
117.533	-0.716461	-7.03735e-05
117.655	-0.718719	-7.1228e-05
117.777	-0.720917	-7.21436e-05
117.899	-0.723389	-7.30896e-05
118.021	-0.72641	-7.39441e-05
118.143	-0.729004	-7.48291e-05
118.265	-0.731476	-7.58362e-05
118.387	-0.733246	-7.67517e-05
118.509	-0.735535	-7.76672e-05
118.631	-0.73877	-7.87354e-05
118.754	-0.741211	-7.96814e-05
118.876	-0.743622	-8.05969e-05
118.998	-0.745483	-8.1665e-05
119.12	-0.74765	-8.26721e-05
119.242	-0.750427	-8.36792e-05
119.364	-0.754089	-8.48083e-05
119.486	-0.75592	-8.58154e-05
119.608	-0.758972	-8.68835e-05
119.73	-0.759888	-8.79822e-05
119.852	-0.762634	-8.91418e-05
119.974	-0.765381	-9.021e-05
120.096	-0.768127	-9.13391e-05
120.218	-0.770569	-9.24988e-05
120.34	-0.772705	-9.36584e-05
120.463	-0.775146	-9.48181e-05
120.585	-0.777893	-9.59778e-05
120.707	-0.78064	-9.71375e-05
120.829	-0.782776	-9.83276e-05
120.951	-0.785217	-9.95483e-05
121.073	-0.787354	-0.000100769
121.195	-0.7901	-0.00010202
121.317	-0.792236	-0.000103271
121.439	-0.795288	-0.000104523
121.561	-0.797424	-0.000105927
121.683	-0.800476	-0.000107208
121.805	-0.802612	-0.000108551
121.927	-0.804749	-0.000109894
122.049	-0.80658	-0.000111328
122.172	-0.809326	-0.00011264
122.294	-0.812378	-0.000114075
122.416	-0.814514	-0.000115509
122.538	-0.816345	-0.000116882
122.66	-0.819702	-0.000118378
122.782	-0.821533	-0.000119751
122.904	-0.824585	-0.000121216
123.026	-0.827026	-0.000122742
123.148	-0.829773	-0.000124268
123.27	-0.830994	-0.000125732
123.392	-0.834656	-0.000127258
123.514	-0.836792	-0.000128815
123.636	-0.839233	-0.000130341
123.758	-0.841675	-0.000131958
123.88	-0.844116	-0.000133514
124.003	-0.845642	-0.000135071
124.125	-0.848083	-0.000136658
124.247	-0.85083	-0.000138245
124.369	-0.853882	-0.000139832
124.491	-0.856323	-0.000141449
124.613	-0.858765	-0.000143127
124.735	-0.860291	-0.000144745
124.857	-0.863037	-0.000146362
124.979	-0.866089	-0.00014801
125.101	-0.868835	-0.000149658
125.223	-0.870972	-0.000151306
125.345	-0.873108	-0.000153015
125.467	-0.875244	-0.000154694
125.589	-0.87738	-0.000156342
125.712	-0.879822	-0.000158173
125.834	-0.882874	-0.000159851
125.956	-0.885315	-0.000161499
126.078	-0.887451	-0.000163269
126.2	-0.889893	-0.000164917
126.322	-0.892334	-0.000166656
126.444	-0.894775	-0.000168457
126.566	-0.898132	-0.000170135
126.688	-0.899963	-0.000171844
126.81	-0.90271	-0.000173584
126.932	-0.905457	-0.000175385
127.054	-0.906982	-0.000177124
127.176	-0.909424	-0.000178925
127.298	-0.912476	-0.000180664
127.421	-0.914917	-0.000182434
127.543	-0.916443	-0.000184265
127.665	-0.9198	-0.000186035
127.787	-0.921631	-0.000187775
127.909	-0.924377	-0.000189545
128.031	-0.927429	-0.000191345
128.153	-0.92926	-0.000193146
128.275	-0.931091	-0.000195007
128.397	-0.934143	-0.000196838
128.519	-0.935974	-0.000198578
128.641	-0.939636	-0.0002005
128.763	-0.941162	-0.000202301
128.885	-0.943909	-0.00020401
129.007	-0.94574	-0.000205841
129.129	-0.948792	-0.000207672
129.252	-0.951538	-0.000209473
129.374	-0.954285	-0.000211304
129.496	-0.956116	-0.000213074
129.618	-0.958252	-0.000214874
129.74	-0.960999	-0.000216675
129.862	-0.963745	-0.000218475
129.984	-0.965271	-0.000220245
130.106	-0.967712	-0.000222076
130.228	-0.970459	-0.000223907
130.35	-0.973511	-0.000225708
130.472	-0.975342	-0.0002276
130.594	-0.9729	-0.000203979
130.716	-0.970459	-0.000187988
130.838	-0.968018	-0.000175598
130.961	-0.965271	-0.000165375
131.083	-0.963745	-0.000156586
131.205	-0.961914	-0.000148804
131.327	-0.958557	-0.000141846
131.449	-0.955811	-0.000135468
131.571	-0.953674	-0.000129669
131.693	-0.951233	-0.000124298
131.815	-0.949097	-0.000119293
131.937	-0.946655	-0.000114594
132.059	-0.944519	-0.000110229
132.181	-0.941162	-0.000106049
132.303	-0.938416	-0.00010202
132.425	-0.93689	-9.82361e-05
132.547	-0.934448	-9.46655e-05
132.67	-0.931702	-9.12781e-05
132.792	-0.929565	-8.80737e-05
132.914	-0.926819	-8.49304e-05
133.036	-0.924072	-8.19397e-05
133.158	-0.921936	-7.90405e-05
133.28	-0.9198	-7.63245e-05
133.402	-0.917358	-7.36084e-05
133.524	-0.914307	-7.10449e-05
133.646	-0.911865	-6.85425e-05
133.768	-0.909119	-6.61926e-05
133.89	-0.907593	-6.39038e-05
134.012	-0.904846	-6.16455e-05
134.134	-0.903015	-5.94482e-05
134.256	-0.899353	-5.73425e-05
134.379	-0.896912	-5.53894e-05
134.501	-0.89447	-5.33752e-05
134.623	-0.892944	-5.14832e-05
134.745	-0.889587	-4.96216e-05
134.867	-0.888062	-4.77295e-05
134.989	-0.884705	-4.599e-05
135.111	-0.882263	-4.43115e-05
135.233	-0.879822	-4.2572e-05
135.355	-0.878601	-4.09546e-05
135.477	-0.875244	-3.9389e-05
135.599	-0.873718	-3.78052e-05
135.721	-0.870056	-3.63129e-05
135.843	-0.867615	-3.48236e-05
135.965	-0.864868	-3.33801e-05
136.087	-0.863647	-3.19946e-05
136.21	-0.861206	-3.06305e-05
136.332	-0.857849	-2.92389e-05
136.454	-0.855408	-2.79236e-05
136.576	-0.853271	-2.66571e-05
136.698	-0.85022	-2.53815e-05
136.82	-0.848694	-2.41882e-05
136.942	-0.846863	-2.29919e-05
137.064	-0.843201	-2.18079e-05
137.186	-0.841064	-2.06787e-05
137.308	-0.838928	-1.95526e-05
137.43	-0.836792	-1.84387e-05
137.552	-0.83374	-1.73889e-05
137.674	-0.831299	-1.63635e-05
137.796	-0.829163	-1.5329e-05
137.919	-0.826721	-1.4328e-05
138.041	-0.82428	-1.33911e-05
138.163	-0.822144	-1.24146e-05
138.285	-0.819702	-1.14868e-05
138.407	-0.816956	-1.05957e-05
138.529	-0.814209	-9.69849e-06
138.651	-0.812683	-8.82874e-06
138.773	-0.809326	-7.9895e-06
138.895	-0.8078	-7.16248e-06
139.017	-0.804749	-6.3446e-06
139.139	-0.802002	-5.60608e-06
139.261	-0.799255	-4.80347e-06
139.383	-0.796204	-4.02832e-06
139.505	-0.794983	-3.33252e-06
139.628	-0.793152	-2.62451e-06
139.75	-0.7901	-1.91345e-06
139.872	-0.786743	-1.24512e-06
139.994	-0.784607	-5.70679e-07
140.116	-0.783081	1.0376e-07
140.238	-0.779724	7.41577e-07
140.36	-0.777893	1.32751e-06
140.482	-0.774841	2.00195e-06
140.604	-0.772705	2.59399e-06
140.726	-0.769653	3.15552e-06
140.848	-0.769348	3.7384e-06
140.97	-0.765076	4.26331e-06
141.092	-0.763855	4.78516e-06
141.214	-0.760498	5.33752e-06
141.336	-0.757751	5.83496e-06
141.459	-0.75592	6.32019e-06
141.581	-0.754089	6.78406e-06
141.703	-0.751343	7.26013e-06
141.825	-0.748932	7.68433e-06
141.947	-0.745483	8.11157e-06
142.069	-0.743469	8.55713e-06
142.191	-0.741547	8.91113e-06
142.313	-0.739227	9.35364e-06
142.435	-0.736481	9.74731e-06
142.557	-0.734314	1.01105e-05
142.679	-0.730774	1.05011e-05
142.801	-0.728516	1.08704e-05
142.923	-0.726013	1.11603e-05
143.045	-0.72467	1.15082e-05
143.168	-0.721924	1.18286e-05
143.29	-0.718811	1.21185e-05
143.412	-0.716187	1.24329e-05
143.534	-0.71402	1.27258e-05
143.656	-0.711853	1.29669e-05
143.778	-0.709839	1.32507e-05
143.9	-0.707428	1.35101e-05
144.022	-0.704712	1.37146e-05
144.144	-0.701935	1.39801e-05
144.266	-0.699219	1.42395e-05
144.388	-0.697937	1.44226e-05
144.51	-0.694672	1.46423e-05
144.632	-0.692566	1.48865e-05
144.754	-0.689972	1.50726e-05
144.877	-0.687286	1.51947e-05
144.999	-0.685608	1.54449e-05
145.121	-0.682098	1.55914e-05
145.243	-0.680328	1.57379e-05
145.365	-0.677734	1.59515e-05
145.487	-0.675354	1.60706e-05
145.609	-0.672607	1.62048e-05
145.731	-0.669891	1.63696e-05
145.853	-0.668213	1.64795e-05
145.975	-0.665649	1.66046e-05
146.097	-0.663177	1.67145e-05
146.219	-0.661224	1.68335e-05
146.341	-0.658844	1.69342e-05
146.463	-0.656311	1.70258e-05
146.586	-0.653931	1.71295e-05
146.708	-0.651489	1.72028e-05
146.83	-0.6492	1.73157e-05
146.952	-0.646393	1.73706e-05
147.074	-0.643982	1.74377e-05
147.196	-0.640656	1.75323e-05
147.318	-0.639252	1.75781e-05
147.44	-0.636658	1.763e-05
147.562	-0.633392	1.76849e-05
147.684	-0.63205	1.77307e-05
147.806	-0.629486	1.7749e-05
147.928	-0.626038	1.78101e-05
148.05	-0.623657	1.78589e-05
148.172	-0.622223	1.78802e-05
148.294	-0.618744	1.7926e-05
148.417	-0.617249	1.79626e-05
148.539	-0.615021	1.79443e-05
148.661	-0.611816	1.79871e-05
148.783	-0.609802	1.80115e-05
148.905	-0.607666	1.796875E-05
149.027	-0.604675	1.80115e-05
149.149	-0.602783	1.80084e-05
149.271	-0.60025	1.79962e-05
149.393	-0.59729	1.80115e-05
149.515	-0.595154	1.80237e-05
149.637	-0.592438	1.80023e-05
149.759	-0.590027	1.80115e-05
149.881	-0.587555	1.79993e-05
150.003	-0.585785	1.79718e-05
150.126	-0.582886	1.79962e-05
150.248	-0.580139	1.7981e-05
150.37	-0.577637	1.79657e-05
150.492	-0.575531	1.79657e-05
150.614	-0.572906	1.79474e-05
150.736	-0.570038	1.79138e-05
150.858	-0.568604	1.79108e-05
150.98	-0.565613	1.79138e-05
151.102	-0.562805	1.78619e-05
151.224	-0.561249	1.78497e-05
151.346	-0.558472	1.78497e-05
151.468	-0.555573	1.77948e-05
151.59	-0.55368	1.77826e-05
151.712	-0.55127	1.77734e-05
151.835	-0.548248	1.7746e-05
151.957	-0.546265	1.77155e-05
152.079	-0.543854	1.77094e-05
152.201	-0.540894	1.76666e-05
152.323	-0.538269	1.76086e-05
152.445	-0.536469	1.76208e-05
152.567	-0.533661	1.75934e-05
152.689	-0.53186	1.75232e-05
152.811	-0.529144	1.75354e-05
152.933	-0.526062	1.74866e-05
153.055	-0.523834	1.74652e-05
153.177	-0.521637	1.74194e-05
153.299	-0.518799	1.73767e-05
153.421	-0.516418	1.7337e-05
153.543	-0.514008	1.73035e-05
153.666	-0.511658	1.72394e-05
153.788	-0.509003	1.72028e-05
153.91	-0.506805	1.71539e-05
154.032	-0.504425	1.70959e-05
154.154	-0.50174	1.70624e-05
154.276	-0.499969	1.70227e-05
154.398	-0.496979	1.69647e-05
154.52	-0.494476	1.68915e-05
154.642	-0.49231	1.68671e-05
154.764	-0.489899	1.67877e-05
154.886	-0.487244	1.67236e-05
155.008	-0.485413	1.66748e-05
155.13	-0.482605	1.66138e-05
155.252	-0.479889	1.65314e-05
155.375	-0.477997	1.64795e-05
155.497	-0.475128	1.64368e-05
155.619	-0.472687	1.63208e-05
155.741	-0.470703	1.6272e-05
155.863	-0.467377	1.62262e-05
155.985	-0.465607	1.6098e-05
156.107	-0.463593	1.60339e-05
156.229	-0.460541	1.59607e-05
156.351	-0.458313	1.58752e-05
156.473	-0.456238	1.5799e-05
156.595	-0.453491	1.57166e-05
156.717	-0.451141	1.56281e-05
156.839	-0.448944	1.55518e-05
156.961	-0.446472	1.54602e-05
157.084	-0.444153	1.53687e-05
157.206	-0.441437	1.52832e-05
157.328	-0.438934	1.51886e-05
157.45	-0.43631	1.50909e-05
157.572	-0.43399	1.50208e-05
157.694	-0.431122	1.49231e-05
157.816	-0.42865	1.4801e-05
157.938	-0.426575	1.47278e-05
158.06	-0.423584	1.46271e-05
158.182	-0.421204	1.45142e-05
158.304	-0.419098	1.44318e-05
158.426	-0.416382	1.43311e-05
158.548	-0.41452	1.42303e-05
158.67	-0.411774	1.41144e-05
158.793	-0.409149	1.40381e-05
158.915	-0.407379	1.39221e-05
159.037	-0.404449	1.38031e-05
159.159	-0.402039	1.3736e-05
159.281	-0.400085	1.36169e-05
159.403	-0.397736	1.35223e-05
159.525	-0.394623	1.34216e-05
159.647	-0.392761	1.33057e-05
159.769	-0.390289	1.32141e-05
159.891	-0.387299	1.31134e-05
160.013	-0.385315	1.30005e-05
160.135	-0.38208	1.28998e-05
160.257	-0.380188	1.28113e-05
160.379	-0.378021	1.26923e-05
160.501	-0.375702	1.26007e-05
160.624	-0.373199	1.24969e-05
160.746	-0.370819	1.2384e-05
160.868	-0.368134	1.22925e-05
160.99	-0.365204	1.21979e-05
161.112	-0.363342	1.20911e-05
161.234	-0.36026	1.19873e-05
161.356	-0.358551	1.19019e-05
161.478	-0.355774	1.17859e-05
161.6	-0.352936	1.16943e-05
161.722	-0.351227	1.16058e-05
161.844	-0.348389	1.15021e-05
161.966	-0.345703	1.13892e-05
162.088	-0.343323	1.13129e-05
162.21	-0.340942	1.12335e-05
162.333	-0.338562	1.10992e-05
162.455	-0.336487	1.10138e-05
162.577	-0.333649	1.09222e-05
162.699	-0.331604	1.08154e-05
162.821	-0.329224	1.07361e-05
162.943	-0.326233	1.06354e-05
163.065	-0.324432	1.05438e-05
163.187	-0.321716	1.04584e-05
163.309	-0.318604	1.03638e-05
163.431	-0.316833	1.02753e-05
163.553	-0.314178	1.01929e-05
163.675	-0.311432	1.01044e-05
163.797	-0.309021	1.00128e-05
163.919	-0.306549	9.93652e-06
164.042	-0.304413	9.84497e-06
164.164	-0.301788	9.74426e-06
164.286	-0.299042	9.68323e-06
164.408	-0.29718	9.59167e-06
164.53	-0.294861	9.49402e-06
164.652	-0.292084	9.43909e-06
164.774	-0.290253	9.35059e-06
164.896	-0.287903	9.27429e-06
165.018	-0.284912	9.17664e-06
165.14	-0.282501	9.1217e-06
165.262	-0.280304	9.03931e-06
165.384	-0.277954	8.94165e-06
165.506	-0.27478	8.89587e-06
165.628	-0.272583	8.81958e-06
165.75	-0.270721	8.75549e-06
165.873	-0.267395	8.69141e-06
165.995	-0.264801	8.60291e-06
166.117	-0.263184	8.53882e-06
166.239	-0.260468	8.48389e-06
166.361	-0.258392	8.40454e-06
166.483	-0.255493	8.34656e-06
166.605	-0.253571	8.28247e-06
166.727	-0.25119	8.20923e-06
166.849	-0.248779	8.15735e-06
166.971	-0.246155	8.09326e-06
167.093	-0.24353	8.02307e-06
167.215	-0.241364	7.96509e-06
167.337	-0.237976	7.91931e-06
167.459	-0.235748	7.86438e-06
167.582	-0.233887	7.80029e-06
167.704	-0.230927	7.74536e-06
167.826	-0.228455	7.70264e-06
167.948	-0.226776	7.61719e-06
168.07	-0.224152	7.58362e-06
168.192	-0.221802	7.52258e-06
168.314	-0.218719	7.4585e-06
168.436	-0.21701	7.41882e-06
168.558	-0.2146	7.36084e-06
168.68	-0.211334	7.30591e-06
168.802	-0.208923	7.25708e-06
168.924	-0.207062	7.21436e-06
169.046	-0.204346	7.16553e-06
169.168	-0.201324	7.13501e-06
169.291	-0.199371	7.07703e-06
169.413	-0.197327	7.02209e-06
169.535	-0.194244	6.99463e-06
169.657	-0.191742	6.94275e-06
169.779	-0.190063	6.89087e-06
169.901	-0.187592	6.86035e-06
170.023	-0.184692	6.81763e-06
170.145	-0.182556	6.78406e-06
170.267	-0.180298	6.73523e-06
170.389	-0.17804	6.70471e-06
170.511	-0.174744	6.66199e-06
170.633	-0.172455	6.59485e-06
170.755	-0.170746	6.5979e-06
170.877	-0.167419	6.55518e-06
171	-0.164825	6.52466e-06
171.122	-0.163513	6.52466e-06
171.244	-0.160828	6.45752e-06
171.366	-0.158417	6.43005e-06
171.488	-0.155884	6.39954e-06
171.61	-0.153442	6.36292e-06
171.732	-0.150848	6.3385e-06
171.854	-0.148041	6.31714e-06
171.976	-0.145538	6.28357e-06
172.098	-0.142792	6.2561e-06
172.22	-0.141418	6.23474e-06
172.342	-0.138733	6.18591e-06
172.464	-0.136078	6.17676e-06
172.586	-0.133301	6.15234e-06
172.708	-0.13092	6.11877e-06
172.831	-0.129089	6.10046e-06
172.953	-0.125824	6.08521e-06
173.075	-0.123383	6.04553e-06
173.197	-0.121246	6.02112e-06
173.319	-0.11911	6.00891e-06
173.441	-0.115814	6.01501e-06
173.563	-0.113708	5.97839e-06
173.685	-0.112061	5.93567e-06
173.807	-0.109528	5.92651e-06
173.929	-0.107147	5.90515e-06
174.051	-0.104553	5.86853e-06
174.173	-0.102112	5.86243e-06
174.295	-0.0991516	5.81665e-06
174.417	-0.0965576	5.80444e-06
174.54	-0.0940552	5.78308e-06
174.662	-0.0916748	5.77698e-06
174.784	-0.0894775	5.75562e-06
174.906	-0.0875854	5.74646e-06
175.028	-0.0842285	5.71594e-06
175.15	-0.0828857	5.71289e-06
175.272	-0.0798035	5.68542e-06
175.394	-0.077179	5.65186e-06
175.516	-0.0750122	5.63965e-06
175.638	-0.0722961	5.61218e-06
175.76	-0.0706482	5.60913e-06
175.882	-0.0671997	5.56946e-06
176.004	-0.0657654	5.58167e-06
176.126	-0.0625305	5.54504e-06
176.249	-0.0608826	5.49316e-06
176.371	-0.0579834	5.51453e-06
176.493	-0.0550232	5.49011e-06
176.615	-0.0536194	5.49622e-06
176.737	-0.0500793	5.4657e-06
176.859	-0.0477692	5.46265e-06
176.981	-0.0457886	5.45654e-06
177.103	-0.0431671	5.43518e-06
177.225	-0.0410065	5.41077e-06
177.347	-0.0384766	5.40466e-06
177.469	-0.0358734	5.36499e-06
177.591	-0.0330139	5.35278e-06
177.713	-0.0304565	5.36194e-06
177.835	-0.0277832	5.34668e-06
177.957	-0.0255493	5.32227e-06
178.08	-0.0239166	5.31616e-06
178.202	-0.0207336	5.3009e-06
178.324	-0.0188202	5.2887e-06
178.446	-0.0158997	5.27344e-06
178.568	-0.0135193	5.26733e-06
178.69	-0.0113708	5.22766e-06
178.812	-0.00884399	5.22156e-06
178.934	-0.00604858	5.21545e-06
179.056	-0.00368652	5.20325e-06
179.178	-0.00168762	5.17883e-06
179.3	0.000830078	5.17273e-06
179.422	0.00324097	5.15442e-06
179.544	0.00612793	5.14526e-06
179.666	0.00847473	5.14221e-06
179.789	0.0107635	5.1178e-06
179.911	0.0129333	5.10254e-06
180.033	0.0152557	5.09644e-06
180.155	0.0182068	5.08423e-06
180.277	0.0203491	5.05981e-06
180.399	0.0227173	5.06287e-06
180.521	0.025647	5.03845e-06