File: Edgar/20230821/20230821/electrochromic_setup_test/test_2_1_0p5_OCP/CV_2_b.txt
Time (s)	WE(1).Potential (V)	WE(1).Current (A)
254.256	-0.425018	7.82776e-07
254.378	-0.421387	1.37329e-06
254.5	-0.419434	1.74103e-06
254.622	-0.418091	2.00073e-06
254.744	-0.414642	2.21344e-06
254.866	-0.411957	2.35504e-06
254.988	-0.41095	2.46338e-06
255.111	-0.407196	2.5705e-06
255.233	-0.40506	2.66174e-06
255.355	-0.402679	2.71881e-06
255.477	-0.40094	2.78564e-06
255.599	-0.398193	2.84027e-06
255.721	-0.395477	2.87109e-06
255.843	-0.393799	2.8772e-06
255.965	-0.391174	2.95685e-06
256.087	-0.388428	2.98004e-06
256.209	-0.386139	2.995e-06
256.331	-0.383484	3.03833e-06
256.453	-0.381042	3.09143e-06
256.575	-0.378387	3.10059e-06
256.697	-0.375458	3.13721e-06
256.82	-0.373657	3.1311e-06
256.942	-0.371094	3.16467e-06
257.064	-0.368561	3.18298e-06
257.186	-0.366211	3.16772e-06
257.308	-0.363831	3.19519e-06
257.43	-0.361298	3.2135e-06
257.552	-0.358856	3.19824e-06
257.674	-0.356537	3.21655e-06
257.796	-0.352875	3.21655e-06
257.918	-0.351196	3.22571e-06
258.04	-0.349274	3.22571e-06
258.162	-0.346832	3.23486e-06
258.284	-0.343262	3.24097e-06
258.406	-0.341827	3.23181e-06
258.529	-0.339447	3.22571e-06
258.651	-0.336151	3.24707e-06
258.773	-0.334076	3.2196e-06
258.895	-0.332001	3.21655e-06
259.017	-0.328552	3.22266e-06
259.139	-0.326721	3.2074e-06
259.261	-0.324432	3.20435e-06
259.383	-0.322266	3.20129e-06
259.505	-0.319733	3.20129e-06
259.627	-0.316956	3.19214e-06
259.749	-0.315216	3.17078e-06
259.871	-0.3125	3.15857e-06
259.993	-0.30954	3.17688e-06
260.115	-0.306854	3.14941e-06
260.238	-0.305176	3.14026e-06
260.36	-0.302277	3.1311e-06
260.482	-0.300446	3.12805e-06
260.604	-0.297699	3.11279e-06
260.726	-0.295044	3.08228e-06
260.848	-0.292999	3.09753e-06
260.97	-0.290314	3.08228e-06
261.092	-0.287598	3.06091e-06
261.214	-0.285431	3.06396e-06
261.336	-0.283051	3.0365e-06
261.458	-0.280273	3.05786e-06
261.58	-0.278168	3.04565e-06
261.702	-0.27478	3.01819e-06
261.824	-0.272736	3.00903e-06
261.946	-0.270966	3.02429e-06
262.069	-0.268677	2.99683e-06
262.191	-0.265289	3.00293e-06
262.313	-0.263641	2.98462e-06
262.435	-0.261383	2.97546e-06
262.557	-0.258118	2.96936e-06
262.679	-0.256104	2.95715e-06
262.801	-0.253937	2.948e-06
262.923	-0.251709	2.96021e-06
263.045	-0.248688	2.93884e-06
263.167	-0.246735	2.92969e-06
263.289	-0.244232	2.92664e-06
263.411	-0.241089	2.92969e-06
263.533	-0.238831	2.94189e-06
263.655	-0.236786	2.90222e-06
263.778	-0.233459	2.89917e-06
263.9	-0.231262	2.87781e-06
264.022	-0.22876	2.88086e-06
264.144	-0.226105	2.88086e-06
264.266	-0.223724	2.86255e-06
264.388	-0.222351	2.88086e-06
264.51	-0.218933	2.85339e-06
264.632	-0.216827	2.85645e-06
264.754	-0.214447	2.84729e-06
264.876	-0.212585	2.85645e-06
264.998	-0.209991	2.84119e-06
265.12	-0.206543	2.83508e-06
265.242	-0.204529	2.84119e-06
265.364	-0.202881	2.84119e-06
265.487	-0.199249	2.81982e-06
265.609	-0.196808	2.81982e-06
265.731	-0.195038	2.82593e-06
265.853	-0.192383	2.82288e-06
265.975	-0.189819	2.82288e-06
266.097	-0.187073	2.81677e-06
266.219	-0.185669	2.80457e-06
266.341	-0.183044	2.78015e-06
266.463	-0.180206	2.83203e-06
266.585	-0.178101	2.81372e-06
266.707	-0.175781	2.82288e-06
266.829	-0.172729	2.81677e-06
266.951	-0.170105	2.83203e-06
267.073	-0.167725	2.82593e-06
267.195	-0.165558	2.82593e-06
267.318	-0.162964	2.83203e-06
267.44	-0.160767	2.85034e-06
267.562	-0.158112	2.84424e-06
267.684	-0.156311	2.81982e-06
267.806	-0.154114	2.83203e-06
267.928	-0.150726	2.84424e-06
268.05	-0.149078	2.82593e-06
268.172	-0.145935	2.82593e-06
268.294	-0.143646	2.84424e-06
268.416	-0.141541	2.84424e-06
268.538	-0.138245	2.8656e-06
268.66	-0.13681	2.8595e-06
268.782	-0.133423	2.84424e-06
268.904	-0.1315	2.85034e-06
269.027	-0.129364	2.85339e-06
269.149	-0.125977	2.89307e-06
269.271	-0.124847	2.86255e-06
269.393	-0.121857	2.8717e-06
269.515	-0.119263	2.86865e-06
269.637	-0.11734	2.8595e-06
269.759	-0.114197	2.89001e-06
269.881	-0.112549	2.88086e-06
270.003	-0.109467	2.88086e-06
270.125	-0.106628	2.90222e-06
270.247	-0.104095	2.89307e-06
270.369	-0.101654	2.89001e-06
270.491	-0.0996399	2.89917e-06
270.613	-0.0974731	2.92053e-06
270.736	-0.0950012	2.90527e-06
270.858	-0.0928955	2.91138e-06
270.98	-0.0904846	2.92358e-06
271.102	-0.0879822	2.90527e-06
271.224	-0.0856934	2.92053e-06
271.346	-0.0827332	2.91443e-06
271.468	-0.0809021	2.91138e-06
271.59	-0.0781555	2.92664e-06
271.712	-0.0748596	2.93579e-06
271.834	-0.0730286	2.92053e-06
271.956	-0.0705566	2.93884e-06
272.078	-0.067688	2.93579e-06
272.2	-0.0662842	2.93579e-06
272.322	-0.0629578	2.92969e-06
272.445	-0.0609741	2.948e-06
272.567	-0.0587769	2.94495e-06
272.689	-0.056366	2.91748e-06
272.811	-0.0540161	2.96021e-06
272.933	-0.0511169	2.96021e-06
273.055	-0.0480804	2.95715e-06
273.177	-0.0463928	2.97546e-06
273.299	-0.0434448	2.97852e-06
273.421	-0.0406006	2.98157e-06
273.543	-0.038504	2.97546e-06
273.665	-0.0356384	2.96936e-06
273.787	-0.0331635	2.99683e-06
273.909	-0.0307098	3.00293e-06
274.031	-0.0287567	3.00293e-06
274.153	-0.0266052	2.99377e-06
274.276	-0.0243103	3.00293e-06
274.398	-0.0220276	2.98767e-06
274.52	-0.0194427	2.99683e-06
274.642	-0.0162445	2.99683e-06
274.764	-0.014502	2.99377e-06
274.886	-0.0113342	3.00903e-06
275.008	-0.00883789	3.02124e-06
275.13	-0.0065918	3.00598e-06
275.252	-0.00411072	3.01208e-06
275.374	-0.00140686	3.03345e-06
275.496	0.00093689	3.0304e-06
275.618	0.00250549	3.02429e-06
275.74	0.0049469	3.01819e-06
275.862	0.00803833	3.02124e-06
275.985	0.0097229	3.01208e-06
276.107	0.0129608	3.0365e-06
276.229	0.0148804	3.03345e-06
276.351	0.0174622	3.03345e-06
276.473	0.0203674	3.03955e-06
276.595	0.0229126	3.0304e-06
276.717	0.0253082	3.0426e-06
276.839	0.027533	3.04565e-06
276.961	0.0303833	3.0426e-06
277.083	0.0324707	3.03955e-06
277.205	0.0345123	3.06091e-06
277.327	0.0376312	3.05481e-06
277.449	0.0391235	3.03345e-06
277.571	0.0414154	3.0365e-06
277.694	0.0439484	3.0426e-06
277.816	0.0466095	3.03955e-06
277.938	0.0492554	3.04565e-06
278.06	0.0519714	3.03955e-06
278.182	0.0541382	3.0426e-06
278.304	0.0567627	3.05481e-06
278.426	0.0584106	3.03955e-06
278.548	0.0617676	3.0365e-06
278.67	0.0637512	3.05176e-06
278.792	0.0655823	3.04565e-06
278.914	0.0687866	3.0365e-06
279.036	0.0705872	3.05481e-06
279.158	0.0736084	3.0426e-06
279.28	0.0705566	2.97241e-06
279.402	0.0679016	2.88391e-06
279.525	0.0665588	2.89001e-06
279.647	0.0637512	2.83813e-06
279.769	0.0608826	2.81067e-06
279.891	0.0589905	2.78931e-06
280.013	0.0558472	2.75269e-06
280.135	0.0544434	2.74963e-06
280.257	0.0510864	2.70996e-06
280.379	0.0487579	2.67334e-06
280.501	0.0473389	2.67029e-06
280.623	0.0438385	2.64893e-06
280.745	0.0416138	2.63062e-06
280.867	0.0399536	2.60925e-06
280.989	0.0368073	2.58789e-06
281.111	0.0347229	2.56042e-06
281.234	0.0322357	2.54822e-06
281.356	0.0300659	2.5238e-06
281.478	0.0279053	2.49329e-06
281.6	0.025116	2.49634e-06
281.722	0.0228027	2.46887e-06
281.844	0.0202576	2.44446e-06
281.966	0.0170319	2.42615e-06
282.088	0.0153748	2.44141e-06
282.21	0.0122894	2.38342e-06
282.332	0.0102966	2.37427e-06
282.454	0.007901	2.34985e-06
282.576	0.0047821	2.36206e-06
282.698	0.00346069	2.31323e-06
282.82	0.000158691	2.31018e-06
282.943	-0.00198975	2.30408e-06
283.065	-0.0045105	2.27051e-06
283.187	-0.00717773	2.25525e-06
283.309	-0.00883484	2.23694e-06
283.431	-0.012262	2.22473e-06
283.553	-0.0144043	2.20642e-06
283.675	-0.0161804	2.17896e-06
283.797	-0.0191772	2.15759e-06
283.919	-0.0213898	2.13928e-06
284.041	-0.0237488	2.13623e-06
284.163	-0.0258881	2.10876e-06
284.285	-0.0282471	2.09656e-06
284.407	-0.0313263	2.0813e-06
284.529	-0.0336945	2.0813e-06
284.652	-0.036142	2.04163e-06
284.774	-0.0386963	2.02942e-06
284.896	-0.0416107	2.00195e-06
285.018	-0.043866	1.98669e-06
285.14	-0.0459778	2.00195e-06
285.262	-0.0481537	1.98059e-06
285.384	-0.0504761	1.94397e-06
285.506	-0.0534363	1.92566e-06
285.628	-0.0555725	1.93176e-06
285.75	-0.0579529	1.88293e-06
285.872	-0.0611267	1.87988e-06
285.994	-0.0630798	1.85547e-06
286.116	-0.0659485	1.81274e-06
286.238	-0.0678406	1.85547e-06
286.36	-0.0707397	1.80664e-06
286.483	-0.0735474	1.78223e-06
286.605	-0.0748901	1.79443e-06
286.727	-0.0784302	1.77002e-06
286.849	-0.0801697	1.74561e-06
286.971	-0.0829468	1.75171e-06
287.093	-0.0852966	1.70288e-06
287.215	-0.0870972	1.69678e-06
287.337	-0.0905762	1.69983e-06
287.459	-0.092926	1.6571e-06
287.581	-0.094635	1.66626e-06
287.703	-0.0971985	1.64795e-06
287.825	-0.0997925	1.62659e-06
287.947	-0.101593	1.60217e-06
288.069	-0.104187	1.58691e-06
288.192	-0.106537	1.58081e-06
288.314	-0.109192	1.54419e-06
288.436	-0.112	1.53809e-06
288.558	-0.11438	1.52283e-06
288.68	-0.116821	1.49231e-06
288.802	-0.119781	1.47705e-06
288.924	-0.122162	1.47705e-06
289.046	-0.123566	1.44958e-06
289.168	-0.126373	1.44043e-06
289.29	-0.128754	1.41602e-06
289.412	-0.131958	1.40076e-06
289.534	-0.133698	1.38245e-06
289.656	-0.135895	1.36108e-06
289.778	-0.138947	1.34277e-06
289.901	-0.140656	1.32446e-06
290.023	-0.143799	1.31531e-06
290.145	-0.145569	1.28479e-06
290.267	-0.147919	1.28174e-06
290.389	-0.151428	1.26343e-06
290.511	-0.153381	1.23901e-06
290.633	-0.155396	1.2207e-06
290.755	-0.157959	1.20239e-06
290.877	-0.161285	1.171875E-06
290.999	-0.163574	1.16882e-06
291.121	-0.165405	1.15356e-06
291.243	-0.167938	1.1322e-06
291.365	-0.170654	1.11389e-06
291.487	-0.172455	1.10168e-06
291.609	-0.174988	1.07727e-06
291.732	-0.177429	1.02234e-06
291.854	-0.179901	1.0376e-06
291.976	-0.183044	1.01318e-06
292.098	-0.185486	1.00403e-06
292.22	-0.186951	9.85718e-07
292.342	-0.190247	9.52148e-07
292.464	-0.192413	9.46045e-07
292.586	-0.194305	9.30786e-07
292.708	-0.196747	9.09424e-07
292.83	-0.19986	8.8562e-07
292.952	-0.201904	8.68835e-07
293.074	-0.205322	8.29163e-07
293.196	-0.207489	8.19397e-07
293.318	-0.209442	8.08411e-07
293.441	-0.211487	7.78503e-07
293.563	-0.214142	7.61108e-07
293.685	-0.21698	7.44934e-07
293.807	-0.219452	7.08313e-07
293.929	-0.22171	6.90308e-07
294.051	-0.224335	6.70776e-07
294.173	-0.22641	6.54602e-07
294.295	-0.229767	6.14319e-07
294.417	-0.230988	6.03638e-07
294.539	-0.234039	6.04248e-07
294.661	-0.236176	5.37109e-07
294.783	-0.238434	5.13916e-07
294.905	-0.240845	4.88892e-07
295.027	-0.243622	4.52271e-07
295.15	-0.246521	4.29993e-07
295.272	-0.249268	3.94897e-07
295.394	-0.251099	3.57361e-07
295.516	-0.253815	3.3905e-07
295.638	-0.256226	2.96631e-07
295.76	-0.259033	2.6001e-07
295.882	-0.261078	2.45361e-07
296.004	-0.263062	1.89819e-07
296.126	-0.266296	1.45264e-07
296.248	-0.268585	1.20239e-07
296.37	-0.270081	7.8125E-08
296.492	-0.273132	1.64795e-08
296.614	-0.275543	-1.70898e-08
296.736	-0.277435	-5.52368e-08
296.859	-0.280762	-1.11084e-07
296.981	-0.284058	-1.9165e-07
297.103	-0.284424	-1.98364e-07
297.225	-0.287689	-2.6886e-07
297.347	-0.289734	-3.13721e-07
297.469	-0.291962	-3.71399e-07
297.591	-0.294495	-4.45557e-07
297.713	-0.297485	-5.0415e-07
297.835	-0.2995	-5.55115e-07
297.957	-0.301666	-6.32019e-07
298.079	-0.304047	-7.10144e-07
298.201	-0.306793	-7.74841e-07
298.323	-0.309448	-8.74329e-07
298.445	-0.311951	-9.38416e-07
298.567	-0.314362	-1.02417e-06
298.69	-0.316895	-1.12091e-06
298.812	-0.319	-1.2088e-06
298.934	-0.321472	-1.29456e-06
299.056	-0.324371	-1.41266e-06
299.178	-0.326385	-1.51703e-06
299.3	-0.327789	-1.61102e-06
299.422	-0.330139	-1.71234e-06
299.544	-0.334167	-1.8576e-06
299.666	-0.336334	-1.96045e-06
299.788	-0.338013	-2.10022e-06
299.91	-0.341492	-2.23724e-06
300.032	-0.342468	-2.36572e-06
300.154	-0.345032	-2.51251e-06
300.276	-0.348877	-2.64038e-06
300.399	-0.350739	-2.78992e-06
300.521	-0.352844	-2.9361e-06
300.643	-0.35556	-3.09174e-06
300.765	-0.357849	-3.26233e-06
300.887	-0.361084	-3.42712e-06
301.009	-0.362732	-3.58276e-06
301.131	-0.365204	-3.74146e-06
301.253	-0.368042	-3.90015e-06
301.375	-0.370026	-4.06189e-06
301.497	-0.372498	-4.21143e-06
301.619	-0.374756	-4.35486e-06
301.741	-0.377197	-4.50439e-06
301.863	-0.379944	-4.67529e-06
301.985	-0.382263	-4.78516e-06
302.108	-0.384521	-4.92249e-06
302.23	-0.387146	-5.04761e-06
302.352	-0.389954	-5.16968e-06
302.474	-0.391937	-5.29785e-06
302.596	-0.394775	-5.3894e-06
302.718	-0.397125	-5.49011e-06
302.84	-0.399078	-5.5603e-06
302.962	-0.402405	-5.67932e-06
303.084	-0.404297	-5.72815e-06
303.206	-0.407623	-5.85022e-06
303.328	-0.410004	-5.88379e-06
303.45	-0.411469	-5.93872e-06
303.572	-0.413757	-6.01196e-06
303.694	-0.417328	-6.05469e-06
303.816	-0.419128	-6.10046e-06
303.939	-0.422272	-6.14929e-06
304.061	-0.424255	-6.20728e-06
304.183	-0.426971	-6.21948e-06
304.305	-0.429504	-6.27747e-06
304.427	-0.431213	-6.30798e-06
304.549	-0.434296	-6.32019e-06
304.671	-0.436462	-6.35376e-06
304.793	-0.439423	-6.40869e-06
304.915	-0.441376	-6.4209e-06
305.037	-0.443542	-6.427e-06
305.159	-0.445587	-6.50635e-06
305.281	-0.448608	-6.53687e-06
305.403	-0.450623	-6.57654e-06
305.525	-0.453339	-6.61621e-06
305.648	-0.455597	-6.64368e-06
305.77	-0.458008	-6.6925e-06
305.892	-0.461151	-6.7749e-06
306.014	-0.462708	-6.79626e-06
306.136	-0.465149	-6.86035e-06
306.258	-0.468689	-6.91833e-06
306.38	-0.470062	-6.96106e-06
306.502	-0.472351	-7.03125E-06
306.624	-0.476074	-7.11365e-06
306.746	-0.477081	-7.17468e-06
306.868	-0.479767	-7.25708e-06
306.99	-0.483032	-7.35779e-06
307.112	-0.485718	-7.42798e-06
307.234	-0.487427	-7.51648e-06
307.357	-0.48996	-7.62939e-06
307.479	-0.492279	-7.74841e-06
307.601	-0.494812	-7.80334e-06
307.723	-0.496826	-7.93152e-06
307.845	-0.499908	-8.02612e-06
307.967	-0.502319	-8.12073e-06
308.089	-0.50412	-8.26111e-06
308.211	-0.506805	-8.36182e-06
308.333	-0.509521	-8.47168e-06
308.455	-0.511536	-8.59985e-06
308.577	-0.513855	-8.72803e-06
308.699	-0.516815	-8.84705e-06
308.821	-0.518677	-9.00269e-06
308.943	-0.521149	-9.13391e-06
309.066	-0.523499	-9.27124e-06
309.188	-0.526031	-9.43909e-06
309.31	-0.528656	-9.57336e-06
309.432	-0.531342	-9.71985e-06
309.554	-0.533295	-9.86938e-06
309.676	-0.536224	-1.0022e-05
309.798	-0.539185	-1.01746e-05
309.92	-0.54068	-1.03363e-05
310.042	-0.543671	-1.05255e-05
310.164	-0.546478	-1.0675e-05
310.286	-0.548157	-1.08307e-05
310.408	-0.550934	-1.10413e-05
310.53	-0.554047	-1.12e-05
310.652	-0.555176	-1.13556e-05
310.774	-0.557892	-1.15814e-05
310.897	-0.560791	-1.17798e-05
311.019	-0.563324	-1.1969e-05
311.141	-0.565094	-1.21857e-05
311.263	-0.567902	-1.23657e-05
311.385	-0.571045	-1.25732e-05
311.507	-0.57254	-1.2796e-05
311.629	-0.575195	-1.30127e-05
311.751	-0.577179	-1.32355e-05
311.873	-0.580048	-1.34705e-05
311.995	-0.582458	-1.36871e-05
312.117	-0.585327	-1.39313e-05
312.239	-0.587708	-1.41663e-05
312.361	-0.589905	-1.44165e-05
312.483	-0.592957	-1.46515e-05
312.606	-0.594482	-1.49384e-05
312.728	-0.59726	-1.521e-05
312.85	-0.600159	-1.5448e-05
312.972	-0.6026	-1.57471e-05
313.094	-0.604614	-1.60309e-05
313.216	-0.607422	-1.62933e-05
313.338	-0.609528	-1.66016e-05
313.46	-0.611786	-1.69373e-05
313.582	-0.614807	-1.71875E-05
313.704	-0.616577	-1.75201e-05
313.826	-0.618958	-1.78833e-05
313.948	-0.621948	-1.8161e-05
314.07	-0.623718	-1.85028e-05
314.192	-0.626129	-1.88477e-05
314.315	-0.628937	-1.91681e-05
314.437	-0.63089	-1.95435e-05
314.559	-0.633179	-1.99188e-05
314.681	-0.636078	-2.02698e-05
314.803	-0.638	-2.06573e-05
314.925	-0.6409	-2.1048e-05
315.047	-0.642853	-2.14294e-05
315.169	-0.645355	-2.18536e-05
315.291	-0.648529	-2.22687e-05
315.413	-0.650269	-2.26715e-05
315.535	-0.652771	-2.31232e-05
315.657	-0.655579	-2.35718e-05
315.779	-0.658081	-2.39899e-05
315.901	-0.660339	-2.4469e-05
316.023	-0.663208	-2.49359e-05
316.146	-0.665802	-2.53906e-05
316.268	-0.667847	-2.5882e-05
316.39	-0.669983	-2.64099e-05
316.512	-0.672211	-2.6886e-05
316.634	-0.675171	-2.73682e-05
316.756	-0.67688	-2.79572e-05
316.878	-0.679199	-2.84821e-05
317	-0.682617	-2.90222e-05
317.122	-0.684113	-2.96143e-05
317.244	-0.686615	-3.01605e-05
317.366	-0.69046	-3.0722e-05
317.488	-0.692261	-3.13385e-05
317.61	-0.694702	-3.19275e-05
317.732	-0.697754	-3.2547e-05
317.855	-0.699677	-3.31818e-05
317.977	-0.701996	-3.38135e-05
318.099	-0.704346	-3.44574e-05
318.221	-0.707062	-3.51044e-05
318.343	-0.709503	-3.57697e-05
318.465	-0.711945	-3.6441e-05
318.587	-0.7146	-3.71521e-05
318.709	-0.716858	-3.78632e-05
318.831	-0.719482	-3.85681e-05
318.953	-0.722076	-3.9328e-05
319.075	-0.724579	-4.00757e-05
319.197	-0.726959	-4.08112e-05
319.319	-0.729279	-4.15649e-05
319.441	-0.731812	-4.23889e-05
319.564	-0.733673	-4.31519e-05
319.686	-0.736298	-4.39758e-05
319.808	-0.738831	-4.48303e-05
319.93	-0.741486	-4.56543e-05
320.052	-0.743988	-4.65088e-05
320.174	-0.74588	-4.73633e-05
320.296	-0.748932	-4.82483e-05
320.418	-0.750732	-4.91333e-05
320.54	-0.754089	-5.00488e-05
320.662	-0.756226	-5.09644e-05
320.784	-0.759583	-5.19104e-05
320.906	-0.760803	-5.29175e-05
321.028	-0.76416	-5.38635e-05
321.15	-0.766296	-5.48706e-05
321.273	-0.768127	-5.59082e-05
321.395	-0.770874	-5.68848e-05
321.517	-0.773315	-5.79224e-05
321.639	-0.776367	-5.9021e-05
321.761	-0.777893	-6.00586e-05
321.883	-0.78064	-6.11572e-05
322.005	-0.782776	-6.22864e-05
322.127	-0.784912	-6.34155e-05
322.249	-0.787659	-6.45447e-05
322.371	-0.789795	-6.57349e-05
322.493	-0.792847	-6.6925e-05
322.615	-0.795288	-6.81152e-05
322.737	-0.797119	-6.93359e-05
322.859	-0.800781	-7.05566e-05
322.981	-0.802917	-7.18079e-05
323.104	-0.805359	-7.30591e-05
323.226	-0.807495	-7.43713e-05
323.348	-0.810547	-7.56531e-05
323.47	-0.812683	-7.69653e-05
323.592	-0.815125	-7.82776e-05
323.714	-0.81665	-7.96509e-05
323.836	-0.820007	-8.10242e-05
323.958	-0.821838	-8.23975e-05
324.08	-0.824585	-8.37708e-05
324.202	-0.827332	-8.52051e-05
324.324	-0.829163	-8.66089e-05
324.446	-0.831909	-8.80432e-05
324.568	-0.834961	-8.95081e-05
324.69	-0.837097	-9.10034e-05
324.813	-0.839844	-9.24377e-05
324.935	-0.842285	-9.39636e-05
325.057	-0.844421	-9.552e-05
325.179	-0.847473	-9.69543e-05
325.301	-0.848389	-9.85107e-05
325.423	-0.851135	-0.000100067
325.545	-0.853271	-0.000101593
325.667	-0.856323	-0.000103149
325.789	-0.858765	-0.000104736
325.911	-0.861511	-0.000106293
326.033	-0.863953	-0.00010788
326.155	-0.866394	-0.000109467
326.277	-0.86853	-0.000111053
326.399	-0.871277	-0.00011264
326.522	-0.873108	-0.000114258
326.644	-0.87616	-0.000115845
326.766	-0.878296	-0.000117462
326.888	-0.880127	-0.00011911
327.01	-0.883484	-0.000120697
327.132	-0.885315	-0.000122284
327.254	-0.888672	-0.000123993
327.376	-0.891113	-0.00012558
327.498	-0.893555	-0.000127197
327.62	-0.895691	-0.000128876
327.742	-0.897827	-0.000130493
327.864	-0.899963	-0.00013208
327.986	-0.90271	-0.000133789
328.108	-0.905151	-0.000135437
328.23	-0.907593	-0.000137115
328.353	-0.909424	-0.000138763
328.475	-0.912476	-0.000140411
328.597	-0.914917	-0.00014209
328.719	-0.917664	-0.000143768
328.841	-0.920715	-0.000145447
328.963	-0.922546	-0.000147064
329.085	-0.924988	-0.000148773
329.207	-0.927429	-0.000150421
329.329	-0.928955	-0.000152069
329.451	-0.931396	-0.000153748
329.573	-0.934143	-0.000155457
329.695	-0.937195	-0.000157166
329.817	-0.939636	-0.000158936
329.939	-0.941162	-0.000160553
330.062	-0.944519	-0.00016214
330.184	-0.947266	-0.000163788
330.306	-0.949402	-0.000165436
330.428	-0.950928	-0.000167023
330.55	-0.953979	-0.00016864
330.672	-0.957336	-0.000170288
330.794	-0.958557	-0.000171906
330.916	-0.961304	-0.000173584
331.038	-0.96405	-0.00017514
331.16	-0.966187	-0.000176758
331.282	-0.968628	-0.000178375
331.404	-0.971069	-0.000179993
331.526	-0.973816	-0.00018161
331.648	-0.9765625	-0.000183228
331.771	-0.979004	-0.000184875
331.893	-0.98114	-0.000186462
332.015	-0.983887	-0.000188049
332.137	-0.986023	-0.000189728
332.259	-0.98877	-0.000191345
332.381	-0.990906	-0.000192963
332.503	-0.993958	-0.000194672
332.625	-0.995178	-0.000196289
332.747	-0.99762	-0.000197876
332.869	-1.00067	-0.000199493
332.991	-1.0022	-0.00020108
333.113	-1.00464	-0.000202698
333.235	-1.0083	-0.000204315
333.357	-1.00952	-0.000205902
333.48	-1.01227	-0.000207428
333.602	-1.01501	-0.000209045
333.724	-1.01776	-0.000210632
333.846	-1.0202	-0.000212158
333.968	-1.02173	-0.000213806
334.09	-1.02509	-0.000215515
334.212	-1.02722	-0.000217163
334.334	-1.02936	-0.000218719
334.456	-1.03149	-0.000220428
334.578	-1.03546	-0.000221924
334.7	-1.03699	-0.000223602
334.822	-1.04004	-0.000225281
334.944	-1.04248	-0.000226746
335.066	-1.04401	-0.000228424
335.188	-1.04706	-0.000230072
335.311	-1.0498	-0.000231628
335.433	-1.05164	-0.000233246
335.555	-1.05408	-0.000234985
335.677	-1.05713	-0.000236481
335.799	-1.05957	-0.00023819
335.921	-1.06049	-0.000239777
336.043	-1.06323	-0.000241333
336.165	-1.06598	-0.000242889
336.287	-1.06873	-0.000244507
336.409	-1.07086	-0.000246002
336.531	-1.07422	-0.000247681
336.653	-1.07635	-0.000249268
336.775	-1.07819	-0.000250793
336.897	-1.08093	-0.00025296
337.02	-1.08368	-0.0002547
337.142	-1.08612	-0.000256104
337.264	-1.08887	-0.000257599
337.386	-1.091	-0.000259277
337.508	-1.09314	-0.000261139
337.63	-1.09497	-0.000263
337.752	-1.09833	-0.000264465
337.874	-1.10077	-0.000265808
337.996	-1.10291	-0.000267151
338.118	-1.10535	-0.000268555
338.24	-1.10779	-0.000269958
338.362	-1.10992	-0.000271606
338.484	-1.11237	-0.000273315
338.606	-1.1145	-0.000275269
338.729	-1.11725	-0.000276581
338.851	-1.11938	-0.000278168
338.973	-1.12152	-0.000279633
339.095	-1.12427	-0.000280945
339.217	-1.12701	-0.000282471
339.339	-1.12976	-0.000283997
339.461	-1.1322	-0.000285645
339.583	-1.13495	-0.00028714
339.705	-1.13739	-0.000288879
339.827	-1.13892	-0.000291077
339.949	-1.14105	-0.000292694
340.071	-1.1441	-0.000294556
340.193	-1.14716	-0.000296265
340.315	-1.1499	-0.000298279
340.437	-1.15082	-0.000300629
340.56	-1.15479	-0.000302917
340.682	-1.15662	-0.000305634
340.804	-1.15936	-0.000307922
340.926	-1.1615	-0.000310455
341.048	-1.16333	-0.000312988
341.17	-1.16608	-0.000315704
341.292	-1.16821	-0.000319061
341.414	-1.17126	-0.000322266
341.536	-1.17401	-0.000325836
341.658	-1.17615	-0.000329468
341.78	-1.17889	-0.000333313
341.902	-1.18073	-0.000337158
342.024	-1.18378	-0.000341522
342.146	-1.18622	-0.000346191
342.269	-1.18835	-0.000351196
342.391	-1.1908	-0.000356659
342.513	-1.19354	-0.000362457
342.635	-1.19537	-0.000368622
342.757	-1.19781	-0.000374878
342.879	-1.20026	-0.000381714
343.001	-1.203	-0.000388794
343.123	-1.20605	-0.000396301
343.245	-1.20758	-0.000404633
343.367	-1.21063	-0.000412842
343.489	-1.21277	-0.000421539
343.611	-1.2149	-0.000431122
343.733	-1.21796	-0.000441101
343.855	-1.22101	-0.000450867
343.978	-1.22284	-0.000461273
344.1	-1.22498	-0.000472076
344.222	-1.22681	-0.000483368
344.344	-1.22955	-0.000495605
344.466	-1.2323	-0.000508423
344.588	-1.23413	-0.00052124
344.71	-1.23657	-0.000534668
344.832	-1.23993	-0.000549011
344.954	-1.24176	-0.000563965
345.076	-1.24512	-0.000579834
345.198	-1.24634	-0.000596008
345.32	-1.25	-0.000612488
345.442	-1.25122	-0.000629578
345.564	-1.25366	-0.000647583
345.687	-1.25671	-0.000665894
345.809	-1.25885	-0.000684814
345.931	-1.26099	-0.000704041
346.053	-1.26434	-0.000724487
346.175	-1.26648	-0.00074585
346.297	-1.26892	-0.000766296
346.419	-1.27106	-0.000788269
346.541	-1.2738	-0.000810547
346.663	-1.27655	-0.000833435
346.785	-1.27808	-0.000858154
346.907	-1.28082	-0.000882874
347.029	-1.28326	-0.000908203
347.151	-1.28632	-0.000933838
347.273	-1.28876	-0.000960999
347.395	-1.29059	-0.000987549
347.518	-1.29395	-0.00101471
347.64	-1.29578	-0.00104309
347.762	-1.29791	-0.00107147
347.884	-1.30096	-0.00110077
348.006	-1.3031	-0.00112976
348.128	-1.30585	-0.00115936
348.25	-1.30829	-0.0011908
348.372	-1.31104	-0.00122437
348.494	-1.31256	-0.00125641
348.616	-1.31592	-0.00128967
348.738	-1.31836	-0.00132324
348.86	-1.31958	-0.00135803
348.982	-1.32233	-0.00139313
349.104	-1.32538	-0.00142914
349.227	-1.32721	-0.00146515
349.349	-1.33026	-0.00150177
349.471	-1.3327	-0.00153961
349.593	-1.33423	-0.00157806
349.715	-1.33667	-0.00161743
349.837	-1.34033	-0.0016571
349.959	-1.34186	-0.00169769
350.081	-1.34521	-0.00173889
350.203	-1.34735	-0.00178131
350.325	-1.34949	-0.00182373
350.447	-1.35193	-0.00186646
350.569	-1.35437	-0.00191071
350.691	-1.35681	-0.00195557
350.813	-1.35895	-0.00200104
350.936	-1.362	-0.00204712
351.058	-1.36414	-0.00209412
351.18	-1.36627	-0.00214081
351.302	-1.36871	-0.00218811
351.424	-1.37207	-0.00223663
351.546	-1.3736	-0.00228607
351.668	-1.37665	-0.00233612
351.79	-1.37909	-0.00238617
351.912	-1.38123	-0.00243744
352.034	-1.38306	-0.00248932
352.156	-1.38672	-0.0025415
352.278	-1.38824	-0.0025943
352.4	-1.39069	-0.00264771
352.522	-1.39343	-0.00270264
352.644	-1.39587	-0.00275726
352.767	-1.39801	-0.00281311
352.889	-1.40106	-0.00286957
353.011	-1.4035	-0.00292542
353.133	-1.40594	-0.00298218
353.255	-1.409	-0.00303925
353.377	-1.41113	-0.00309692
353.499	-1.41388	-0.0031546
353.621	-1.41541	-0.0032132
353.743	-1.41815	-0.00327209
353.865	-1.42059	-0.0033313
353.987	-1.42212	-0.0033905
354.109	-1.42548	-0.00345032
354.231	-1.42761	-0.00350983
354.353	-1.42578	-0.00346893
354.476	-1.42303	-0.00342651
354.598	-1.42029	-0.00338196
354.72	-1.41815	-0.00333618
354.842	-1.41449	-0.00328979
354.964	-1.41266	-0.0032428
355.086	-1.41113	-0.00319489
355.208	-1.40747	-0.00314667
355.33	-1.40594	-0.00309875
355.452	-1.4035	-0.00304932
355.574	-1.40015	-0.00300049
355.696	-1.39862	-0.00295105
355.818	-1.39648	-0.00290192
355.94	-1.39313	-0.00285248
356.062	-1.39038	-0.00280304
356.185	-1.38885	-0.0027533
356.307	-1.38611	-0.00270416
356.429	-1.38336	-0.00265472
356.551	-1.38123	-0.00260559
356.673	-1.37939	-0.00255707
356.795	-1.37726	-0.00250824
356.917	-1.3736	-0.00245972
357.039	-1.37207	-0.00241211
357.161	-1.36841	-0.00236481
357.283	-1.36658	-0.00231812
357.405	-1.36475	-0.00227173
357.527	-1.36139	-0.00222534
357.649	-1.36017	-0.00217957
357.771	-1.35651	-0.0021344
357.894	-1.35498	-0.00208984
358.016	-1.35193	-0.00204498
358.138	-1.34888	-0.00200165
358.26	-1.34674	-0.00195801
358.382	-1.34399	-0.00191559
358.504	-1.34216	-0.00187347
358.626	-1.33972	-0.00183197
358.748	-1.33636	-0.00179108
358.87	-1.33423	-0.00175079
358.992	-1.3324	-0.00171143
359.114	-1.32996	-0.00167267
359.236	-1.32751	-0.00163422
359.358	-1.32477	-0.00159668
359.48	-1.32263	-0.00155914
359.602	-1.32019	-0.00152283
359.725	-1.31714	-0.00148682
359.847	-1.31531	-0.00145142
359.969	-1.31256	-0.00141663
360.091	-1.31042	-0.00138306
360.213	-1.30798	-0.00134979
360.335	-1.30615	-0.00131744
360.457	-1.3028	-0.0012854
360.579	-1.29974	-0.00125427
360.701	-1.29822	-0.00122375
360.823	-1.29547	-0.00119385
360.945	-1.29272	-0.00116455
361.067	-1.2915	-0.00113556
361.189	-1.28815	-0.00110718
361.311	-1.28571	-0.00107971
361.434	-1.28357	-0.00105255
361.556	-1.28143	-0.001026
361.678	-1.27869	-0.00100006
361.8	-1.27686	-0.000974731
361.922	-1.27411	-0.000950012
362.044	-1.27228	-0.000925903
362.166	-1.26831	-0.0009021
362.288	-1.26617	-0.000878601
362.41	-1.26404	-0.000856323
362.532	-1.26038	-0.000834351
362.654	-1.25824	-0.000812683
362.776	-1.25641	-0.000791321
362.898	-1.25366	-0.000770874
363.02	-1.25183	-0.000750732
363.143	-1.24908	-0.000730896
363.265	-1.24664	-0.000711975
363.387	-1.2439	-0.000693359
363.509	-1.24176	-0.000675049
363.631	-1.23932	-0.000657043
363.753	-1.23749	-0.000639648
363.875	-1.23566	-0.000622864
363.997	-1.2326	-0.000607605
364.119	-1.23016	-0.000590515
364.241	-1.22772	-0.000574646
364.363	-1.22528	-0.000559082
364.485	-1.22223	-0.000544128
364.607	-1.22101	-0.00052948
364.729	-1.21765	-0.000515442
364.851	-1.21429	-0.000501404
364.974	-1.21277	-0.000487732
365.096	-1.21033	-0.000474762
365.218	-1.20789	-0.000462036
365.34	-1.20514	-0.000449585
365.462	-1.2027	-0.000437378
365.584	-1.20117	-0.000425385
365.706	-1.19812	-0.000413757
365.828	-1.19537	-0.000402588
365.95	-1.19324	-0.000391571
366.072	-1.1908	-0.000381073
366.194	-1.18866	-0.000370575
366.316	-1.18652	-0.000360352
366.438	-1.18378	-0.000350342
366.56	-1.18134	-0.000340729
366.683	-1.17889	-0.000331451
366.805	-1.17645	-0.000322235
366.927	-1.1734	-0.000313324
367.049	-1.171875	-0.000304596
367.171	-1.16913	-0.000296143
367.293	-1.16638	-0.000287903
367.415	-1.16455	-0.000279907
367.537	-1.16089	-0.000272095
367.659	-1.15967	-0.000264404
367.781	-1.15692	-0.000256989
367.903	-1.15417	-0.000249664
368.025	-1.15204	-0.000242554
368.147	-1.14868	-0.000235687
368.269	-1.14624	-0.000229034
368.392	-1.14441	-0.000222412
368.514	-1.14166	-0.000216217
368.636	-1.13892	-0.000209991
368.758	-1.13678	-0.000203918
368.88	-1.13464	-0.000197968
369.002	-1.13251	-0.000192291
369.124	-1.12946	-0.000186737
369.246	-1.12762	-0.000181458
369.368	-1.12488	-0.000176147
369.49	-1.12335	-0.000170898
369.612	-1.11969	-0.000165985
369.734	-1.11847	-0.000161133
369.856	-1.11511	-0.000156403
369.978	-1.11267	-0.000151733
370.101	-1.11023	-0.000147247
370.223	-1.10809	-0.000142914
370.345	-1.10504	-0.000138672
370.467	-1.10229	-0.000134583
370.589	-1.10046	-0.000130524
370.711	-1.09802	-0.000126648
370.833	-1.09619	-0.000122925
370.955	-1.09314	-0.000119263
371.077	-1.09131	-0.000115753
371.199	-1.08765	-0.000112335
371.321	-1.08521	-0.000109009
371.443	-1.08368	-0.000105804
371.565	-1.08032	-0.000102722
371.687	-1.07819	-9.96704e-05
371.809	-1.07666	-9.67712e-05
371.932	-1.07391	-9.39026e-05
372.054	-1.07086	-9.11255e-05
372.176	-1.06903	-8.8501e-05
372.298	-1.06689	-8.5968e-05
372.42	-1.06384	-8.34351e-05
372.542	-1.0614	-8.10547e-05
372.664	-1.05804	-7.87659e-05
372.786	-1.05652	-7.64771e-05
372.908	-1.05438	-7.43408e-05
373.03	-1.05133	-7.23572e-05
373.152	-1.04858	-7.03125E-05
373.274	-1.04706	-6.83289e-05
373.396	-1.0437	-6.64978e-05
373.518	-1.04156	-6.46362e-05
373.641	-1.04004	-6.28967e-05
373.763	-1.03668	-6.12488e-05
373.885	-1.03455	-5.96313e-05
374.007	-1.0318	-5.8075e-05
374.129	-1.02966	-5.65796e-05
374.251	-1.02722	-5.50842e-05
374.373	-1.02478	-5.36804e-05
374.495	-1.02203	-5.23987e-05
374.617	-1.0202	-5.11169e-05
374.739	-1.01685	-4.97742e-05
374.861	-1.01532	-4.86145e-05
374.983	-1.01318	-4.74243e-05
375.105	-1.00952	-4.62646e-05
375.227	-1.00739	-4.5166e-05
375.35	-1.00494	-4.41284e-05
375.472	-1.00281	-4.30603e-05
375.594	-1.00006	-4.20837e-05
375.716	-0.997314	-4.11072e-05
375.838	-0.995789	-4.01764e-05
375.96	-0.993347	-3.92487e-05
376.082	-0.98999	-3.84003e-05
376.204	-0.988159	-3.74634e-05
376.326	-0.986023	-3.66272e-05
376.448	-0.983582	-3.58063e-05
376.57	-0.980835	-3.4967e-05
376.692	-0.979004	-3.41522e-05
376.814	-0.976868	-3.34167e-05
376.936	-0.973206	-3.25897e-05
377.058	-0.971069	-3.17841e-05
377.181	-0.969238	-3.10913e-05
377.303	-0.966187	-3.02948e-05
377.425	-0.963135	-2.94769e-05
377.547	-0.960999	-2.87842e-05
377.669	-0.959167	-2.80182e-05
377.791	-0.956421	-2.72583e-05
377.913	-0.953674	-2.65228e-05
378.035	-0.951843	-2.5766e-05
378.157	-0.949707	-2.49664e-05
378.279	-0.946655	-2.421875E-05
378.401	-0.944214	-2.34253e-05
378.523	-0.941467	-2.2644e-05
378.645	-0.939636	-2.18323e-05
378.767	-0.936279	-2.09625e-05
378.89	-0.934753	-2.00836e-05
379.012	-0.932312	-1.92566e-05
379.134	-0.929565	-1.83777e-05
379.256	-0.927734	-1.7453e-05
379.378	-0.924377	-1.65558e-05
379.5	-0.923157	-1.55945e-05
379.622	-0.920105	-1.46332e-05
379.744	-0.917358	-1.36169e-05
379.866	-0.914612	-1.25763e-05
379.988	-0.912781	-1.15173e-05
380.11	-0.909424	-1.0434e-05
380.232	-0.906982	-9.30481e-06
380.354	-0.905151	-8.09326e-06
380.476	-0.9021	-6.85425e-06
380.599	-0.899658	-5.61829e-06
380.721	-0.897827	-4.32739e-06
380.843	-0.895691	-2.95105e-06
380.965	-0.893555	-1.59912e-06
381.087	-0.891418	-9.15527e-08
381.209	-0.888672	1.47705e-06
381.331	-0.885315	2.98157e-06
381.453	-0.884094	4.56543e-06
381.575	-0.881042	6.17981e-06
381.697	-0.878601	7.83997e-06
381.819	-0.875854	9.56421e-06
381.941	-0.873413	1.13678e-05
382.063	-0.870667	1.31622e-05
382.185	-0.868225	1.50146e-05
382.308	-0.865173	1.698e-05
382.43	-0.863342	1.8869e-05
382.552	-0.860291	2.08527e-05
382.674	-0.858459	2.29401e-05
382.796	-0.856934	2.49969e-05
382.918	-0.854187	2.69897e-05
383.04	-0.851135	2.90955e-05
383.162	-0.849304	3.10944e-05
383.284	-0.846252	3.30383e-05
383.406	-0.843811	3.50098e-05
383.528	-0.841675	3.68652e-05
383.65	-0.838928	3.87054e-05
383.772	-0.837097	4.04755e-05
383.894	-0.834045	4.20837e-05
384.016	-0.831909	4.37012e-05
384.139	-0.829163	4.52576e-05
384.261	-0.827637	4.67529e-05
384.383	-0.82489	4.81567e-05
384.505	-0.822754	4.94995e-05
384.627	-0.819702	5.07507e-05
384.749	-0.817871	5.19714e-05
384.871	-0.81604	5.31921e-05
384.993	-0.812378	5.44128e-05
385.115	-0.809631	5.55115e-05
385.237	-0.807495	5.66406e-05
385.359	-0.805359	5.77393e-05
385.481	-0.802002	5.87463e-05
385.603	-0.799866	5.97534e-05
385.725	-0.797729	6.0791e-05
385.848	-0.795593	6.17065e-05
385.97	-0.793457	6.26831e-05
386.092	-0.79071	6.36292e-05
386.214	-0.788269	6.44836e-05
386.336	-0.785828	6.53076e-05
386.458	-0.782776	6.62537e-05
386.58	-0.780334	6.69861e-05
386.702	-0.778503	6.78101e-05
386.824	-0.775146	6.86951e-05
386.946	-0.773315	6.94885e-05
387.068	-0.77179	7.02515e-05
387.19	-0.768433	7.10449e-05
387.312	-0.766907	7.17773e-05
387.434	-0.763855	7.25098e-05
387.557	-0.761414	7.33032e-05
387.679	-0.758667	7.40356e-05
387.801	-0.75592	7.4707e-05
387.923	-0.754395	7.547e-05
388.045	-0.751648	7.62024e-05
388.167	-0.748505	7.69043e-05
388.289	-0.746216	7.76367e-05
388.411	-0.744202	7.84302e-05
388.533	-0.741882	7.90405e-05
388.655	-0.739227	7.98035e-05
388.777	-0.737122	8.06274e-05
388.899	-0.734619	8.13599e-05
389.021	-0.732086	8.21838e-05
389.143	-0.729675	8.30078e-05
389.265	-0.727264	8.38318e-05
389.388	-0.724274	8.47168e-05
389.51	-0.722168	8.56628e-05
389.632	-0.719299	8.65479e-05
389.754	-0.716919	8.74939e-05
389.876	-0.714417	8.85315e-05
389.998	-0.712708	8.95386e-05
390.12	-0.710236	9.05457e-05
390.242	-0.707245	9.17358e-05
390.364	-0.705139	9.2926e-05
390.486	-0.702393	9.40857e-05
390.608	-0.70047	9.53674e-05
390.73	-0.69809	9.66187e-05
390.852	-0.694916	9.79614e-05
390.974	-0.693054	9.93347e-05
391.097	-0.690369	0.000100769
391.219	-0.688141	0.000102234
391.341	-0.685394	0.00010376
391.463	-0.682739	0.000105316
391.585	-0.680237	0.000106842
391.707	-0.677948	0.000108521
391.829	-0.675476	0.000110199
391.951	-0.673737	0.000111877
392.073	-0.670715	0.000113678
392.195	-0.668518	0.000115448
392.317	-0.665619	0.000117249
392.439	-0.66391	0.00011911
392.561	-0.661499	0.000121094
392.683	-0.658264	0.000123016
392.806	-0.65625	0.000125031
392.928	-0.654175	0.000127136
393.05	-0.65152	0.000129181
393.172	-0.649353	0.000131287
393.294	-0.646515	0.000133453
393.416	-0.644379	0.00013562
393.538	-0.641266	0.000137817
393.66	-0.638885	0.000140076
393.782	-0.636566	0.000142273
393.904	-0.634766	0.000144501
394.026	-0.631622	0.00014679
394.148	-0.62912	0.000149017
394.27	-0.626862	0.000151245
394.392	-0.624573	0.000153534
394.515	-0.622223	0.000155823
394.637	-0.619507	0.00015802
394.759	-0.617584	0.000160278
394.881	-0.615234	0.000162445
395.003	-0.612213	0.00016452
395.125	-0.609772	0.000166626
395.247	-0.607697	0.00016861
395.369	-0.605225	0.000170502
395.491	-0.603149	0.000172302
395.613	-0.599854	0.00017395
395.735	-0.598206	0.000175476
395.857	-0.595093	0.000176849
395.979	-0.592896	0.000178009
396.101	-0.590454	0.000178955
396.223	-0.587616	0.0001796875
396.346	-0.585907	0.000180237
396.468	-0.582855	0.000180511
396.59	-0.580688	0.000180511
396.712	-0.578644	0.000180389
396.834	-0.575897	0.000179993
396.956	-0.5737	0.000179352
397.078	-0.570618	0.000178467
397.2	-0.568756	0.000177368
397.322	-0.566406	0.000176117
397.444	-0.563477	0.000174683
397.566	-0.561554	0.000173065
397.688	-0.559174	0.000171326
397.81	-0.55661	0.000169525
397.932	-0.553772	0.000167603
398.055	-0.551636	0.000165619
398.177	-0.549225	0.000163696
398.299	-0.546265	0.000161774
398.421	-0.543884	0.000159851
398.543	-0.541992	0.000158173
398.665	-0.539398	0.000156708
398.787	-0.536346	0.000155548
398.909	-0.533936	0.000154877
399.031	-0.531464	0.000154633
399.153	-0.52951	0.000154602
399.275	-0.526978	0.000154663
399.397	-0.524872	0.00015451
399.519	-0.5224	0.00015387
399.641	-0.52005	0.000152802
399.764	-0.517334	0.00015094
399.886	-0.515167	0.000148254
400.008	-0.512726	0.000144958
400.13	-0.510254	0.000141144
400.252	-0.50769	0.000136963
400.374	-0.5047	0.000132751
400.496	-0.502869	0.000128601
400.618	-0.500427	0.000124634
400.74	-0.497375	0.000120972
400.862	-0.495331	0.000117676
400.984	-0.492737	0.000114624
401.106	-0.490479	0.000111877
401.228	-0.487549	0.000109497
401.35	-0.485382	0.00010733
401.472	-0.483368	0.000105469
401.595	-0.480194	0.000103912
401.717	-0.478424	0.000102478
401.839	-0.475922	0.000101288
401.961	-0.473206	0.00010022
402.083	-0.4711	9.93347e-05
402.205	-0.468201	9.85107e-05
402.327	-0.466339	9.78699e-05
402.449	-0.463806	9.73816e-05
402.571	-0.461456	9.68323e-05
402.693	-0.459076	9.64355e-05
402.815	-0.456268	9.60999e-05
402.937	-0.4534	9.57947e-05
403.059	-0.451202	9.55505e-05
403.181	-0.448547	9.53674e-05
403.304	-0.446625	9.52148e-05
403.426	-0.443512	9.51233e-05
403.548	-0.441101	9.50317e-05
403.67	-0.438812	9.49707e-05
403.792	-0.436798	9.49707e-05
403.914	-0.434204	9.49707e-05
404.036	-0.431641	9.49707e-05
404.158	-0.4296875	9.50012e-05
404.28	-0.427185	9.51233e-05