File: Edgar/20230907/20230907/electrodeposition_WO3_thin_films_onto_ITO_A/wo3_film_continuous_electrodeposition_B/CA_2
Time (s)	WE(1).Potential (V)	WE(1).Current (A)
33.4471	-0.699921	-0.00482574
33.8471	-0.699707	-0.00520935
34.2471	-0.699463	-0.00516357
34.6471	-0.699646	-0.00503845
35.0471	-0.699066	-0.00489777
35.4471	-0.698914	-0.00476227
35.8471	-0.698944	-0.00463501
36.2471	-0.698822	-0.00451538
36.6471	-0.699554	-0.00440277
37.0471	-0.699066	-0.00429749
37.4471	-0.699799	-0.004198
37.8471	-0.699005	-0.0041037
38.2471	-0.698975	-0.00401459
38.6471	-0.698944	-0.00393036
39.0471	-0.698975	-0.0038501
39.4471	-0.699097	-0.00377441
39.8471	-0.699463	-0.00370239
40.2471	-0.699554	-0.00363403
40.6471	-0.698883	-0.00356903
41.0471	-0.699768	-0.00350708
41.4471	-0.699677	-0.00344757
41.8471	-0.698975	-0.00339111
42.2471	-0.699005	-0.00333679
42.6471	-0.699158	-0.00328491
43.0471	-0.699738	-0.00323517
43.4471	-0.699677	-0.00318756
43.8471	-0.698944	-0.00314148
44.2471	-0.699402	-0.00309723
44.6471	-0.699738	-0.0030542
45.0471	-0.699646	-0.003013
45.4471	-0.699097	-0.00297333
45.8471	-0.698853	-0.00293549
46.2471	-0.699554	-0.00289856
46.6471	-0.699036	-0.00286316
47.0471	-0.699554	-0.00282837
47.4471	-0.699493	-0.0027951
47.8471	-0.698944	-0.00276276
48.2471	-0.699646	-0.00273163
48.6471	-0.699432	-0.00270142
49.0471	-0.698975	-0.00267181
49.4471	-0.699646	-0.00264343
49.8471	-0.699677	-0.00261597
50.2471	-0.699127	-0.00258911
50.6471	-0.699432	-0.00256317
51.0471	-0.699677	-0.00253784
51.4471	-0.699005	-0.00251312
51.8471	-0.699615	-0.00248932
52.2471	-0.699738	-0.00246613
52.6471	-0.698944	-0.00244324
53.0471	-0.699402	-0.002421875
53.4471	-0.699768	-0.00240143
53.8471	-0.699646	-0.00238068
54.2471	-0.699402	-0.00236023
54.6471	-0.699799	-0.00234039
55.0471	-0.699585	-0.00232117
55.4471	-0.698944	-0.00230255
55.8471	-0.699036	-0.00228455
56.2471	-0.699799	-0.00226715
56.6471	-0.699554	-0.00224976
57.0471	-0.698975	-0.00223267
57.4471	-0.699127	-0.00221588
57.8471	-0.699768	-0.00219971
58.2471	-0.699249	-0.00218384
58.6471	-0.69931	-0.00216827
59.0471	-0.699432	-0.00215302
59.4471	-0.699432	-0.00213837
59.8471	-0.699768	-0.00212402
60.2471	-0.699768	-0.00210999
60.6471	-0.698944	-0.00209656
61.0471	-0.699005	-0.00208282
61.4471	-0.699646	-0.00207001
61.8471	-0.699127	-0.00205719
62.2471	-0.699829	-0.00204468
62.6471	-0.698914	-0.00203278
63.0471	-0.699219	-0.00202057
63.4471	-0.698914	-0.00200928
63.8471	-0.698975	-0.00199768
64.2471	-0.699615	-0.00198639
64.6471	-0.699127	-0.0019754
65.0471	-0.699768	-0.00196442
65.4471	-0.699585	-0.00195404
65.8471	-0.699707	-0.00194366
66.2471	-0.699188	-0.00193329
66.6471	-0.699799	-0.00192322
67.0471	-0.699158	-0.00191345
67.4471	-0.699707	-0.00190369
67.8471	-0.699493	-0.00189423
68.2471	-0.699646	-0.00188477
68.6471	-0.699707	-0.00187531
69.0471	-0.69928	-0.00186646
69.4471	-0.699707	-0.00185791
69.8471	-0.699524	-0.00184906
70.2471	-0.699738	-0.00184021
70.6471	-0.698883	-0.00183136
71.0471	-0.699463	-0.00182312
71.4471	-0.699005	-0.00181488
71.8471	-0.699066	-0.00180695
72.2471	-0.699768	-0.00179871
72.6471	-0.699097	-0.00179077
73.0471	-0.69931	-0.00178314
73.4471	-0.699554	-0.00177551
73.8471	-0.699036	-0.00176758
74.2471	-0.699615	-0.00176025
74.6471	-0.699432	-0.00175262
75.0471	-0.699493	-0.001745
75.4471	-0.69986	-0.00173737
75.8471	-0.698944	-0.00173004
76.2471	-0.699432	-0.00172302
76.6471	-0.699829	-0.001716
77.0471	-0.699158	-0.00170898
77.4471	-0.69931	-0.00170166
77.8471	-0.699432	-0.00169464
78.2471	-0.698975	-0.00168762
78.6471	-0.699768	-0.00168091
79.0471	-0.699738	-0.00167419
79.4471	-0.699707	-0.00166718
79.8471	-0.69931	-0.00166077
80.2471	-0.699738	-0.00165405
80.6471	-0.699127	-0.00164764
81.0471	-0.698944	-0.00164093
81.4471	-0.69989	-0.00163452
81.8471	-0.699219	-0.00162811
82.2471	-0.699371	-0.0016217
82.6471	-0.699799	-0.00161499
83.0471	-0.699066	-0.00160889
83.4471	-0.699097	-0.00160248
83.8471	-0.699799	-0.00159607
84.2471	-0.699402	-0.00158997
84.6471	-0.699402	-0.00158356
85.0471	-0.699799	-0.00157745
85.4471	-0.699249	-0.00157135
85.8471	-0.699158	-0.00156494
86.2471	-0.699799	-0.00155884
86.6471	-0.699066	-0.00155304
87.0471	-0.698975	-0.00154694
87.4471	-0.699738	-0.00154114
87.8471	-0.699005	-0.00153503
88.2471	-0.699127	-0.00152924
88.6471	-0.699371	-0.00152313
89.0471	-0.698944	-0.00151733
89.4471	-0.699829	-0.00151154
89.8471	-0.69989	-0.00150574
90.2471	-0.699219	-0.00149994
90.6471	-0.699768	-0.00149384
91.0471	-0.699036	-0.00148804
91.4471	-0.699371	-0.00148254
91.8471	-0.699738	-0.00147675
92.2471	-0.699188	-0.00147125
92.6471	-0.699768	-0.00146545
93.0471	-0.699463	-0.00145996
93.4471	-0.699921	-0.00145447
93.8471	-0.69931	-0.00144897
94.2471	-0.699738	-0.00144348
94.6471	-0.699005	-0.00143829
95.0471	-0.699554	-0.0014328
95.4471	-0.699829	-0.00142731
95.8471	-0.699127	-0.00142181
96.2471	-0.698975	-0.00141663
96.6471	-0.699829	-0.00141113
97.0471	-0.699341	-0.00140594
97.4471	-0.699677	-0.00140076
97.8471	-0.69986	-0.00139526
98.2471	-0.699585	-0.00139008
98.6471	-0.699677	-0.00138489
99.0471	-0.699066	-0.0013797
99.4471	-0.699158	-0.00137451
99.8471	-0.699097	-0.00136932
100.247	-0.699768	-0.00136414
100.647	-0.699524	-0.00135925
101.047	-0.699646	-0.00135406
101.447	-0.699799	-0.00134918
101.847	-0.698975	-0.00134399
102.247	-0.698944	-0.00133911
102.647	-0.699341	-0.00133423
103.047	-0.698914	-0.00132935
103.447	-0.699829	-0.00132446
103.847	-0.699615	-0.00131958
104.247	-0.699158	-0.0013147
104.647	-0.698975	-0.00130981
105.047	-0.699036	-0.00130493
105.447	-0.699188	-0.00130035
105.847	-0.699158	-0.00129578
106.247	-0.699768	-0.00129089
106.647	-0.699829	-0.00128632
107.047	-0.699097	-0.00128143
107.447	-0.69928	-0.00127716
107.847	-0.699402	-0.00127258
108.247	-0.699677	-0.00126801
108.647	-0.699615	-0.00126312
109.047	-0.699463	-0.00125885
109.447	-0.699249	-0.00125397
109.847	-0.699036	-0.00124939
110.247	-0.699066	-0.00124481
110.647	-0.699707	-0.00124023
111.047	-0.699097	-0.00123566
111.447	-0.699799	-0.00123108
111.847	-0.699188	-0.00122681
112.247	-0.699005	-0.00122223
112.647	-0.699463	-0.00121796
113.047	-0.699677	-0.00121368
113.447	-0.699768	-0.00120911
113.847	-0.699829	-0.00120483
114.247	-0.699249	-0.00120056
114.647	-0.698975	-0.00119629
115.047	-0.699066	-0.00119171
115.447	-0.699677	-0.00118774
115.847	-0.699738	-0.00118317
116.247	-0.699005	-0.00117889
116.647	-0.699188	-0.00117462
117.047	-0.699768	-0.00117035
117.447	-0.699524	-0.00116638
117.847	-0.699127	-0.00116211
118.247	-0.699371	-0.00115784
118.647	-0.699585	-0.00115387
119.047	-0.699493	-0.00115051
119.447	-0.699615	-0.00114624
119.847	-0.699524	-0.00114227
120.247	-0.699036	-0.00113831
120.647	-0.699768	-0.00113403
121.047	-0.699738	-0.00113007
121.447	-0.699158	-0.00112579
121.847	-0.699127	-0.00112183
122.247	-0.699646	-0.00111786
122.647	-0.699768	-0.00111389
123.047	-0.699402	-0.00110962
123.447	-0.699463	-0.00110596
123.847	-0.69931	-0.00110199
124.247	-0.699005	-0.00109802
124.647	-0.699829	-0.00109406
125.047	-0.699493	-0.00109039
125.447	-0.699677	-0.00108643
125.847	-0.699005	-0.00108246
126.247	-0.699158	-0.0010788
126.647	-0.699707	-0.00107483
127.047	-0.69989	-0.00107086
127.447	-0.699646	-0.0010672
127.847	-0.699097	-0.00106323
128.247	-0.699066	-0.00105957
128.647	-0.699066	-0.0010556
129.047	-0.699707	-0.00105194
129.447	-0.699463	-0.00104828
129.847	-0.699524	-0.00104462
130.247	-0.699219	-0.00104095
130.647	-0.699188	-0.00103729
131.047	-0.699707	-0.00103333
131.447	-0.699036	-0.00102997
131.847	-0.699066	-0.00102631
132.247	-0.699738	-0.00102264
132.647	-0.699707	-0.00101929
133.047	-0.699799	-0.00101593
133.447	-0.699341	-0.00101227
133.847	-0.699249	-0.00100891
134.247	-0.69928	-0.00100525
134.647	-0.699615	-0.00100159
135.047	-0.699341	-0.00099823
135.447	-0.699005	-0.000995789
135.847	-0.699341	-0.000992126
136.247	-0.699585	-0.00098877
136.647	-0.698944	-0.000985413
137.047	-0.698975	-0.000982056
137.447	-0.699738	-0.000978394
137.847	-0.699432	-0.000974731
138.247	-0.699524	-0.000971375
138.647	-0.699524	-0.000968018
139.047	-0.699158	-0.000964661
139.447	-0.699097	-0.000961304
139.847	-0.698883	-0.000957947
140.247	-0.699615	-0.00095459
140.647	-0.699554	-0.000951233
141.047	-0.699097	-0.000948181
141.447	-0.699677	-0.000944824
141.847	-0.699158	-0.000941772
142.247	-0.699432	-0.00093811
142.647	-0.699249	-0.000935364
143.047	-0.699371	-0.000932312
143.447	-0.699524	-0.000928955
143.847	-0.699554	-0.000925903
144.247	-0.69928	-0.000922852
144.647	-0.699463	-0.0009198
145.047	-0.699341	-0.000916748
145.447	-0.698822	-0.000914001
145.847	-0.699524	-0.00091095
146.247	-0.699646	-0.000908203
146.647	-0.699615	-0.000905151
147.047	-0.699463	-0.000901794
147.447	-0.698975	-0.000899048
147.847	-0.699005	-0.000895996
148.247	-0.699432	-0.00089325
148.647	-0.698914	-0.000890198
149.047	-0.699249	-0.000887451
149.447	-0.699341	-0.000884705
149.847	-0.699402	-0.000881653
150.247	-0.699646	-0.000878906
150.647	-0.699707	-0.00087616
151.047	-0.699371	-0.000873108
151.447	-0.699554	-0.000870667
151.847	-0.698975	-0.00086792
152.247	-0.699371	-0.000865173
152.647	-0.699738	-0.000862427
153.047	-0.699432	-0.00085968
153.447	-0.699677	-0.000856934
153.847	-0.699341	-0.000854492
154.247	-0.699677	-0.000851746
154.647	-0.699097	-0.000848999
155.047	-0.699585	-0.000846558
155.447	-0.699371	-0.000843811
155.847	-0.699646	-0.000841064
156.247	-0.698975	-0.000838623
156.647	-0.699646	-0.000835876
157.047	-0.699249	-0.000833435
157.447	-0.699402	-0.000830688
157.847	-0.699219	-0.000828247
158.247	-0.699188	-0.000825806
158.647	-0.698883	-0.000823059
159.047	-0.698944	-0.000820618
159.447	-0.699371	-0.000818176
159.847	-0.699554	-0.000815735
160.247	-0.699524	-0.000813293
160.647	-0.699554	-0.000811157
161.047	-0.698975	-0.000808411
161.447	-0.699615	-0.000806274
161.847	-0.699738	-0.000803833
162.247	-0.699677	-0.000801392
162.647	-0.699127	-0.000799255
163.047	-0.699371	-0.000796814
163.447	-0.699463	-0.000794678
163.847	-0.699585	-0.000792236
164.247	-0.699097	-0.000789795
164.647	-0.699341	-0.000787659
165.047	-0.699585	-0.000785522
165.447	-0.699066	-0.000783386
165.847	-0.699646	-0.000780945
166.247	-0.699646	-0.000778809
166.647	-0.69928	-0.000776672
167.047	-0.699677	-0.000774536
167.447	-0.699127	-0.00077179
167.847	-0.699615	-0.000770264
168.247	-0.698914	-0.000768127
168.647	-0.69931	-0.000765991
169.047	-0.699097	-0.000763855
169.447	-0.698914	-0.000761719
169.847	-0.699585	-0.000759583
170.247	-0.698944	-0.000757751
170.647	-0.699585	-0.000755615
171.047	-0.69931	-0.000753479
171.447	-0.699097	-0.000751343
171.847	-0.69931	-0.000749512
172.247	-0.699463	-0.000747375
172.647	-0.699707	-0.000745239
173.047	-0.699615	-0.000743408
173.447	-0.699066	-0.000741272
173.847	-0.698944	-0.000739136
174.247	-0.698944	-0.000737305
174.647	-0.698944	-0.000735474
175.047	-0.699341	-0.000733337
175.447	-0.699371	-0.000731506
175.847	-0.699646	-0.00072998
176.247	-0.698944	-0.000727539
176.647	-0.699341	-0.000726318
177.047	-0.699341	-0.000724487
177.447	-0.698914	-0.000722961
177.847	-0.699707	-0.000720825
178.247	-0.699677	-0.000719299
178.647	-0.699341	-0.000717163
179.047	-0.699127	-0.000715332
179.447	-0.699036	-0.000713501
179.847	-0.699707	-0.00071167
180.247	-0.699066	-0.000709839
180.647	-0.699615	-0.000708313
181.047	-0.699615	-0.000706482
181.447	-0.698914	-0.000704651
181.847	-0.699493	-0.000703125
182.247	-0.699432	-0.000701294
182.647	-0.698883	-0.000699463
183.047	-0.699738	-0.000697632
183.447	-0.698975	-0.000696106
183.847	-0.699036	-0.000694275
184.247	-0.699371	-0.000692749
184.647	-0.699707	-0.000690918
185.047	-0.698944	-0.000689392
185.447	-0.699219	-0.000687866
185.847	-0.699524	-0.000686035
186.247	-0.699371	-0.000684509
186.647	-0.699249	-0.000682983
187.047	-0.699646	-0.000681152
187.447	-0.698975	-0.000679626
187.847	-0.699158	-0.000678101
188.247	-0.699707	-0.00067627
188.647	-0.699707	-0.000674744
189.047	-0.699615	-0.000673218
189.447	-0.699158	-0.000671692
189.847	-0.699707	-0.000670166
190.247	-0.698883	-0.00066864
190.647	-0.699677	-0.000666504
191.047	-0.698975	-0.000665283
191.447	-0.699646	-0.0006640625
191.847	-0.699005	-0.000662537
192.247	-0.699036	-0.000661316
192.647	-0.69928	-0.00065979
193.047	-0.699677	-0.000658264
193.447	-0.699524	-0.000656738
193.847	-0.699158	-0.000655518
194.247	-0.699615	-0.000653687
194.647	-0.699768	-0.000652466
195.047	-0.698975	-0.000650635
195.447	-0.699738	-0.000649414
195.847	-0.699524	-0.000648193
196.247	-0.699127	-0.000646667
196.647	-0.699432	-0.000644836
197.047	-0.699036	-0.000643921
197.447	-0.699768	-0.0006427
197.847	-0.699677	-0.000641479
198.247	-0.699036	-0.000639954
198.647	-0.699677	-0.000638733
199.047	-0.699097	-0.000637207
199.447	-0.699524	-0.000635986
199.847	-0.699249	-0.00063446
200.247	-0.698944	-0.00063324
200.647	-0.699341	-0.000632019
201.047	-0.698883	-0.000628967
201.447	-0.699738	-0.000629272
201.847	-0.699036	-0.000628052
202.247	-0.699677	-0.000626831
202.647	-0.699005	-0.00062561
203.047	-0.699707	-0.00062439
203.447	-0.698975	-0.000623169
203.847	-0.699646	-0.000621338
204.247	-0.698914	-0.000620422
204.647	-0.699738	-0.000619202
205.047	-0.698944	-0.000617981
205.447	-0.699707	-0.00061676
205.847	-0.698944	-0.00061554
206.247	-0.699677	-0.000614319
206.647	-0.699036	-0.000613403
207.047	-0.699188	-0.000611877
207.447	-0.699371	-0.000610657
207.847	-0.699371	-0.000609741
208.247	-0.699066	-0.000608521
208.647	-0.699585	-0.0006073
209.047	-0.698944	-0.000606384
209.447	-0.699524	-0.000605164
209.847	-0.699402	-0.000603943
210.247	-0.69928	-0.000603027
210.647	-0.699554	-0.000601807
211.047	-0.699249	-0.000600891
211.447	-0.699249	-0.00059967
211.847	-0.699249	-0.00059845
212.247	-0.699524	-0.000597534
212.647	-0.699615	-0.000596313
213.047	-0.699707	-0.000595398
213.447	-0.699066	-0.000594177
213.847	-0.699341	-0.000593262
214.247	-0.69928	-0.000592041
214.647	-0.699097	-0.000591125
215.047	-0.699738	-0.00059021
215.447	-0.698975	-0.000588989
215.847	-0.699524	-0.000588074
216.247	-0.699005	-0.000587158
216.647	-0.699646	-0.0005859375
217.047	-0.699402	-0.000585022
217.447	-0.699738	-0.000583801
217.847	-0.698975	-0.000582886
218.247	-0.699738	-0.00058197
218.647	-0.699615	-0.000581055
219.047	-0.699738	-0.000579834
219.447	-0.699799	-0.000578918
219.847	-0.699707	-0.000578003
220.247	-0.699341	-0.000577087
220.647	-0.699677	-0.000576172
221.047	-0.699036	-0.000575256
221.447	-0.699646	-0.000574036
221.847	-0.699066	-0.00057312
222.247	-0.699158	-0.00057251
222.647	-0.699585	-0.000571289
223.047	-0.699738	-0.000570374
223.447	-0.699188	-0.000569458
223.847	-0.699005	-0.000568542
224.247	-0.699127	-0.000567932
224.647	-0.699585	-0.000567017
225.047	-0.699677	-0.000566101
225.447	-0.699066	-0.00056488
225.847	-0.699768	-0.000564575
226.247	-0.698944	-0.00056366
226.647	-0.699554	-0.000562744
227.047	-0.699341	-0.000561829
227.447	-0.699219	-0.000561218
227.847	-0.699646	-0.000560303
228.247	-0.699707	-0.000559387
228.647	-0.699005	-0.000558777
229.047	-0.699554	-0.000557861
229.447	-0.699493	-0.000556946
229.847	-0.699402	-0.00055603
230.247	-0.699524	-0.000555115
230.647	-0.699097	-0.000554504
231.047	-0.699585	-0.000553589
231.447	-0.699707	-0.000552673
231.847	-0.699005	-0.000551758
232.247	-0.699036	-0.000551147
232.647	-0.699799	-0.000550232
233.047	-0.699585	-0.000549622
233.447	-0.699554	-0.000548706
233.847	-0.699097	-0.000548096
234.247	-0.699371	-0.00054718
234.647	-0.699677	-0.000546265
235.047	-0.699005	-0.000545654
235.447	-0.699829	-0.000544739
235.847	-0.699646	-0.000543823
236.247	-0.699066	-0.000542603
236.647	-0.699127	-0.000541992
237.047	-0.699188	-0.000541382
237.447	-0.699036	-0.000540466
237.847	-0.699677	-0.000539856
238.247	-0.699677	-0.00053894
238.647	-0.699127	-0.000538025
239.047	-0.69928	-0.000537415
239.447	-0.699005	-0.000536804
239.847	-0.699127	-0.000535889
240.247	-0.698944	-0.000534973
240.647	-0.698975	-0.000534973
241.047	-0.699707	-0.000533142
241.447	-0.699188	-0.000532532
241.847	-0.699127	-0.000531616
242.247	-0.699371	-0.000530701
242.647	-0.698975	-0.000529785
243.047	-0.699738	-0.000529175
243.447	-0.699646	-0.000528564
243.847	-0.699768	-0.000527954
244.247	-0.699554	-0.000527344
244.647	-0.69931	-0.000526428
245.047	-0.699188	-0.000525818
245.447	-0.699036	-0.000525208
245.847	-0.699463	-0.000524597
246.247	-0.699493	-0.000523987
246.647	-0.699127	-0.000523376
247.047	-0.699768	-0.000522461
247.447	-0.69928	-0.000521851
247.847	-0.699371	-0.000520935
248.247	-0.699493	-0.000520325
248.647	-0.699554	-0.000519714
249.047	-0.699554	-0.000519104
249.447	-0.699738	-0.000518188
249.847	-0.699677	-0.000517578
250.247	-0.699066	-0.000516968
250.647	-0.699524	-0.000516357
251.047	-0.699127	-0.000515747
251.447	-0.69931	-0.000515137
251.847	-0.699554	-0.000514221
252.247	-0.699341	-0.000513611
252.647	-0.699707	-0.000513
253.047	-0.699707	-0.00051239
253.447	-0.699341	-0.00051178
253.847	-0.69928	-0.000511169
254.247	-0.699097	-0.000510559
254.647	-0.699738	-0.000509949
255.047	-0.699432	-0.000509338
255.447	-0.698975	-0.000508728
255.847	-0.699768	-0.000508118
256.247	-0.699249	-0.000507507
256.647	-0.699524	-0.000506897
257.047	-0.699646	-0.000506287
257.447	-0.698944	-0.000505981
257.847	-0.69928	-0.000505371
258.247	-0.699432	-0.000504456
258.647	-0.699036	-0.00050415
259.047	-0.699066	-0.00050354
259.447	-0.699005	-0.00050293
259.847	-0.699005	-0.000502319
260.247	-0.699066	-0.000502014
260.647	-0.699066	-0.000501404
261.047	-0.699402	-0.000500793
261.447	-0.699219	-0.000500183
261.847	-0.699005	-0.000498962
262.247	-0.699585	-0.000498962
262.647	-0.698883	-0.000498352
263.047	-0.699677	-0.000497742
263.447	-0.699402	-0.000497437
263.847	-0.699707	-0.000496521
264.247	-0.699738	-0.000496216
264.647	-0.699158	-0.000495605
265.047	-0.699341	-0.000494843
265.447	-0.699707	-0.000494354
265.847	-0.699036	-0.000493774
266.247	-0.699005	-0.000493225
266.647	-0.699097	-0.000492798
267.047	-0.699677	-0.000492279
267.447	-0.699005	-0.00049173
267.847	-0.699707	-0.00049115
268.247	-0.698975	-0.000490601
268.647	-0.699707	-0.000490173
269.047	-0.698853	-0.000489655
269.447	-0.699646	-0.000489227
269.847	-0.698853	-0.000488708
270.247	-0.699585	-0.000488098
270.647	-0.698914	-0.000487396
271.047	-0.699371	-0.000487061
271.447	-0.699585	-0.000486603
271.847	-0.699677	-0.000486084
272.247	-0.699158	-0.000485748
272.647	-0.699677	-0.000485199
273.047	-0.699036	-0.00048468
273.447	-0.699097	-0.000484222
273.847	-0.699005	-0.000483795
274.247	-0.699493	-0.000483398
274.647	-0.699249	-0.00048291
275.047	-0.699585	-0.000482178
275.447	-0.699615	-0.000481934
275.847	-0.699188	-0.000481506
276.247	-0.699341	-0.000480896
276.647	-0.699615	-0.000480621
277.047	-0.699341	-0.000480103
277.447	-0.698944	-0.000479675
277.847	-0.698944	-0.000479248
278.247	-0.699219	-0.00047876
278.647	-0.699524	-0.000478394
279.047	-0.699707	-0.000477966
279.447	-0.699402	-0.000477448
279.847	-0.69928	-0.000476959
280.247	-0.699188	-0.000476593
280.647	-0.699158	-0.000476044
281.047	-0.699524	-0.000475708
281.447	-0.699493	-0.000475159
281.847	-0.698975	-0.000474792
282.247	-0.69931	-0.000474304
282.647	-0.699707	-0.000473633
283.047	-0.699402	-0.00047348
283.447	-0.699249	-0.000472961
283.847	-0.699646	-0.000472565
284.247	-0.699127	-0.000472229
284.647	-0.699585	-0.000471954
285.047	-0.699707	-0.000471405
285.447	-0.698944	-0.000470917
285.847	-0.699707	-0.00047052
286.247	-0.699707	-0.000470154
286.647	-0.699005	-0.000469727
287.047	-0.699005	-0.000469238
287.447	-0.699646	-0.000468903
287.847	-0.699402	-0.000468536
288.247	-0.69928	-0.000468109
288.647	-0.699585	-0.000467651
289.047	-0.699066	-0.000467133
289.447	-0.699127	-0.000466766
289.847	-0.699707	-0.0004664
290.247	-0.699371	-0.000465912
290.647	-0.698975	-0.000465576
291.047	-0.699738	-0.000465027
291.447	-0.699585	-0.0004646
291.847	-0.698944	-0.000463928
292.247	-0.699493	-0.000463806
292.647	-0.698944	-0.00046344
293.047	-0.699005	-0.000463165
293.447	-0.699493	-0.00046283
293.847	-0.699707	-0.000462524
294.247	-0.699463	-0.000462158
294.647	-0.699005	-0.000461884
295.047	-0.699158	-0.000461609
295.447	-0.699768	-0.00046106
295.847	-0.699554	-0.000460571
296.247	-0.698914	-0.000460114
296.647	-0.699005	-0.000459961
297.047	-0.699219	-0.000459503
297.447	-0.699219	-0.00045932
297.847	-0.699768	-0.000458832
298.247	-0.699554	-0.000458313
298.647	-0.699158	-0.000458069
299.047	-0.699066	-0.000457794
299.447	-0.699127	-0.00045755
299.847	-0.699738	-0.000457184
300.247	-0.699738	-0.00045694
300.647	-0.69928	-0.000456665
301.047	-0.698944	-0.000456268
301.447	-0.699005	-0.000455902
301.847	-0.699005	-0.000455597
302.247	-0.699585	-0.000455231
302.647	-0.699036	-0.000454865
303.047	-0.699463	-0.000454529
303.447	-0.699768	-0.000454163
303.847	-0.699066	-0.000453827
304.247	-0.698944	-0.000453491
304.647	-0.699677	-0.000453217
305.047	-0.699249	-0.000452881
305.447	-0.699249	-0.000452332
305.847	-0.699677	-0.000451996
306.247	-0.699554	-0.00045166
306.647	-0.699005	-0.000451355
307.047	-0.699432	-0.00045108
307.447	-0.699677	-0.000450775
307.847	-0.699463	-0.0004505
308.247	-0.699005	-0.000450043
308.647	-0.699585	-0.00044986
309.047	-0.699463	-0.000449524
309.447	-0.699219	-0.000449005
309.847	-0.699097	-0.000448669
310.247	-0.699341	-0.000448395
310.647	-0.699707	-0.000447998
311.047	-0.699341	-0.00044751
311.447	-0.699554	-0.000447235
311.847	-0.699768	-0.000446899
312.247	-0.699371	-0.000446594
312.647	-0.698944	-0.000446228
313.047	-0.699707	-0.000446014
313.447	-0.699554	-0.00044577
313.847	-0.699188	-0.000445404
314.247	-0.699097	-0.000445038
314.647	-0.699738	-0.000444611
315.047	-0.699646	-0.000444275
315.447	-0.699097	-0.000443939
315.847	-0.699768	-0.000443542
316.247	-0.699066	-0.000443237
316.647	-0.699127	-0.00044281
317.047	-0.699738	-0.000442627
317.447	-0.699005	-0.00044223
317.847	-0.699432	-0.000441833
318.247	-0.699371	-0.00044162
318.647	-0.698944	-0.000441467
319.047	-0.699677	-0.000441162
319.447	-0.699768	-0.000440735
319.847	-0.699707	-0.000440552
320.247	-0.699768	-0.000440094
320.647	-0.699493	-0.000439819
321.047	-0.69928	-0.000439728
321.447	-0.698914	-0.000439331
321.847	-0.699707	-0.000439117
322.247	-0.699341	-0.000438965
322.647	-0.699799	-0.00043866
323.047	-0.699707	-0.000438446
323.447	-0.699707	-0.000438354
323.847	-0.699554	-0.000437897
324.247	-0.699402	-0.000437592
324.647	-0.699493	-0.000437378
325.047	-0.699005	-0.000436859
325.447	-0.699493	-0.000436676
325.847	-0.698975	-0.00043631
326.247	-0.699066	-0.000435974
326.647	-0.699066	-0.000435791
327.047	-0.699524	-0.000435577
327.447	-0.699341	-0.000435303
327.847	-0.699799	-0.000434998
328.247	-0.698975	-0.000434753
328.647	-0.699768	-0.000434631
329.047	-0.698883	-0.000434326
329.447	-0.699738	-0.000434113
329.847	-0.699402	-0.000433746
330.247	-0.699738	-0.000433502
330.647	-0.699188	-0.000433319
331.047	-0.699615	-0.000433136
331.447	-0.699005	-0.000432556
331.847	-0.699615	-0.000432343
332.247	-0.698883	-0.000431946
332.647	-0.699707	-0.000431763
333.047	-0.699005	-0.000431366
333.447	-0.699738	-0.000431274
333.847	-0.698975	-0.000430939
334.247	-0.699402	-0.000430786
334.647	-0.698975	-0.000430511
335.047	-0.699524	-0.000430206
335.447	-0.699097	-0.000429962
335.847	-0.699615	-0.0004296875
336.247	-0.69931	-0.000429443
336.647	-0.699463	-0.000429108
337.047	-0.699768	-0.000428833
337.447	-0.699585	-0.000428589
337.847	-0.69986	-0.000428711
338.247	-0.699738	-0.000428467
338.647	-0.698975	-0.000428284
339.047	-0.699707	-0.000427887
339.447	-0.698975	-0.000427673
339.847	-0.699463	-0.000427429
340.247	-0.699127	-0.000427429
340.647	-0.699188	-0.000427002
341.047	-0.699768	-0.000426727
341.447	-0.699799	-0.000426453
341.847	-0.69928	-0.000426178
342.247	-0.699066	-0.000426025
342.647	-0.699432	-0.000425812
343.047	-0.699219	-0.000425507
343.447	-0.699219	-0.000425385
343.847	-0.699677	-0.000425079
344.247	-0.699646	-0.000424957
344.647	-0.698914	-0.000424469
345.047	-0.699341	-0.000424164
345.447	-0.698944	-0.000423859
345.847	-0.699493	-0.000423706
346.247	-0.699097	-0.000423523
346.647	-0.69931	-0.000423401
347.047	-0.699402	-0.000423035
347.447	-0.699799	-0.000422882
347.847	-0.699158	-0.000422516
348.247	-0.699585	-0.000422272
348.647	-0.699127	-0.000421997
349.047	-0.699707	-0.000421844
349.447	-0.699371	-0.000421661
349.847	-0.699615	-0.000421326
350.247	-0.699371	-0.000421143
350.647	-0.699585	-0.000421204
351.047	-0.698883	-0.000420959
351.447	-0.699554	-0.000420715
351.847	-0.698944	-0.00042041
352.247	-0.698883	-0.000420074
352.647	-0.699219	-0.000419861
353.047	-0.698975	-0.000419617
353.447	-0.699707	-0.000419556
353.847	-0.699768	-0.000419312
354.247	-0.699341	-0.000419067
354.647	-0.699341	-0.000418823
355.047	-0.699127	-0.00041864
355.447	-0.699554	-0.000418365
355.847	-0.699158	-0.000418243
356.247	-0.699585	-0.000418213
356.647	-0.699463	-0.000417938
357.047	-0.698944	-0.000417877
357.447	-0.699097	-0.000417572
357.847	-0.699585	-0.000417389
358.247	-0.699524	-0.000417267
358.647	-0.699188	-0.000417023
359.047	-0.699615	-0.000416992
359.447	-0.69931	-0.000416626
359.847	-0.699493	-0.000416534
360.247	-0.699707	-0.000416229
360.647	-0.699036	-0.000416138
361.047	-0.699158	-0.000415863
361.447	-0.699005	-0.00041568
361.847	-0.699188	-0.000415466
362.247	-0.699646	-0.000415466
362.647	-0.699066	-0.0004151
363.047	-0.699066	-0.000415009
363.447	-0.699493	-0.000414734
363.847	-0.699249	-0.000414642
364.247	-0.699738	-0.000414551
364.647	-0.699524	-0.000414459
365.047	-0.698975	-0.000414124
365.447	-0.699188	-0.0004140625
365.847	-0.699768	-0.000413696
366.247	-0.69928	-0.000413696
366.647	-0.699127	-0.000413452
367.047	-0.699524	-0.0004133
367.447	-0.699738	-0.000413025
367.847	-0.699066	-0.000412903
368.247	-0.699005	-0.000412781
368.647	-0.699615	-0.000412445
369.047	-0.699768	-0.000412354
369.447	-0.699005	-0.000412201
369.847	-0.698975	-0.000412048
370.247	-0.699738	-0.000411469
370.647	-0.699158	-0.000411438
371.047	-0.698975	-0.000411407
371.447	-0.699005	-0.000411194
371.847	-0.699493	-0.000411102
372.247	-0.698914	-0.000411011
372.647	-0.699097	-0.000411011
373.047	-0.699707	-0.00041098
373.447	-0.699677	-0.000410461
373.847	-0.698944	-0.00041037
374.247	-0.699005	-0.0004104
374.647	-0.699707	-0.000410217
375.047	-0.699524	-0.000410065
375.447	-0.699066	-0.000409943
375.847	-0.699097	-0.000409515
376.247	-0.699615	-0.000409576
376.647	-0.698944	-0.000409302
377.047	-0.698975	-0.000409271
377.447	-0.699707	-0.000408997
377.847	-0.699707	-0.000408966
378.247	-0.698975	-0.000408691
378.647	-0.699158	-0.000408508
379.047	-0.699768	-0.000408173
379.447	-0.699036	-0.000407959
379.847	-0.699188	-0.000407928
380.247	-0.699707	-0.000407806
380.647	-0.699432	-0.000407684
381.047	-0.698944	-0.000407501
381.447	-0.699127	-0.000407257
381.847	-0.699768	-0.000407043
382.247	-0.699738	-0.000406891
382.647	-0.699219	-0.000406799
383.047	-0.699432	-0.000406677
383.447	-0.699615	-0.000406372
383.847	-0.699615	-0.00040625
384.247	-0.699585	-0.000406097
384.647	-0.698975	-0.000406189
385.047	-0.699371	-0.000406128
385.447	-0.699799	-0.000405487
385.847	-0.699615	-0.000405487
386.247	-0.698853	-0.000405518
386.647	-0.699188	-0.000405365
387.047	-0.699646	-0.000405243
387.447	-0.699188	-0.000404846
387.847	-0.699493	-0.000404755
388.247	-0.699829	-0.00040451
388.647	-0.699188	-0.000404541
389.047	-0.699493	-0.000404358
389.447	-0.699677	-0.000404297
389.847	-0.698975	-0.000404053
390.247	-0.699158	-0.000403839
390.647	-0.699677	-0.000403809
391.047	-0.698944	-0.000403717
391.447	-0.699646	-0.000403473
391.847	-0.699005	-0.000403412
392.247	-0.698975	-0.000403381
392.647	-0.699646	-0.000403137
393.047	-0.699738	-0.000403198
393.447	-0.699036	-0.000402802
393.847	-0.69928	-0.000402588
394.247	-0.699432	-0.000402527
394.647	-0.698975	-0.000402496
395.047	-0.699768	-0.0004021
395.447	-0.699188	-0.000402191
395.847	-0.698975	-0.000402161
396.247	-0.698914	-0.000401764
396.647	-0.699493	-0.000401581
397.047	-0.699738	-0.000401428
397.447	-0.699707	-0.00040155
397.847	-0.699249	-0.000401428
398.247	-0.698975	-0.000401428
398.647	-0.699463	-0.000401398
399.047	-0.699036	-0.000401184
399.447	-0.699585	-0.000400787
399.847	-0.699768	-0.000400818
400.247	-0.699066	-0.000400482
400.647	-0.699219	-0.000400543
401.047	-0.699707	-0.000400269
401.447	-0.699341	-0.000400177
401.847	-0.698944	-0.000399933
402.247	-0.699188	-0.000399872
402.647	-0.699677	-0.000399811
403.047	-0.699615	-0.00039975
403.447	-0.699677	-0.000399658
403.847	-0.698975	-0.000399445
404.247	-0.699127	-0.000399384
404.647	-0.699463	-0.000399445
405.047	-0.699066	-0.000399261
405.447	-0.69931	-0.000398956
405.847	-0.699066	-0.000398926
406.247	-0.698944	-0.000398987
406.647	-0.699738	-0.000398712
407.047	-0.699188	-0.000398712
407.447	-0.699524	-0.000398712
407.847	-0.699585	-0.000398499
408.247	-0.699158	-0.000398407
408.647	-0.699158	-0.000398132
409.047	-0.699036	-0.00039798
409.447	-0.699005	-0.000397858
409.847	-0.699005	-0.000397949
410.247	-0.699493	-0.000397675
410.647	-0.699341	-0.000397614
411.047	-0.699677	-0.000397522
411.447	-0.699677	-0.0003974
411.847	-0.699738	-0.000397522
412.247	-0.699371	-0.0003974
412.647	-0.699493	-0.0003974
413.047	-0.699677	-0.000397278
413.447	-0.699066	-0.000397034
413.847	-0.699005	-0.000397095
414.247	-0.699005	-0.000396667
414.647	-0.699036	-0.000396454
415.047	-0.699036	-0.000396393
415.447	-0.699005	-0.000396301
415.847	-0.69928	-0.000396149
416.247	-0.698914	-0.000396301
416.647	-0.699524	-0.000395691
417.047	-0.699524	-0.000395691
417.447	-0.699463	-0.000395599
417.847	-0.699707	-0.000395538
418.247	-0.699005	-0.000395233
418.647	-0.699493	-0.000395172
419.047	-0.699066	-0.000395081
419.447	-0.699005	-0.000394958
419.847	-0.699005	-0.000394806
420.247	-0.699097	-0.000394958
420.647	-0.699219	-0.000394745
421.047	-0.699066	-0.000394562
421.447	-0.699615	-0.000394562
421.847	-0.699493	-0.000394562
422.247	-0.699738	-0.00039444
422.647	-0.698975	-0.000394135
423.047	-0.699097	-0.000394073
423.447	-0.699005	-0.000394104
423.847	-0.699707	-0.000394073
424.247	-0.699402	-0.000394165
424.647	-0.699707	-0.000393799
425.047	-0.69931	-0.000393677
425.447	-0.699768	-0.000393616
425.847	-0.699463	-0.000393555
426.247	-0.699707	-0.000393524
426.647	-0.699432	-0.00039328
427.047	-0.699646	-0.000393402
427.447	-0.699768	-0.000393311
427.847	-0.699371	-0.000393097
428.247	-0.699677	-0.000393066
428.647	-0.699371	-0.000392914
429.047	-0.699799	-0.000392181
429.447	-0.699493	-0.000392731
429.847	-0.699341	-0.000392487
430.247	-0.699127	-0.0003927
430.647	-0.699219	-0.000392578
431.047	-0.699005	-0.000392639
431.447	-0.699463	-0.00039267
431.847	-0.699493	-0.000392426
432.247	-0.69928	-0.000392303
432.647	-0.699524	-0.000392273
433.047	-0.699097	-0.000392242
433.447	-0.699402	-0.000392273
433.847	-0.699066	-0.000392181
434.247	-0.699707	-0.00039209
434.647	-0.698944	-0.000391968
435.047	-0.699341	-0.00039209
435.447	-0.699036	-0.000391785
435.847	-0.699158	-0.000391571
436.247	-0.699341	-0.000391602
436.647	-0.699066	-0.000391388
437.047	-0.698883	-0.000391266
437.447	-0.699219	-0.000391266
437.847	-0.699585	-0.000391052
438.247	-0.699371	-0.000390991
438.647	-0.699615	-0.000391113
439.047	-0.699768	-0.000390839
439.447	-0.69931	-0.000390808
439.847	-0.699463	-0.000390717
440.247	-0.699249	-0.000390686
440.647	-0.699066	-0.000391052
441.047	-0.699097	-0.000390991
441.447	-0.698975	-0.0003909
441.847	-0.698944	-0.000390808
442.247	-0.699646	-0.000390686
442.647	-0.699127	-0.000390869
443.047	-0.699585	-0.00039093
443.447	-0.699615	-0.000390717
443.847	-0.699707	-0.000390778
444.247	-0.698944	-0.000390717
444.647	-0.699768	-0.000390717
445.047	-0.699127	-0.000390594
445.447	-0.699646	-0.00039035
445.847	-0.699036	-0.000390228
446.247	-0.699615	-0.000390076
446.647	-0.698975	-0.000390259
447.047	-0.699127	-0.000390137
447.447	-0.698944	-0.000390106
447.847	-0.698883	-0.000389648
448.247	-0.698914	-0.000389526
448.647	-0.699615	-0.000389526
449.047	-0.699493	-0.000389343
449.447	-0.699829	-0.000389374
449.847	-0.699738	-0.000389282
450.247	-0.699097	-0.000389221
450.647	-0.69928	-0.000389191
451.047	-0.699158	-0.000389008
451.447	-0.699402	-0.000388824
451.847	-0.699066	-0.000389099
452.247	-0.698883	-0.000388672
452.647	-0.699249	-0.000388702
453.047	-0.698944	-0.000388519
453.447	-0.699585	-0.000388397
453.847	-0.699493	-0.000388428
454.247	-0.69928	-0.000388275
454.647	-0.699158	-0.000388031
455.047	-0.699402	-0.000388153
455.447	-0.699127	-0.000388031
455.847	-0.699738	-0.00038797
456.247	-0.699463	-0.000387787
456.647	-0.699341	-0.000387939
457.047	-0.698975	-0.000387909
457.447	-0.69989	-0.000387482
457.847	-0.699005	-0.00038739
458.247	-0.699036	-0.000387787
458.647	-0.699463	-0.000387482
459.047	-0.698944	-0.000387482
459.447	-0.699768	-0.000387451
459.847	-0.698914	-0.000386993
460.247	-0.698944	-0.000387115
460.647	-0.699219	-0.000386871
461.047	-0.699158	-0.000386749
461.447	-0.699463	-0.000386749
461.847	-0.698914	-0.000386688
462.247	-0.699799	-0.000386719
462.647	-0.698883	-0.000386719
463.047	-0.69986	-0.000386658
463.447	-0.699158	-0.000386719
463.847	-0.699524	-0.000386658
464.247	-0.699799	-0.000386536
464.647	-0.698914	-0.000386353
465.047	-0.699371	-0.00038623
465.447	-0.698853	-0.000386353
465.847	-0.699158	-0.000386444
466.247	-0.698975	-0.000386353
466.647	-0.698944	-0.000386414
467.047	-0.699249	-0.000386292
467.447	-0.698975	-0.000386505
467.847	-0.699219	-0.000386322
468.247	-0.699646	-0.000386169
468.647	-0.699432	-0.000386444
469.047	-0.699158	-0.000386322
469.447	-0.699188	-0.000386139
469.847	-0.699677	-0.000386169
470.247	-0.699188	-0.000386078
470.647	-0.699677	-0.000386108
471.047	-0.699249	-0.000386261
471.447	-0.699646	-0.000386383
471.847	-0.699585	-0.000386658
472.247	-0.699554	-0.000386292
472.647	-0.699738	-0.000386353
473.047	-0.699615	-0.000386414
473.447	-0.699158	-0.00038623
473.847	-0.699524	-0.000386047
474.247	-0.699677	-0.000386078
474.647	-0.699554	-0.000386322
475.047	-0.699707	-0.0003862
475.447	-0.699097	-0.000386169
475.847	-0.699768	-0.000386414
476.247	-0.69986	-0.000386292
476.647	-0.699463	-0.000386169
477.047	-0.699646	-0.000385834
477.447	-0.699707	-0.000385834
477.847	-0.699738	-0.00038559
478.247	-0.69928	-0.000385681
478.647	-0.699585	-0.000385803
479.047	-0.699219	-0.000385803
479.447	-0.699524	-0.000385773
479.847	-0.699707	-0.000385712
480.247	-0.699524	-0.000385773
480.647	-0.699829	-0.000385773
481.047	-0.699554	-0.000385864
481.447	-0.699493	-0.000385742
481.847	-0.699707	-0.000385406
482.247	-0.698944	-0.000385681
482.647	-0.699646	-0.000385803
483.047	-0.699005	-0.00038562
483.447	-0.699371	-0.000385376
483.847	-0.699219	-0.000385742
484.247	-0.699402	-0.000385468
484.647	-0.698975	-0.000385468
485.047	-0.698914	-0.000385376
485.447	-0.699432	-0.000385223
485.847	-0.699249	-0.000385376
486.247	-0.699524	-0.000385284
486.647	-0.699432	-0.000385498
487.047	-0.699493	-0.000385529
487.447	-0.699738	-0.000385315
487.847	-0.699738	-0.000385284
488.247	-0.699677	-0.000385345
488.647	-0.699493	-0.000385345
489.047	-0.699707	-0.000385162
489.447	-0.699341	-0.000385101
489.847	-0.699768	-0.000384796
490.247	-0.699005	-0.000385162
490.647	-0.699738	-0.000385071
491.047	-0.698944	-0.000384949
491.447	-0.699707	-0.000384949
491.847	-0.699097	-0.000384827
492.247	-0.699829	-0.000384552
492.647	-0.698914	-0.000384399
493.047	-0.698883	-0.000384735
493.447	-0.699066	-0.000384796
493.847	-0.699677	-0.000384186
494.247	-0.698853	-0.000384613
494.647	-0.699738	-0.00038446
495.047	-0.699402	-0.00038443
495.447	-0.699615	-0.000384338
495.847	-0.699005	-0.000384003
496.247	-0.699158	-0.000384094
496.647	-0.699463	-0.000384308
497.047	-0.699341	-0.000384064
497.447	-0.699005	-0.000384064
497.847	-0.699066	-0.000384277
498.247	-0.699585	-0.000384064
498.647	-0.698944	-0.000384155
499.047	-0.699768	-0.000384033
499.447	-0.699646	-0.000384094
499.847	-0.69931	-0.000383942
500.247	-0.699768	-0.000384033
500.647	-0.699402	-0.000383911
501.047	-0.699677	-0.000383911
501.447	-0.69931	-0.000384064
501.847	-0.699097	-0.000383972
502.247	-0.699005	-0.000383911
502.647	-0.699005	-0.000383545
503.047	-0.698944	-0.000383606
503.447	-0.699493	-0.000383423
503.847	-0.699677	-0.000383362
504.247	-0.699738	-0.000383362
504.647	-0.699036	-0.000383545
505.047	-0.699677	-0.000383667
505.447	-0.698914	-0.000383759
505.847	-0.698975	-0.00038385
506.247	-0.699158	-0.000383606
506.647	-0.699219	-0.000383667
507.047	-0.699615	-0.00038382
507.447	-0.699738	-0.000383545
507.847	-0.699768	-0.000383118
508.247	-0.699829	-0.000383423
508.647	-0.699738	-0.000383331
509.047	-0.699615	-0.000383057
509.447	-0.699524	-0.000383118
509.847	-0.698944	-0.000382996
510.247	-0.699066	-0.000382843
510.647	-0.699127	-0.000382843
511.047	-0.699127	-0.00038269
511.447	-0.699524	-0.000382874
511.847	-0.699158	-0.000382935
512.247	-0.699738	-0.000382996
512.647	-0.699829	-0.000382568
513.047	-0.699432	-0.000382721
513.447	-0.699432	-0.000382782
513.847	-0.699219	-0.000382782
514.247	-0.699585	-0.00038266
514.647	-0.699036	-0.00038266
515.047	-0.699524	-0.000382507
515.447	-0.699646	-0.000382416
515.847	-0.699768	-0.000382446
516.247	-0.699677	-0.00038266
516.647	-0.699707	-0.000382355
517.047	-0.699066	-0.000382416
517.447	-0.699646	-0.000382019
517.847	-0.698975	-0.00038208
518.247	-0.699219	-0.000381836
518.647	-0.699097	-0.000382111
519.047	-0.699036	-0.000381744
519.447	-0.699371	-0.000381836
519.847	-0.699768	-0.000381989
520.247	-0.699677	-0.000381775
520.647	-0.699493	-0.000381744
521.047	-0.699738	-0.000381927
521.447	-0.699219	-0.000381897
521.847	-0.699646	-0.00038208
522.247	-0.699188	-0.000381927
522.647	-0.699097	-0.000381958
523.047	-0.699066	-0.000381958
523.447	-0.698944	-0.000381958
523.847	-0.699188	-0.000381866
524.247	-0.699738	-0.000381683
524.647	-0.699554	-0.000382294
525.047	-0.699097	-0.000381958
525.447	-0.699371	-0.000382111
525.847	-0.699615	-0.000381927
526.247	-0.699249	-0.000382019
526.647	-0.699249	-0.00038208
527.047	-0.699127	-0.000381897
527.447	-0.699066	-0.000381836
527.847	-0.699677	-0.000381683
528.247	-0.699219	-0.000381714
528.647	-0.699677	-0.000381195
529.047	-0.699432	-0.000381073
529.447	-0.699615	-0.000381348
529.847	-0.699524	-0.000381317
530.247	-0.699432	-0.000381531
530.647	-0.699371	-0.000381592
531.047	-0.699677	-0.000381836
531.447	-0.699066	-0.000381683
531.847	-0.699799	-0.000381836
532.247	-0.698975	-0.000381561
532.647	-0.699677	-0.000381226
533.047	-0.699127	-0.00038147
533.447	-0.699188	-0.000381348
533.847	-0.699036	-0.000381134
534.247	-0.699341	-0.000381226
534.647	-0.699005	-0.0003815
535.047	-0.698914	-0.00038147
535.447	-0.699341	-0.0003815
535.847	-0.698914	-0.00038147
536.247	-0.699738	-0.00038147
536.647	-0.699524	-0.000381348
537.047	-0.699219	-0.000379791
537.447	-0.698944	-0.000381561
537.847	-0.698914	-0.000381409
538.247	-0.699585	-0.000381134
538.647	-0.699341	-0.00038147
539.047	-0.699219	-0.000381317
539.447	-0.699829	-0.000381348
539.847	-0.698944	-0.000381317
540.247	-0.699432	-0.000381378
540.647	-0.699799	-0.00038147
541.047	-0.69928	-0.000381317
541.447	-0.698975	-0.000381531
541.847	-0.69928	-0.000381287
542.247	-0.699707	-0.000381226
542.647	-0.699463	-0.000381378
543.047	-0.699829	-0.000381134
543.447	-0.698914	-0.000381165
543.847	-0.699158	-0.000381592
544.247	-0.699585	-0.000381378
544.647	-0.699432	-0.000381439
545.047	-0.699554	-0.000381348
545.447	-0.69928	-0.000381439
545.847	-0.699463	-0.000381348
546.247	-0.699646	-0.000381287
546.647	-0.698914	-0.000381378
547.047	-0.698914	-0.000381317
547.447	-0.699829	-0.000381042
547.847	-0.699615	-0.000381134
548.247	-0.698883	-0.000381134
548.647	-0.699127	-0.00038092
549.047	-0.699768	-0.000380737
549.447	-0.699036	-0.000380615
549.847	-0.69928	-0.00038092
550.247	-0.698975	-0.000380463
550.647	-0.69928	-0.000380768
551.047	-0.69989	-0.000380737
551.447	-0.699554	-0.000380829
551.847	-0.699127	-0.000380463
552.247	-0.699066	-0.000380798
552.647	-0.699463	-0.000380798
553.047	-0.699768	-0.000380371
553.447	-0.699005	-0.000380707
553.847	-0.69931	-0.0003815
554.247	-0.699829	-0.000381012
554.647	-0.698975	-0.000381104
555.047	-0.699127	-0.00038092
555.447	-0.699738	-0.000380859
555.847	-0.699127	-0.000381073
556.247	-0.699554	-0.000381256
556.647	-0.699738	-0.000381348
557.047	-0.699005	-0.000381439
557.447	-0.698944	-0.000381439
557.847	-0.699738	-0.000381409
558.247	-0.699829	-0.000381592
558.647	-0.698883	-0.000381439
559.047	-0.698822	-0.000381378
559.447	-0.699738	-0.000381073
559.847	-0.698944	-0.000380768
560.247	-0.699158	-0.000380859
560.647	-0.699615	-0.000380859
561.047	-0.698975	-0.000380707
561.447	-0.699463	-0.000380096
561.847	-0.699402	-0.000380737
562.247	-0.698975	-0.000380676
562.647	-0.698944	-0.000381042
563.047	-0.699554	-0.000381042
563.447	-0.698883	-0.000381073
563.847	-0.699127	-0.000381165
564.247	-0.699432	-0.000380981
564.647	-0.698914	-0.000380981
565.047	-0.699554	-0.000380829
565.447	-0.699341	-0.000380768
565.847	-0.698944	-0.000381073
566.247	-0.698883	-0.000380981
566.647	-0.699799	-0.000380859
567.047	-0.699615	-0.000380768
567.447	-0.699402	-0.000381073
567.847	-0.699036	-0.000380798
568.247	-0.698944	-0.000380676
568.647	-0.699738	-0.000380859
569.047	-0.699615	-0.000380951
569.447	-0.698975	-0.000380768
569.847	-0.699615	-0.000380829
570.247	-0.699829	-0.000381012
570.647	-0.698883	-0.00038092
571.047	-0.698914	-0.000380981
571.447	-0.699371	-0.000380951
571.847	-0.69986	-0.000381317
572.247	-0.699707	-0.000381134
572.647	-0.699615	-0.000380798
573.047	-0.699219	-0.00038092
573.447	-0.699524	-0.000381226
573.847	-0.698883	-0.000381348
574.247	-0.699554	-0.0003815
574.647	-0.699646	-0.000381317
575.047	-0.698975	-0.000381073
575.447	-0.699768	-0.0003815
575.847	-0.699493	-0.000381165
576.247	-0.698914	-0.000381287
576.647	-0.699799	-0.000381195
577.047	-0.699768	-0.000381287
577.447	-0.699005	-0.000381348
577.847	-0.699005	-0.000381226
578.247	-0.699402	-0.000381226
578.647	-0.699219	-0.000381073
579.047	-0.699738	-0.000381256
579.447	-0.698944	-0.000381317
579.847	-0.699524	-0.000380829
580.247	-0.699585	-0.000381104
580.647	-0.699799	-0.00038089
581.047	-0.699829	-0.000381104
581.447	-0.698853	-0.000381012
581.847	-0.699799	-0.000381195
582.247	-0.698975	-0.000381317
582.647	-0.699768	-0.000381134
583.047	-0.698914	-0.000381287
583.447	-0.699738	-0.000381439
583.847	-0.698975	-0.000381592
584.247	-0.698944	-0.000381104
584.647	-0.699463	-0.000381378
585.047	-0.699341	-0.000381348
585.447	-0.699707	-0.000381409
585.847	-0.699738	-0.000381409
586.247	-0.699799	-0.0003815
586.647	-0.699219	-0.000381744
587.047	-0.699677	-0.000381714
587.447	-0.698975	-0.000381714
587.847	-0.699005	-0.000381775
588.247	-0.699188	-0.000382172
588.647	-0.699707	-0.000381775
589.047	-0.699585	-0.000381714
589.447	-0.699005	-0.000381989
589.847	-0.699646	-0.000381805
590.247	-0.698975	-0.000381348
590.647	-0.699432	-0.000381561
591.047	-0.699036	-0.000381256
591.447	-0.699097	-0.000381714
591.847	-0.698883	-0.000381622
592.247	-0.698914	-0.000381897
592.647	-0.698944	-0.000381805
593.047	-0.699371	-0.00038028
593.447	-0.699005	-0.00038092
593.847	-0.699768	-0.000381287
594.247	-0.699402	-0.000381622
594.647	-0.69928	-0.000381714
595.047	-0.699799	-0.000382355
595.447	-0.699005	-0.000382111
595.847	-0.699188	-0.000381866
596.247	-0.699127	-0.00038208
596.647	-0.699036	-0.00038208
597.047	-0.699738	-0.000382233
597.447	-0.699768	-0.00038205
597.847	-0.699615	-0.000382507
598.247	-0.699646	-0.00038205
598.647	-0.698853	-0.000382324
599.047	-0.699127	-0.000382507
599.447	-0.699188	-0.000382568
599.847	-0.699799	-0.000382263
600.247	-0.699615	-0.000382263
600.647	-0.698975	-0.000382111
601.047	-0.698944	-0.000382416
601.447	-0.699707	-0.000382202
601.847	-0.699005	-0.000382172
602.247	-0.699554	-0.000381805
602.647	-0.698944	-0.00038205
603.047	-0.698914	-0.000381927
603.447	-0.699341	-0.000382141
603.847	-0.699799	-0.00038205
604.247	-0.699249	-0.000381866
604.647	-0.699219	-0.000382111
605.047	-0.699463	-0.000381958
605.447	-0.699188	-0.00038205
605.847	-0.699829	-0.000382355
606.247	-0.698883	-0.000382324
606.647	-0.699188	-0.000382263
607.047	-0.699188	-0.000382355
607.447	-0.699402	-0.000382263
607.847	-0.699707	-0.000382233
608.247	-0.699005	-0.000381775
608.647	-0.699738	-0.000382263
609.047	-0.699066	-0.000382111
609.447	-0.699036	-0.000382141
609.847	-0.699677	-0.000381958
610.247	-0.699219	-0.000382446
610.647	-0.699493	-0.000382233
611.047	-0.699799	-0.000382507
611.447	-0.699127	-0.000382263
611.847	-0.698792	-0.000382294
612.247	-0.699677	-0.000382782
612.647	-0.699738	-0.000382477
613.047	-0.698975	-0.000382446
613.447	-0.699738	-0.000382385
613.847	-0.699646	-0.000382324
614.247	-0.699127	-0.000382568
614.647	-0.699768	-0.000382507
615.047	-0.699127	-0.000382019
615.447	-0.699036	-0.000382355
615.847	-0.699646	-0.000382355
616.247	-0.699829	-0.00038205
616.647	-0.698914	-0.000381958
617.047	-0.699066	-0.000381897
617.447	-0.699646	-0.000381897
617.847	-0.699219	-0.000381897
618.247	-0.698883	-0.000382019
618.647	-0.699402	-0.000381989
619.047	-0.699005	-0.00038205
619.447	-0.699615	-0.000382019
619.847	-0.699554	-0.000382141
620.247	-0.699127	-0.000382172
620.647	-0.699646	-0.000382355
621.047	-0.699677	-0.000382507
621.447	-0.699738	-0.000382355
621.847	-0.699799	-0.000382233
622.247	-0.699371	-0.000382172
622.647	-0.69928	-0.000382935
623.047	-0.698853	-0.000382843
623.447	-0.699707	-0.000382477
623.847	-0.699066	-0.00038205
624.247	-0.699738	-0.000381866
624.647	-0.699646	-0.000382172
625.047	-0.699524	-0.000381866
625.447	-0.699829	-0.000381866
625.847	-0.699585	-0.000381805
626.247	-0.699249	-0.000381805
626.647	-0.699707	-0.000381592
627.047	-0.69931	-0.00038031
627.447	-0.699585	-0.000380768
627.847	-0.699005	-0.000380676
628.247	-0.69928	-0.000380768
628.647	-0.699432	-0.00038092
629.047	-0.69928	-0.000380859
629.447	-0.699127	-0.000381805
629.847	-0.699554	-0.000381866
630.247	-0.698975	-0.000381805
630.647	-0.699371	-0.000381531
631.047	-0.699249	-0.000381287
631.447	-0.699066	-0.0003815
631.847	-0.699524	-0.000381866
632.247	-0.699005	-0.000381714
632.647	-0.699615	-0.000381714
633.047	-0.699036	-0.000381409
633.347	-0.699829	-0.000381531