File: Edgar/20240531/20240531/electrodeposition_pulsed_potential_20240531_B/pulses_1000_to_2000.txt
Time (s)	WE(1).Potential (V)	WE(1).Current (A)
893.963	-0.698608	-0.0196106
894.443	0.516998	1.32446e-05
894.943	0.517975	7.35474e-05
895.403	-0.697937	-0.0121338
895.883	0.516937	9.82666e-06
896.383	0.516998	4.34265e-05
896.863	4.57764e-05	0.00943604
897.323	0.516998	1.06812e-05
897.823	0.516785	2.96326e-05
898.303	-0.000140381	0.00535828
898.763	0.517792	4.76074e-06
899.263	0.5177	1.81274e-05
899.763	0.516388	0.0125
900.203	0.518219	2.44141e-07
900.703	0.51828	1.05591e-05
901.203	0.518311	0.000356842
901.663	-0.698578	-0.0195648
902.143	0.516785	1.72424e-05
902.643	0.516815	8.44727e-05
903.103	-0.698853	-0.0121338
903.583	0.516998	1.25427e-05
904.083	0.517303	4.21448e-05
904.563	0.000238037	0.00949707
905.023	0.516876	1.08948e-05
905.523	0.517883	2.58484e-05
906.003	0.000796509	0.00541199
906.463	0.517883	5.00488e-06
906.963	0.517578	2.08435e-05
907.463	0.516479	0.0126038
907.903	0.517395	5.46265e-06
908.403	0.517395	1.5686e-05
908.903	0.518066	0.000373291
909.363	-0.697662	-0.0196259
909.843	0.517853	1.07422e-05
910.343	0.51825	7.59583e-05
910.803	-0.699158	-0.0121704
911.283	0.517731	7.96509e-06
911.783	0.517944	4.03442e-05
912.263	-0.000219727	0.00949707
912.723	0.517883	6.65283e-06
913.223	0.516876	3.15247e-05
913.703	-0.000350952	0.00544403
914.163	0.51825	3.05176e-06
914.663	0.517059	2.3407e-05
915.163	0.516357	0.0126709
915.603	0.517365	5.46265e-06
916.103	0.517303	1.98975e-05
916.603	0.517822	0.000388214
917.063	-0.69812	-0.0196808
917.543	0.517761	1.16577e-05
918.043	0.516693	8.71887e-05
918.503	-0.69809	-0.0122284
918.983	0.51825	5.64575e-06
919.483	0.517242	4.22363e-05
919.963	0.000335693	0.00949707
920.423	0.518005	5.27954e-06
920.923	0.516785	3.27454e-05
921.403	0.000332642	0.00545868
921.863	0.51767	7.84302e-06
922.363	0.51825	1.60217e-05
922.863	0.516541	0.0127289
923.303	0.516907	9.8877e-06
923.803	0.517059	1.99585e-05
924.303	0.517792	0.000398102
924.763	-0.699005	-0.0197327
925.243	0.517792	1.15967e-05
925.743	0.517975	8.01086e-05
926.203	-0.698029	-0.0122681
926.683	0.517151	1.20239e-05
927.183	0.516754	4.94385e-05
927.663	-3.96729e-05	0.00949402
928.123	0.51825	3.35693e-06
928.623	0.516846	3.27759e-05
929.103	0.000628662	0.00546661
929.563	0.517212	1.02234e-05
930.063	0.518036	1.66626e-05
930.563	0.516266	0.0127838
931.003	0.516785	1.09558e-05
931.503	0.517151	1.7395e-05
932.003	0.516815	0.000419586
932.463	-0.697632	-0.0197754
932.943	0.516968	1.45569e-05
933.443	0.518097	8.2428e-05
933.903	-0.698273	-0.0123169
934.383	0.516907	1.39771e-05
934.883	0.5177	4.15649e-05
935.363	-0.000836182	0.00946655
935.823	0.518188	4.11987e-06
936.323	0.517944	2.54517e-05
936.803	0.000857544	0.00547424
937.263	0.517487	8.39233e-06
937.763	0.517822	1.77002e-05
938.263	0.51767	0.0128418
938.703	0.516663	1.0498e-05
939.203	0.516846	2.04468e-05
939.703	0.518158	0.000423065
940.163	-0.698944	-0.0198273
940.643	0.518219	9.18579e-06
941.143	0.516998	8.93555e-05
941.603	-0.699097	-0.0123657
942.083	0.516937	1.474e-05
942.583	0.517426	4.51965e-05
943.063	0.000186157	0.00945435
943.523	0.516815	1.33667e-05
944.023	0.518036	2.50854e-05
944.503	-0.000241089	0.00548737
944.963	0.518036	4.60815e-06
945.463	0.516785	2.5238e-05
945.963	0.517395	0.0128876
946.403	0.518005	1.43433e-06
946.903	0.516937	1.96838e-05
947.403	0.517792	0.000437469
947.863	-0.697968	-0.0198761
948.343	0.518188	7.72095e-06
948.843	0.517944	8.51746e-05
949.303	-0.699219	-0.0123932
949.783	0.518311	4.82178e-06
950.283	0.517456	4.45251e-05
950.763	-0.00083313	0.00945129
951.223	0.517517	8.45337e-06
951.723	0.516785	3.28064e-05
952.203	-0.000524902	0.00549255
952.663	0.517761	5.24902e-06
953.163	0.516998	2.39868e-05
953.663	0.516815	0.0129486
954.103	0.518127	2.22778e-06
954.603	0.516815	2.02026e-05
955.103	0.518188	0.00044809
955.563	-0.697571	-0.0199341
956.043	0.5177	1.16577e-05
956.543	0.516724	9.375e-05
957.003	-0.698975	-0.0124451
957.483	0.517517	7.8125e-06
957.983	0.517944	4.29688e-05
958.463	-0.000524902	0.00943604
958.923	0.517242	9.8877e-06
959.423	0.518036	2.58484e-05
959.903	-0.000418091	0.00549622
960.363	0.517517	8.3313e-06
960.863	0.517609	1.828e-05
961.363	0.516693	0.0130005
961.803	0.518036	3.72314e-06
962.303	0.517944	1.26648e-05
962.803	0.518372	0.000463623
963.263	-0.69751	-0.0199829
963.743	0.51767	1.09558e-05
964.243	0.516876	9.50317e-05
964.703	-0.698761	-0.0125031
965.183	0.517914	8.48389e-06
965.683	0.516907	5.02625e-05
966.163	0.000204468	0.00940857
966.623	0.516846	1.0437e-05
967.123	0.516937	3.43018e-05
967.603	-0.000488281	0.00550415
968.063	0.516785	1.16577e-05
968.563	0.516876	2.45972e-05
969.063	0.516907	0.0130432
969.503	0.517059	1.05591e-05
970.003	0.517273	1.79138e-05
970.503	0.516998	0.000485077
970.963	-0.698883	-0.0200165
971.443	0.517975	1.01318e-05
971.943	0.518097	8.86536e-05
972.403	-0.699432	-0.0125397
972.883	0.517883	7.20215e-06
973.383	0.516785	5.17273e-05
973.863	0.000192261	0.00939026
974.323	0.51825	5.0354e-06
974.823	0.517731	2.8656e-05
975.303	-0.000558472	0.00551331
975.763	0.516815	1.29089e-05
976.263	0.517975	1.98669e-05
976.763	0.516174	0.0131042
977.203	0.517181	7.84302e-06
977.703	0.518036	1.34583e-05
978.203	0.518066	0.0004953
978.663	-0.698151	-0.0200653
979.143	0.518188	8.3313e-06
979.643	0.517151	9.36584e-05
980.103	-0.697968	-0.0125916
980.583	0.517761	8.30078e-06
981.083	0.51712	5.08423e-05
981.563	0.00032959	0.00937805
982.023	0.517517	1.08032e-05
982.523	0.517395	3.10669e-05
983.003	0.000814819	0.00550659
983.463	0.516693	1.31226e-05
983.963	0.517975	1.87683e-05
984.463	0.517639	0.0131378
984.903	0.518158	2.16675e-06
985.403	0.516815	2.31323e-05
985.903	0.517761	0.000512085
986.363	-0.69751	-0.0201202
986.843	0.518158	9.3689e-06
987.343	0.518036	9.02405e-05
987.803	-0.697968	-0.0126373
988.283	0.517059	1.24207e-05
988.783	0.518097	4.55322e-05
989.263	-0.000772095	0.00936279
989.723	0.517761	6.89697e-06
990.223	0.51767	3.10669e-05
990.703	-0.000183105	0.00551514
991.163	0.516846	1.3855e-05
991.663	0.517242	2.43225e-05
992.163	0.516266	0.0131927
992.603	0.517151	9.8877e-06
993.103	0.517395	1.78223e-05
993.603	0.517517	0.000528259
994.063	-0.6987	-0.0201477
994.543	0.517792	1.16882e-05
995.043	0.516968	9.95483e-05
995.503	-0.699005	-0.012677
995.983	0.517914	8.63647e-06
996.483	0.516785	5.45349e-05
996.963	-0.00101624	0.00934753
997.423	0.517822	7.01904e-06
997.923	0.517853	2.99683e-05
998.403	0.000274658	0.00551971
998.863	0.517914	6.04248e-06
999.363	0.51767	2.13928e-05
999.863	0.517517	0.0132294
1000.3	0.517975	5.37109e-06
1000.8	0.517212	1.88904e-05
1001.3	0.516846	0.000550537
1001.76	-0.697662	-0.0201996
1002.24	0.517639	1.48315e-05
1002.74	0.516754	0.000101318
1003.2	-0.698883	-0.0127106
1003.68	0.518188	6.98853e-06
1004.18	0.516968	5.23682e-05
1004.66	-0.000808716	0.00933838
1005.12	0.516785	1.3916e-05
1005.62	0.518097	2.93579e-05
1006.1	-0.000366211	0.00552643
1006.56	0.517548	7.50732e-06
1007.06	0.517883	2.22168e-05
1007.56	0.517761	0.0132782
1008	0.516846	8.81958e-06
1008.5	0.51709	2.06604e-05
1009	0.516724	0.000568848
1009.46	-0.698639	-0.0202393
1009.94	0.516785	1.95007e-05
1010.44	0.516815	0.000102234
1010.9	-0.698029	-0.0127777
1011.38	0.518066	9.00269e-06
1011.88	0.517639	4.79736e-05
1012.36	-0.000527954	0.00931396
1012.82	0.517609	8.39233e-06
1013.32	0.517578	3.34167e-05
1013.8	-0.000167847	0.00552795
1014.26	0.51825	2.68555e-06
1014.76	0.518066	1.94397e-05
1015.26	0.516693	0.0133148
1015.7	0.518005	3.8147e-06
1016.2	0.518188	1.37634e-05
1016.7	0.517761	0.000582275
1017.16	-0.697693	-0.0202972
1017.64	0.517578	1.23596e-05
1018.14	0.518158	9.24683e-05
1018.6	-0.698517	-0.0128082
1019.08	0.518127	8.75854e-06
1019.58	0.517426	5.06897e-05
1020.06	-0.00078125	0.00930176
1020.52	0.51712	1.18713e-05
1021.02	0.517334	3.55835e-05
1021.5	-0.000363159	0.00552429
1021.96	0.51709	1.01624e-05
1022.46	0.517242	2.5238e-05
1022.96	0.516113	0.0133667
1023.4	0.517059	9.21631e-06
1023.9	0.51767	1.60828e-05
1024.4	0.516907	0.000610657
1024.86	-0.69754	-0.0203308
1025.34	0.517334	1.52588e-05
1025.84	0.518188	9.44214e-05
1026.3	-0.698944	-0.012854
1026.78	0.51825	8.3313e-06
1027.28	0.516907	5.45959e-05
1027.76	-8.8501e-05	0.00926819
1028.22	0.516815	1.3031e-05
1028.72	0.518188	2.74963e-05
1029.2	-0.000299072	0.00552734
1029.66	0.518097	4.3335e-06
1030.16	0.516754	2.78015e-05
1030.66	0.517242	0.0134125
1031.1	0.517944	5.49316e-06
1031.6	0.518127	1.42212e-05
1032.1	0.518372	0.000626221
1032.56	-0.698822	-0.0203827
1033.04	0.517639	1.51672e-05
1033.54	0.517914	9.68018e-05
1034	-0.698883	-0.012912
1034.48	0.518219	7.47681e-06
1034.98	0.517395	5.27344e-05
1035.46	-0.000799561	0.00926819
1035.92	0.516846	1.53198e-05
1036.42	0.517029	3.64685e-05
1036.9	-0.000210571	0.0055368
1037.36	0.518036	5.98145e-06
1037.86	0.518066	2.08435e-05
1038.36	0.517548	0.013443
1038.8	0.517578	6.74438e-06
1039.3	0.516907	2.2522e-05
1039.8	0.517822	0.000650635
1040.26	-0.698639	-0.0204224
1040.74	0.516907	1.93481e-05
1041.24	0.516907	0.000106628
1041.7	-0.698822	-0.0129486
1042.18	0.517273	1.3916e-05
1042.68	0.518158	4.67529e-05
1043.16	-0.000875854	0.00924377
1043.62	0.517151	1.3031e-05
1044.12	0.517853	3.01819e-05
1044.6	-0.000247192	0.00553619
1045.06	0.516785	1.33057e-05
1045.56	0.51825	1.94092e-05
1046.06	0.517426	0.0134949
1046.5	0.517578	5.40161e-06
1047	0.51828	1.48315e-05
1047.5	0.517426	0.000678711
1047.96	-0.69812	-0.020459
1048.44	0.517883	1.29395e-05
1048.94	0.517029	0.000107147
1049.4	-0.698212	-0.0129974
1049.88	0.516968	1.69373e-05
1050.38	0.517853	4.84009e-05
1050.86	-0.000741577	0.00921936
1051.32	0.517365	1.36414e-05
1051.82	0.516815	3.67432e-05
1052.3	0.000683594	0.00552887
1052.76	0.518158	5.31006e-06
1053.26	0.518127	2.11792e-05
1053.76	0.516449	0.0135315
1054.2	0.517059	1.02234e-05
1054.7	0.517029	2.15759e-05
1055.2	0.518188	0.000700684
1055.66	-0.69751	-0.0205109
1056.14	0.516815	1.93787e-05
1056.64	0.517395	0.000104675
1057.1	-0.698944	-0.013031
1057.58	0.517822	1.15051e-05
1058.08	0.518188	4.67834e-05
1058.56	-0.000640869	0.00921326
1059.02	0.517181	1.47705e-05
1059.52	0.518127	2.85339e-05
1060	-0.000112915	0.00553528
1060.46	0.518127	3.50952e-06
1060.96	0.517883	2.41089e-05
1061.46	0.517609	0.0135681
1061.9	0.517426	8.91113e-06
1062.4	0.517517	1.84937e-05
1062.9	0.517487	0.000733643
1063.36	-0.698395	-0.0205414
1063.84	0.516968	1.80664e-05
1064.34	0.517822	0.000106232
1064.8	-0.699005	-0.013092
1065.28	0.518188	8.57544e-06
1065.78	0.518036	4.83704e-05
1066.26	-0.00088501	0.00918579
1066.72	0.517822	6.65283e-06
1067.22	0.516724	3.75977e-05
1067.7	-0.000363159	0.00553375
1068.16	0.517395	9.27734e-06
1068.66	0.516998	2.78015e-05
1069.16	0.517609	0.0136017
1069.6	0.516907	1.18713e-05
1070.1	0.516846	2.54211e-05
1070.6	0.516785	0.000768127
1071.06	-0.697815	-0.0205872
1071.54	0.51828	9.70459e-06
1072.04	0.516785	0.000112518
1072.5	-0.699341	-0.0131226
1072.98	0.517181	1.51672e-05
1073.48	0.517853	5.29785e-05
1073.96	-0.00085144	0.00916748
1074.42	0.517151	1.40076e-05
1074.92	0.517578	3.39966e-05
1075.4	0.000830078	0.00552765
1075.86	0.517944	6.19507e-06
1076.36	0.518097	2.18811e-05
1076.86	0.516998	0.0136536
1077.3	0.517487	9.30786e-06
1077.8	0.518097	1.69983e-05
1078.3	0.517548	0.000795593
1078.76	-0.697998	-0.0206207
1079.24	0.517914	1.16272e-05
1079.74	0.516693	0.000115601
1080.2	-0.699005	-0.0131622
1080.68	0.518158	7.32422e-06
1081.18	0.516937	5.79224e-05
1081.66	0.000466919	0.00913696
1082.12	0.516785	1.66626e-05
1082.62	0.517181	3.70789e-05
1083.1	0.000646973	0.00552643
1083.56	0.517853	9.42993e-06
1084.06	0.516815	2.90527e-05
1084.56	0.51712	0.0136749
1085	0.516754	1.37939e-05
1085.5	0.51825	1.45569e-05
1086	0.516846	0.000838623
1086.46	-0.698242	-0.0206696
1086.94	0.517609	1.47705e-05
1087.44	0.518097	0.000108002
1087.9	-0.698822	-0.0132111
1088.38	0.517792	1.06201e-05
1088.88	0.518188	4.95911e-05
1089.36	0.000497437	0.0091156
1089.82	0.518219	5.98145e-06
1090.32	0.516846	4.11682e-05
1090.8	0.000735474	0.00552673
1091.26	0.516663	1.49841e-05
1091.76	0.517883	2.27661e-05
1092.26	0.517181	0.0137146
1092.7	0.518188	4.21143e-06
1093.2	0.518311	1.41907e-05
1093.7	0.51709	0.000874939
1094.16	-0.69873	-0.020697
1094.64	0.516846	2.02637e-05
1095.14	0.517365	0.000113495
1095.6	-0.698639	-0.013266
1096.08	0.518158	8.3313e-06
1096.58	0.518097	5.27039e-05
1097.06	0.000119019	0.00910034
1097.52	0.517548	1.09863e-05
1098.02	0.51767	3.41187e-05
1098.5	0.000238037	0.00552704
1098.96	0.516724	1.42517e-05
1099.46	0.517456	2.45972e-05
1099.96	0.517456	0.0137634
1100.4	0.518005	5.15747e-06
1100.9	0.517456	1.94397e-05
1101.4	0.518066	0.000912476
1101.86	-0.6987	-0.0207428
1102.34	0.517914	1.07117e-05
1102.84	0.517212	0.000115753
1103.3	-0.699249	-0.0132965
1103.78	0.516907	1.75171e-05
1104.28	0.517242	5.47485e-05
1104.76	0.00050354	0.00909119
1105.22	0.51767	9.24683e-06
1105.72	0.51767	3.58887e-05
1106.2	0.000793457	0.00552277
1106.66	0.517059	1.22681e-05
1107.16	0.518158	2.05688e-05
1107.66	0.516327	0.0138
1108.1	0.517212	7.84302e-06
1108.6	0.517181	2.13013e-05
1109.1	0.518219	0.000955811
1109.56	-0.697754	-0.0207886
1110.04	0.517914	1.1322e-05
1110.54	0.51767	0.000112183
1111	-0.697998	-0.0133514
1111.48	0.518219	9.52148e-06
1111.98	0.518066	5.13916e-05
1112.46	0.00050354	0.00907288
1112.92	0.518127	7.1106e-06
1113.42	0.517914	3.32031e-05
1113.9	3.66211e-05	0.0055307
1114.36	0.516815	1.37024e-05
1114.86	0.517242	2.75879e-05
1115.36	0.517487	0.0138306
1115.8	0.518311	3.41797e-06
1116.3	0.51709	2.27356e-05
1116.8	0.517426	0.0010022
1117.26	-0.698883	-0.0208191
1117.74	0.516693	2.09045e-05
1118.24	0.518219	0.000109802
1118.7	-0.698059	-0.0133911
1119.18	0.516968	1.61743e-05
1119.68	0.517242	5.65186e-05
1120.16	-0.000695801	0.00904846
1120.62	0.518127	6.22559e-06
1121.12	0.51825	3.11584e-05
1121.6	-0.000524902	0.0055365
1122.06	0.517487	8.91113e-06
1122.56	0.516846	3.08533e-05
1123.06	0.516235	0.013858
1123.5	0.51712	1.27258e-05
1124	0.518188	1.61743e-05
1124.5	0.516907	0.00106567
1124.96	-0.698608	-0.0208496
1125.44	0.51828	1.06812e-05
1125.94	0.518219	0.000111328
1126.4	-0.699463	-0.0134308
1126.88	0.518158	8.39233e-06
1127.38	0.518005	5.34058e-05
1127.86	-0.000744629	0.0090271
1128.32	0.516785	1.51978e-05
1128.82	0.517212	4.04358e-05
1129.3	0.000619507	0.0055304
1129.76	0.518188	4.54712e-06
1130.26	0.517242	2.92969e-05
1130.76	0.516571	0.0139069
1131.2	0.518188	3.93677e-06
1131.7	0.516846	2.48413e-05
1132.2	0.518158	0.00112152
1132.66	-0.697479	-0.0208954
1133.14	0.517029	1.93787e-05
1133.64	0.518158	0.000113312
1134.1	-0.699371	-0.0134705
1134.58	0.518219	6.92749e-06
1135.08	0.517365	5.63965e-05
1135.56	-0.000912476	0.009021
1136.02	0.516846	1.46484e-05
1136.52	0.517365	3.58276e-05
1137	-0.000601196	0.00553497
1137.46	0.518036	5.5542e-06
1137.96	0.516754	3.18298e-05
1138.46	0.516815	0.0139435
1138.9	0.517303	9.552e-06
1139.4	0.516846	2.48108e-05
1139.9	0.517212	0.00120178
1140.36	-0.698425	-0.020932
1140.84	0.516846	2.18506e-05
1141.34	0.517517	0.000117371
1141.8	-0.698761	-0.0135223
1142.28	0.516663	1.92261e-05
1142.78	0.517487	5.54504e-05
1143.26	0.000128174	0.00899048
1143.72	0.51767	1.0498e-05
1144.22	0.51828	3.17688e-05
1144.7	-0.000628662	0.00553284
1145.16	0.517334	1.05591e-05
1145.66	0.518036	2.2583e-05
1146.16	0.517181	0.0139679
1146.6	0.516846	1.28479e-05
1147.1	0.518158	1.63269e-05
1147.6	0.516907	0.00129456
1148.06	-0.698761	-0.0209717
1148.54	0.517334	1.74866e-05
1149.04	0.517822	0.000117432
1149.5	-0.698059	-0.013562
1149.98	0.518036	9.67407e-06
1150.48	0.517487	5.70068e-05
1150.96	0.000283813	0.00897522
1151.42	0.516785	1.60217e-05
1151.92	0.517242	3.95508e-05
1152.4	-0.000219727	0.00552612
1152.86	0.516785	1.37024e-05
1153.36	0.516937	3.06091e-05
1153.86	0.51709	0.0139954
1154.3	0.517822	6.56128e-06
1154.8	0.517181	2.40784e-05
1155.3	0.516754	0.00140106
1155.76	-0.697968	-0.0209961
1156.24	0.51828	1.22681e-05
1156.74	0.518219	0.000116241
1157.2	-0.69931	-0.0135925
1157.68	0.516907	1.8158e-05
1158.18	0.518188	5.18494e-05
1158.66	-0.000320435	0.00895386
1159.12	0.518188	7.01904e-06
1159.62	0.517517	3.66211e-05
1160.1	9.46045e-05	0.00552582
1160.56	0.517609	8.81958e-06
1161.06	0.517853	2.37122e-05
1161.56	0.517365	0.0140259
1162	0.517944	5.0354e-06
1162.5	0.517242	2.28271e-05
1163	0.518158	0.00153015
1163.46	-0.6987	-0.0210388
1163.94	0.517761	1.53198e-05
1164.44	0.517365	0.000123993
1164.9	-0.698425	-0.0136475
1165.38	0.517731	1.22375e-05
1165.88	0.517914	5.53589e-05
1166.36	0.000167847	0.0089386
1166.82	0.518036	8.57544e-06
1167.32	0.518036	3.41797e-05
1167.8	0.000134277	0.0055249
1168.26	0.517853	6.89697e-06
1168.76	0.516968	3.15857e-05
1169.26	0.516663	0.0140594
1169.7	0.51709	9.58252e-06
1170.2	0.517029	2.4353e-05
1170.7	0.517609	0.00169678
1171.16	-0.69873	-0.0210724
1171.64	0.517944	1.42822e-05
1172.14	0.517029	0.000127808
1172.6	-0.699188	-0.0136749
1173.08	0.517944	1.05896e-05
1173.58	0.517181	6.05774e-05
1174.06	-0.00071106	0.00891724
1174.52	0.518097	9.58252e-06
1175.02	0.516846	4.13818e-05
1175.5	-0.000222778	0.00552124
1175.96	0.517029	1.28479e-05
1176.46	0.517883	2.63062e-05
1176.96	0.51709	0.014093
1177.4	0.516907	1.26953e-05
1177.9	0.517578	2.1637e-05
1178.4	0.518097	0.00191925
1178.86	-0.697937	-0.0211121
1179.34	0.517517	1.68152e-05
1179.84	0.517822	0.000123169
1180.3	-0.69812	-0.0137238
1180.78	0.517059	1.75171e-05
1181.28	0.517853	5.7251e-05
1181.76	-0.000238037	0.00889587
1182.22	0.517517	1.31836e-05
1182.72	0.518127	3.36304e-05
1183.2	-0.000149536	0.00551971
1183.66	0.517761	7.41577e-06
1184.16	0.517822	2.45972e-05
1184.66	0.516266	0.0141357
1185.1	0.518188	4.57764e-06
1185.6	0.516937	2.44751e-05
1186.1	0.517273	0.0021933
1186.56	-0.698181	-0.0211365
1187.04	0.516968	2.0752e-05
1187.54	0.518005	0.000126923
1188	-0.698883	-0.0137543
1188.48	0.516907	1.81885e-05
1188.98	0.517212	6.08826e-05
1189.46	0.000482178	0.00887451
1189.92	0.518066	6.46973e-06
1190.42	0.517761	3.78113e-05
1190.9	-0.000256348	0.0055191
1191.36	0.516846	1.46179e-05
1191.86	0.516846	3.20435e-05
1192.36	0.517365	0.0141479
1192.8	0.517578	7.90405e-06
1193.3	0.5177	1.96533e-05
1193.8	0.517212	0.00257172
1194.26	-0.698853	-0.0211731
1194.74	0.518005	1.29395e-05
1195.24	0.516754	0.000135193
1195.7	-0.698029	-0.0138092
1196.18	0.517426	1.51367e-05
1196.68	0.516785	6.54297e-05
1197.16	2.74658e-05	0.00884705
1197.62	0.517487	1.37939e-05
1198.12	0.516846	4.30603e-05
1198.6	-0.000473022	0.00551575
1199.06	0.517731	9.09424e-06
1199.56	0.518097	2.45667e-05
1200.06	0.517212	0.0141815
1200.5	0.516968	1.21155e-05
1201	0.518097	1.79443e-05
1201.5	0.518341	0.00302643
1201.96	-0.698059	-0.0212097
1202.44	0.517792	1.54419e-05
1202.94	0.517426	0.000129578
1203.4	-0.697906	-0.0138428
1203.88	0.517914	1.35803e-05
1204.38	0.51712	6.47583e-05
1204.86	-0.000793457	0.00884094
1205.32	0.517151	1.40991e-05
1205.82	0.517334	3.92761e-05
1206.3	0.000640869	0.00550812
1206.76	0.516693	1.56555e-05
1207.26	0.516754	3.31116e-05
1207.76	0.516113	0.014212
1208.2	0.518219	4.05884e-06
1208.7	0.517883	2.00806e-05
1209.2	0.517761	0.0035556
1209.66	-0.698822	-0.0212341
1210.14	0.516785	2.28577e-05
1210.64	0.516693	0.000137634
1211.1	-0.698456	-0.0138794
1211.58	0.518188	1.0437e-05
1212.08	0.517273	6.4209e-05
1212.56	-0.000640869	0.00882568
1213.02	0.517548	1.1261e-05
1213.52	0.517609	3.78723e-05
1214	0.000485229	0.00550568
1214.46	0.518188	4.18091e-06
1214.96	0.516815	3.35388e-05
1215.46	0.516235	0.0142395
1215.9	0.518188	4.15039e-06
1216.4	0.516846	2.73132e-05
1216.9	0.517792	0.00411194
1217.36	-0.698608	-0.0212646
1217.84	0.516876	2.15759e-05
1218.34	0.516846	0.000138336
1218.8	-0.697998	-0.0139282
1219.28	0.516937	1.9043e-05
1219.78	0.516785	6.71997e-05
1220.26	-0.00085144	0.00879517
1220.72	0.516968	1.76086e-05
1221.22	0.517822	3.76282e-05
1221.7	0.000518799	0.00549774
1222.16	0.518341	6.65283e-06
1222.66	0.51825	2.31934e-05
1223.16	0.516144	0.014267
1223.6	0.51712	1.2085e-05
1224.1	0.517365	2.5116e-05
1224.6	0.516907	0.00461395
1225.06	-0.698883	-0.0213013
1225.54	0.517578	1.67236e-05
1226.04	0.518097	0.000131897
1226.5	-0.698059	-0.0139618
1226.98	0.517181	1.63269e-05
1227.48	0.517609	6.3446e-05
1227.96	0.000265503	0.0087677
1228.42	0.517212	1.51978e-05
1228.92	0.518158	3.50952e-05
1229.4	-0.000534058	0.00550415
1229.86	0.517578	7.72095e-06
1230.36	0.518188	2.4292e-05
1230.86	0.516144	0.0142975
1231.3	0.516907	1.297e-05
1231.8	0.517334	2.10571e-05
1232.3	0.518066	0.00496521
1232.76	-0.697906	-0.0213196
1233.24	0.517914	1.50757e-05
1233.74	0.517456	0.000137695
1234.2	-0.698822	-0.0139862
1234.68	0.518127	1.01624e-05
1235.18	0.516754	6.8634e-05
1235.66	-0.000375366	0.00874634
1236.12	0.516785	1.60522e-05
1236.62	0.516815	4.57458e-05
1237.1	-0.000250244	0.00549561
1237.56	0.517456	1.31226e-05
1238.06	0.517548	2.89307e-05
1238.56	0.517578	0.0143158
1239	0.517578	9.52148e-06
1239.5	0.5177	2.23083e-05
1240	0.517365	0.00523071
1240.46	-0.698364	-0.0213501
1240.94	0.51825	1.26648e-05
1241.44	0.51712	0.000141113
1241.9	-0.699158	-0.0140289
1242.38	0.517151	1.74866e-05
1242.88	0.517578	6.54602e-05
1243.36	-0.000872803	0.00874023
1243.82	0.517181	1.43738e-05
1244.32	0.517944	3.76892e-05
1244.8	-0.00045166	0.00549469
1245.26	0.516785	1.61438e-05
1245.76	0.517029	3.22876e-05
1246.26	0.516907	0.0143463
1246.7	0.516815	1.45264e-05
1247.2	0.517212	2.55127e-05
1247.7	0.516907	0.00548798
1248.16	-0.697662	-0.0213959
1248.64	0.516998	2.33765e-05
1249.14	0.517456	0.000139618
1249.6	-0.69928	-0.0140656
1250.08	0.517334	1.38855e-05
1250.58	0.518341	5.91125e-05
1251.06	0.00045166	0.00871277
1251.52	0.517487	1.33057e-05
1252.02	0.517242	4.26331e-05
1252.5	0.000558472	0.00548157
1252.96	0.517487	1.22375e-05
1253.46	0.516785	3.46375e-05
1253.96	0.516693	0.0143646
1254.4	0.517365	1.03455e-05
1254.9	0.518188	1.7334e-05
1255.4	0.518127	0.00569305
1255.86	-0.69873	-0.0214111
1256.34	0.518219	1.31836e-05
1256.84	0.517944	0.000142029
1257.3	-0.698822	-0.0141022
1257.78	0.516968	1.86462e-05
1258.28	0.517273	6.36292e-05
1258.76	8.8501e-05	0.00870361
1259.22	0.516907	1.70288e-05
1259.72	0.518005	3.75977e-05
1260.2	0.000201416	0.00548737
1260.66	0.516815	1.59302e-05
1261.16	0.518097	2.57568e-05
1261.66	0.516205	0.0144043
1262.1	0.516785	1.40991e-05
1262.6	0.517639	2.23083e-05
1263.1	0.517609	0.00587128
1263.56	-0.69809	-0.02146
1264.04	0.51828	1.34888e-05
1264.54	0.517548	0.000143188
1265	-0.698181	-0.0141541
1265.48	0.517761	1.24207e-05
1265.98	0.51767	6.14014e-05
1266.46	-0.000546265	0.00869141
1266.92	0.517975	8.81958e-06
1267.42	0.517059	4.37622e-05
1267.9	0.00038147	0.00548187
1268.36	0.517792	1.10779e-05
1268.86	0.517944	2.52075e-05
1269.36	0.516724	0.0144165
1269.8	0.518066	5.37109e-06
1270.3	0.517578	2.31323e-05
1270.8	0.517303	0.00604034
1271.26	-0.697662	-0.0214722
1271.74	0.517273	2.05688e-05
1272.24	0.518158	0.000140076
1272.7	-0.697968	-0.0141785
1273.18	0.516846	1.88599e-05
1273.68	0.517181	6.95801e-05
1274.16	-0.000497437	0.00866394
1274.62	0.518066	9.06372e-06
1275.12	0.516876	4.62952e-05
1275.6	0.000793457	0.00547852
1276.06	0.516907	1.53809e-05
1276.56	0.517944	2.64587e-05
1277.06	0.516205	0.0144318
1277.5	0.516968	1.26953e-05
1278	0.517517	2.46277e-05
1278.5	0.516998	0.0061441
1278.96	-0.698944	-0.0214996
1279.44	0.517731	1.65405e-05
1279.94	0.517548	0.00014447
1280.4	-0.699036	-0.0141968
1280.88	0.518158	1.00708e-05
1281.38	0.518188	6.31409e-05
1281.86	0.0003479	0.00865784
1282.32	0.518097	9.39941e-06
1282.82	0.517334	4.24805e-05
1283.3	-0.000515747	0.00548096
1283.76	0.518158	6.56128e-06
1284.26	0.516907	3.40576e-05
1284.76	0.516327	0.0144623
1285.2	0.517334	1.01929e-05
1285.7	0.517212	2.54822e-05
1286.2	0.516876	0.00629089
1286.66	-0.697327	-0.0215332
1287.14	0.516785	2.43835e-05
1287.64	0.516785	0.000152252
1288.1	-0.699249	-0.0142334
1288.58	0.517303	1.50757e-05
1289.08	0.518005	6.33545e-05
1289.56	0.000363159	0.00863037
1290.02	0.518219	7.78198e-06
1290.52	0.516724	4.62341e-05
1291	0.000811768	0.00546783
1291.46	0.51767	1.1322e-05
1291.96	0.516785	3.49426e-05
1292.46	0.51712	0.0144836
1292.9	0.516724	1.44958e-05
1293.4	0.517212	2.56653e-05
1293.9	0.517944	0.00641327
1294.36	-0.698853	-0.0215607
1294.84	0.5177	1.57776e-05
1295.34	0.51767	0.000149017
1295.8	-0.698608	-0.0142853
1296.28	0.516876	2.01416e-05
1296.78	0.51767	6.23474e-05
1297.26	0.000585937	0.00860596
1297.72	0.516785	1.73645e-05
1298.22	0.516815	4.64172e-05
1298.7	0.000534058	0.00546539
1299.16	0.517578	1.0437e-05
1299.66	0.516693	3.52783e-05
1300.16	0.516144	0.014505
1300.6	0.517853	9.70459e-06
1301.1	0.518158	1.953125E-05
1301.6	0.51712	0.00653198
1302.06	-0.69812	-0.021579
1302.54	0.517426	2.1759e-05
1303.04	0.516785	0.000156586
1303.5	-0.697876	-0.0143158
1303.98	0.516815	2.05994e-05
1304.48	0.517212	7.04956e-05
1304.96	-0.000723267	0.0085968
1305.42	0.517181	1.52588e-05
1305.92	0.517853	3.83606e-05
1306.4	-0.000265503	0.00546814
1306.86	0.517609	1.13831e-05
1307.36	0.517914	2.75574e-05
1307.86	0.516571	0.0145233
1308.3	0.517395	6.16455e-06
1308.8	0.516876	2.82288e-05
1309.3	0.516602	0.00664642
1309.76	-0.698212	-0.0216187
1310.24	0.517792	1.87988e-05
1310.74	0.517548	0.000151459
1311.2	-0.698853	-0.0143494
1311.68	0.517853	1.38855e-05
1312.18	0.518158	6.21643e-05
1312.66	-0.000686646	0.00857544
1313.12	0.516815	1.828e-05
1313.62	0.516724	4.74548e-05
1314.1	0.000790405	0.00545471
1314.56	0.51767	1.04675e-05
1315.06	0.518127	2.53906e-05
1315.56	0.517365	0.0145508
1316	0.518066	5.18799e-06
1316.5	0.517517	2.28271e-05
1317	0.516846	0.00675262
1317.46	-0.697784	-0.02164
1317.94	0.516724	2.49023e-05
1318.44	0.518036	0.000150543
1318.9	-0.699249	-0.0143829
1319.38	0.51767	1.4679e-05
1319.88	0.517212	6.94885e-05
1320.36	-0.000817871	0.00854797
1320.82	0.517548	1.25122e-05
1321.32	0.51828	3.72925e-05
1321.8	-0.000521851	0.00545776
1322.26	0.517609	9.0332e-06
1322.76	0.518158	2.59705e-05
1323.26	0.516327	0.0145844
1323.7	0.516907	1.44043e-05
1324.2	0.518158	1.79443e-05
1324.7	0.516602	0.00685913
1325.16	-0.69751	-0.0216705
1325.64	0.518097	1.30615e-05
1326.14	0.517181	0.000159576
1326.6	-0.697815	-0.0144226
1327.08	0.517029	1.84326e-05
1327.58	0.517822	6.71387e-05
1328.06	0.000561523	0.00852966
1328.52	0.518036	9.91821e-06
1329.02	0.518036	3.94287e-05
1329.5	0.000457764	0.00544098
1329.96	0.517914	1.07727e-05
1330.46	0.516846	3.4729e-05
1330.96	0.517395	0.0145905
1331.4	0.518005	7.41577e-06
1331.9	0.517792	2.19116e-05
1332.4	0.516815	0.00695648
1332.86	-0.69873	-0.0216888
1333.34	0.516754	2.50244e-05
1333.84	0.516785	0.000161346
1334.3	-0.698822	-0.0144653
1334.78	0.517242	1.75781e-05
1335.28	0.516937	7.35779e-05
1335.76	0.000393677	0.00851135
1336.22	0.51709	1.49231e-05
1336.72	0.517303	4.48608e-05
1337.2	-3.05176e-06	0.00543854
1337.66	0.518127	7.14111e-06
1338.16	0.517242	3.28064e-05
1338.66	0.516144	0.0146118
1339.1	0.517029	1.10779e-05
1339.6	0.517303	2.57568e-05
1340.1	0.516663	0.00705383
1340.56	-0.698669	-0.0217224
1341.04	0.517792	1.43433e-05
1341.54	0.517853	0.000157013
1342	-0.698761	-0.0144958
1342.48	0.518158	1.06812e-05
1342.98	0.517731	6.7627e-05
1343.46	0.000262451	0.0085022
1343.92	0.517029	1.66321e-05
1344.42	0.51712	4.62952e-05
1344.9	0.000866699	0.00542999
1345.36	0.517517	1.12e-05
1345.86	0.517914	2.88391e-05
1346.36	0.517334	0.0146362
1346.8	0.516907	1.5564e-05
1347.3	0.518036	2.05994e-05
1347.8	0.517914	0.00713135
1348.26	-0.698547	-0.0217468
1348.74	0.518036	1.19629e-05
1349.24	0.518188	0.000156586
1349.7	-0.698761	-0.0145264
1350.18	0.51712	1.72119e-05
1350.68	0.517303	7.28149e-05
1351.16	-0.000280762	0.00846558
1351.62	0.516876	1.8158e-05
1352.12	0.516815	4.89502e-05
1352.6	-0.000497437	0.00543304
1353.06	0.516846	1.67236e-05
1353.56	0.516876	3.55835e-05
1354.06	0.516235	0.0146545
1354.5	0.517273	1.16882e-05
1355	0.517273	2.51465e-05
1355.5	0.516876	0.00722382
1355.96	-0.697784	-0.0217621
1356.44	0.517365	1.80359e-05
1356.94	0.516815	0.000167358
1357.4	-0.698029	-0.014566
1357.88	0.518188	1.07422e-05
1358.38	0.516968	7.31506e-05
1358.86	0.000244141	0.00845337
1359.32	0.517609	1.17493e-05
1359.82	0.516754	4.91333e-05
1360.3	-0.00010376	0.00542572
1360.76	0.516907	1.60828e-05
1361.26	0.516754	3.61328e-05
1361.76	0.516846	0.0146637
1362.2	0.517883	9.91821e-06
1362.7	0.516846	2.92053e-05
1363.2	0.516602	0.00730286
1363.66	-0.697693	-0.0217865
1364.14	0.516907	2.5116e-05
1364.64	0.517944	0.000160889
1365.1	-0.699127	-0.0145813
1365.58	0.516846	2.01721e-05
1366.08	0.518097	6.5979e-05
1366.56	0.000540161	0.00843201
1367.02	0.517792	1.06201e-05
1367.52	0.517975	4.05884e-05
1368	-0.000500488	0.00541931
1368.46	0.517395	1.18713e-05
1368.96	0.516754	3.59192e-05
1369.46	0.516663	0.0147003
1369.9	0.516815	1.55945e-05
1370.4	0.517731	2.52075e-05
1370.9	0.516998	0.0073764
1371.36	-0.697327	-0.0218201
1371.84	0.51825	1.45874e-05
1372.34	0.517975	0.000164093
1372.8	-0.697906	-0.0146271
1373.28	0.517609	1.72119e-05
1373.78	0.516876	7.33337e-05
1374.26	0.000521851	0.00840759
1374.72	0.518005	9.64355e-06
1375.22	0.517365	4.6814e-05
1375.7	-9.76562e-05	0.00540894
1376.16	0.5177	8.17871e-06
1376.66	0.518127	2.81982e-05
1377.16	0.516174	0.0147186
1377.6	0.518036	6.50024e-06
1378.1	0.518219	2.05688e-05
1378.6	0.516724	0.00745453
1379.06	-0.698792	-0.0218323
1379.54	0.516846	2.41394e-05
1380.04	0.517151	0.000171753
1380.5	-0.699188	-0.0146545
1380.98	0.517365	1.84937e-05
1381.48	0.517578	6.82068e-05
1381.96	0.000448608	0.00839233
1382.42	0.516815	1.9043e-05
1382.92	0.517578	4.37317e-05
1383.4	0.000698853	0.00539764
1383.86	0.517151	1.13831e-05
1384.36	0.518005	2.88391e-05
1384.86	0.517517	0.0147278
1385.3	0.518158	5.82886e-06
1385.8	0.517944	2.05688e-05
1386.3	0.516571	0.00753784
1386.76	-0.697418	-0.0218689
1387.24	0.517853	1.80969e-05
1387.74	0.517303	0.000172638
1388.2	-0.698334	-0.0147034
1388.68	0.518158	1.19019e-05
1389.18	0.51709	7.44934e-05
1389.66	-0.000469971	0.00835876
1390.12	0.51828	9.00269e-06
1390.62	0.518066	4.0863e-05
1391.1	-0.000537109	0.00539917
1391.56	0.517883	7.99561e-06
1392.06	0.5177	3.19519e-05
1392.56	0.516937	0.0147369
1393	0.517578	1.10779e-05
1393.5	0.516724	2.97241e-05
1394	0.517822	0.00760193
1394.46	-0.698792	-0.0218811
1394.94	0.51767	1.98364e-05
1395.44	0.51825	0.000168182
1395.9	-0.698151	-0.0147339
1396.38	0.517059	2.005e-05
1396.88	0.517059	7.4707e-05
1397.36	0.000543213	0.0083374
1397.82	0.517365	1.49231e-05
1398.32	0.518188	4.11072e-05
1398.8	0.000241089	0.00538391
1399.26	0.517761	7.8125e-06
1399.76	0.51825	2.71912e-05
1400.26	0.517365	0.0147614
1400.7	0.518219	6.13403e-06
1401.2	0.518311	1.9104e-05
1401.7	0.517242	0.00766296
1402.16	-0.698425	-0.0218994
1402.64	0.517578	1.84326e-05
1403.14	0.51767	0.000172455
1403.6	-0.699219	-0.0147522
1404.08	0.51709	1.95923e-05
1404.58	0.517731	7.14111e-05
1405.06	-0.000717163	0.0083374
1405.52	0.516876	1.94397e-05
1406.02	0.516815	4.92859e-05
1406.5	-0.000488281	0.00538818
1406.96	0.518066	8.60596e-06
1407.46	0.517639	3.19214e-05
1407.96	0.516907	0.0147797
1408.4	0.517761	9.12476e-06
1408.9	0.516754	2.96631e-05
1409.4	0.517883	0.00773315
1409.86	-0.698639	-0.0219269
1410.34	0.518005	1.68152e-05
1410.84	0.518188	0.000172485
1411.3	-0.697906	-0.0147919
1411.78	0.51709	1.82495e-05
1412.28	0.517273	7.54395e-05
1412.76	-0.000759888	0.00831299
1413.22	0.517548	1.31836e-05
1413.72	0.518066	4.04968e-05
1414.2	0.000680542	0.00537079
1414.66	0.516846	1.69373e-05
1415.16	0.517029	3.45764e-05
1415.66	0.516327	0.0148132
1416.1	0.51709	1.41296e-05
1416.6	0.518127	1.98669e-05
1417.1	0.516754	0.00780334
1417.56	-0.698181	-0.0219574
1418.04	0.518127	1.651e-05
1418.54	0.516968	0.000181488
1419	-0.699341	-0.0148224
1419.48	0.516785	2.19421e-05
1419.98	0.51709	7.70569e-05
1420.46	-0.000375366	0.00829773
1420.92	0.516968	1.81885e-05
1421.42	0.517731	4.422e-05
1421.9	0.000396729	0.0053656
1422.36	0.517975	9.42993e-06
1422.86	0.517517	3.24097e-05
1423.36	0.516144	0.0148224
1423.8	0.5177	1.00098e-05
1424.3	0.516785	2.99988e-05
1424.8	0.517395	0.00786743
1425.26	-0.698822	-0.0219696
1425.74	0.51709	2.29187e-05
1426.24	0.516754	0.000186768
1426.7	-0.698334	-0.0148651
1427.18	0.517273	1.94702e-05
1427.68	0.517059	7.75757e-05
1428.16	0.000460815	0.00826721
1428.62	0.516785	1.84021e-05
1429.12	0.517334	4.86755e-05
1429.6	0.000112915	0.00536316
1430.06	0.516754	1.84021e-05
1430.56	0.517944	2.84119e-05
1431.06	0.516144	0.0148407
1431.5	0.516815	1.5625e-05
1432	0.518097	2.15454e-05
1432.5	0.516968	0.00792542
1432.96	-0.698517	-0.0219879
1433.44	0.518097	1.64795e-05
1433.94	0.518188	0.000180145
1434.4	-0.697937	-0.0148895
1434.88	0.516937	2.15149e-05
1435.38	0.518188	6.91528e-05
1435.86	-0.000222778	0.008255
1436.32	0.518097	1.21155e-05
1436.82	0.517792	4.35181e-05
1437.3	0.000527954	0.00534912
1437.76	0.517792	1.04675e-05
1438.26	0.516724	3.83606e-05
1438.76	0.516083	0.014859
1439.2	0.51709	1.171875E-05
1439.7	0.517914	2.23694e-05
1440.2	0.517578	0.00798035
1440.66	-0.697784	-0.0220184
1441.14	0.516876	2.38037e-05
1441.64	0.516876	0.000190399
1442.1	-0.698151	-0.0149139
1442.58	0.516785	2.0813e-05
1443.08	0.517853	7.27539e-05
1443.56	0.000350952	0.00821838
1444.02	0.518341	9.39941e-06
1444.52	0.518158	4.12598e-05
1445	-0.000415039	0.00534973
1445.46	0.517426	1.40076e-05
1445.96	0.516937	3.93982e-05
1446.46	0.516907	0.0148651
1446.9	0.517273	1.40381e-05
1447.4	0.516876	2.92664e-05
1447.9	0.516449	0.00803528
1448.36	-0.697601	-0.0220398
1448.84	0.518066	1.6449e-05
1449.34	0.518066	0.000183929
1449.8	-0.699036	-0.0149536
1450.28	0.516907	2.0813e-05
1450.78	0.516907	7.95288e-05
1451.26	-0.000186157	0.00821228
1451.72	0.516876	1.70593e-05
1452.22	0.516998	5.07202e-05
1452.7	0.000857544	0.00533478
1453.16	0.516815	1.60522e-05
1453.66	0.518311	2.84119e-05
1454.16	0.516907	0.0148865
1454.6	0.516785	1.55029e-05
1455.1	0.516846	2.88391e-05
1455.6	0.516418	0.00809937
1456.06	-0.698761	-0.022052
1456.54	0.516846	2.47192e-05
1457.04	0.518127	0.000186462
1457.5	-0.699219	-0.014978
1457.98	0.518005	1.39771e-05
1458.48	0.517944	7.20825e-05
1458.96	0.000149536	0.00818481
1459.42	0.517975	1.0437e-05
1459.92	0.517426	4.7699e-05
1460.4	0.000457764	0.00533356
1460.86	0.517639	1.24817e-05
1461.36	0.517792	2.98157e-05
1461.86	0.516785	0.0148926
1462.3	0.517853	8.42285e-06
1462.8	0.516907	2.96021e-05
1463.3	0.51712	0.00813293
1463.76	-0.698578	-0.0220642
1464.24	0.516754	2.64893e-05
1464.74	0.518127	0.000188904
1465.2	-0.699158	-0.0150085
1465.68	0.518158	1.29395e-05
1466.18	0.518005	7.34253e-05
1466.66	6.10352e-06	0.0081604
1467.12	0.518036	9.64355e-06
1467.62	0.517487	4.93469e-05
1468.1	-0.000256348	0.0053302
1468.56	0.517761	9.82666e-06
1469.06	0.516815	3.90015e-05
1469.56	0.517303	0.0149017
1470	0.516785	1.53503e-05
1470.5	0.517273	2.78931e-05
1471	0.516479	0.00818481
1471.46	-0.698425	-0.0221069
1471.94	0.517731	1.88599e-05
1472.44	0.517883	0.000194458
1472.9	-0.698242	-0.0150452
1473.38	0.516785	2.07825e-05
1473.88	0.517792	7.63245e-05
1474.36	-0.000488281	0.0081604
1474.82	0.518097	9.70459e-06
1475.32	0.516937	5.19104e-05
1475.8	0.000579834	0.0053302
1476.26	0.518097	8.5144e-06
1476.76	0.518066	3.04871e-05
1477.26	0.516693	0.0149414
1477.7	0.51712	1.36108e-05
1478.2	0.517822	2.44446e-05
1478.7	0.517029	0.0082428
1479.16	-0.698456	-0.0221313
1479.64	0.516937	2.46277e-05
1480.14	0.517456	0.000194733
1480.6	-0.697968	-0.0150818
1481.08	0.516968	1.84326e-05
1481.58	0.516876	8.13293e-05
1482.06	0.000390625	0.00813599
1482.52	0.517242	1.48315e-05
1483.02	0.517456	4.83398e-05
1483.5	-4.88281e-05	0.00531952
1483.96	0.51767	1.17493e-05
1484.46	0.517639	3.28064e-05
1484.96	0.517273	0.0149445
1485.4	0.517853	8.54492e-06
1485.9	0.517883	2.39868e-05
1486.4	0.5177	0.00828247
1486.86	-0.698639	-0.0221527
1487.34	0.517731	1.89514e-05
1487.84	0.517029	0.00020105
1488.3	-0.699188	-0.0151062
1488.78	0.516846	2.01416e-05
1489.28	0.51709	8.13599e-05
1489.76	-0.000744629	0.00812683
1490.22	0.517395	1.474e-05
1490.72	0.51709	5.24902e-05
1491.2	-0.000286865	0.00532104
1491.66	0.518127	7.32422e-06
1492.16	0.518158	3.06091e-05
1492.66	0.516968	0.0149719
1493.1	0.517029	1.35498e-05
1493.6	0.518127	2.18201e-05
1494.1	0.517761	0.00833435
1494.56	-0.698334	-0.0221802
1495.04	0.516846	2.56042e-05
1495.54	0.517365	0.000200562
1496	-0.699219	-0.0151337
1496.48	0.517456	1.54114e-05
1496.98	0.516968	8.20007e-05
1497.46	-0.000668335	0.00809631
1497.92	0.517822	1.19324e-05
1498.42	0.517822	4.43115e-05
1498.9	-0.000180054	0.00531281
1499.36	0.518127	6.92749e-06
1499.86	0.516968	3.84521e-05
1500.36	0.516083	0.0149872
1500.8	0.518158	5.5542e-06
1501.3	0.517975	2.39868e-05
1501.8	0.516632	0.00838623
1502.26	-0.698151	-0.0221985
1502.74	0.516907	2.59399e-05
1503.24	0.516846	0.000207275
1503.7	-0.697723	-0.0151703
1504.18	0.516998	2.16064e-05
1504.68	0.516815	8.35571e-05
1505.16	0.000552368	0.00808105
1505.62	0.516785	2.01416e-05
1506.12	0.516693	5.31616e-05
1506.6	-0.00032959	0.00530487
1507.06	0.517853	1.10474e-05
1507.56	0.518097	2.97852e-05
1508.06	0.516663	0.0149902
1508.5	0.518066	7.59888e-06
1509	0.517548	2.51465e-05
1509.5	0.517151	0.00843811
1509.96	-0.697998	-0.0222076
1510.44	0.518188	1.75476e-05
1510.94	0.517609	0.000203094
1511.4	-0.697662	-0.0152069
1511.88	0.518219	1.35193e-05
1512.38	0.517151	8.11462e-05
1512.86	-2.74658e-05	0.00804749
1513.32	0.516998	1.74866e-05
1513.82	0.516937	5.40466e-05
1514.3	0.000830078	0.00528961
1514.76	0.517426	1.18103e-05
1515.26	0.518005	3.08228e-05
1515.76	0.516052	0.0150146
1516.2	0.516968	1.18408e-05
1516.7	0.516846	3.10669e-05
1517.2	0.516846	0.00848083
1517.66	-0.69812	-0.0222443
1518.14	0.5177	1.91956e-05
1518.64	0.518188	0.000204346
1519.1	-0.698334	-0.0152405
1519.58	0.517151	1.92871e-05
1520.08	0.5177	7.66602e-05
1520.56	-0.000802612	0.00804443
1521.02	0.516815	1.95007e-05
1521.52	0.518005	4.41284e-05
1522	-0.000131226	0.00528564
1522.46	0.516998	1.62659e-05
1522.96	0.517578	3.52478e-05
1523.46	0.517517	0.0150238
1523.9	0.516846	1.59302e-05
1524.4	0.517639	2.6886e-05
1524.9	0.517761	0.00852051
1525.36	-0.697998	-0.0222565
1525.84	0.517883	2.11487e-05
1526.34	0.51825	0.000206299
1526.8	-0.699188	-0.0152588
1527.28	0.516907	2.17285e-05
1527.78	0.518311	7.65381e-05
1528.26	-0.000109863	0.00802917
1528.72	0.518005	1.09558e-05
1529.22	0.518036	4.58069e-05
1529.7	-0.000317383	0.00527924
1530.16	0.517578	1.33362e-05
1530.66	0.516815	3.87268e-05
1531.16	0.516083	0.0150452
1531.6	0.517609	1.2085e-05
1532.1	0.516968	3.03955e-05
1532.6	0.516479	0.00857544
1533.06	-0.698334	-0.0222656
1533.54	0.518219	1.47705e-05
1534.04	0.516815	0.000218292
1534.5	-0.699066	-0.0152954
1534.98	0.516937	2.0874e-05
1535.48	0.517548	7.9895e-05
1535.96	0.000146484	0.00799255
1536.42	0.517303	1.6449e-05
1536.92	0.516907	5.36499e-05
1537.4	0.000265503	0.00526642
1537.86	0.51712	1.62048e-05
1538.36	0.517426	3.51562e-05
1538.86	0.516571	0.0150604
1539.3	0.516815	1.69373e-05
1539.8	0.517029	3.01208e-05
1540.3	0.517822	0.00861816
1540.76	-0.698822	-0.02229
1541.24	0.51767	2.22473e-05
1541.74	0.51767	0.000216766
1542.2	-0.698303	-0.0153351
1542.68	0.517731	1.4679e-05
1543.18	0.518066	7.96509e-05
1543.66	-2.74658e-05	0.00798645
1544.12	0.517242	1.84326e-05
1544.62	0.518066	4.48303e-05
1545.1	-0.000332642	0.00526215
1545.56	0.517883	1.09558e-05
1546.06	0.517975	3.15552e-05
1546.56	0.516937	0.0150726
1547	0.518005	8.39233e-06
1547.5	0.516907	3.00598e-05
1548	0.517395	0.00866394
1548.46	-0.698303	-0.0223206
1548.94	0.518188	1.59912e-05
1549.44	0.518036	0.000217346
1549.9	-0.698059	-0.0153534
1550.38	0.518158	1.30005e-05
1550.88	0.51709	8.68835e-05
1551.36	0.00038147	0.00795288
1551.82	0.51712	1.80664e-05
1552.32	0.518158	4.5929e-05
1552.8	-0.00017395	0.00525238
1553.26	0.51828	8.60596e-06
1553.76	0.517853	3.302e-05
1554.26	0.517517	0.0150726
1554.7	0.517334	1.18103e-05
1555.2	0.516876	3.28369e-05
1555.7	0.517548	0.00870361
1556.16	-0.69873	-0.0223297
1556.64	0.517029	2.30713e-05
1557.14	0.517944	0.00021994
1557.6	-0.698151	-0.0153809
1558.08	0.517761	1.59302e-05
1558.58	0.517883	8.04138e-05
1559.06	-0.000866699	0.00794373
1559.52	0.516937	1.98059e-05
1560.02	0.516754	5.5542e-05
1560.5	-9.15527e-05	0.00524292
1560.96	0.5177	1.37329e-05
1561.46	0.518127	3.11279e-05
1561.96	0.517395	0.0150879
1562.4	0.516846	1.48926e-05
1562.9	0.517975	2.66724e-05
1563.4	0.517273	0.00874939
1563.86	-0.697784	-0.0223511
1564.34	0.517914	1.86157e-05
1564.84	0.518341	0.000225037
1565.3	-0.697845	-0.0154114
1565.78	0.51709	2.16064e-05
1566.28	0.516785	8.91113e-05
1566.76	-0.000476074	0.00792236
1567.22	0.516846	2.02942e-05
1567.72	0.517395	5.24597e-05
1568.2	9.76562e-05	0.00523529
1568.66	0.517792	1.43738e-05
1569.16	0.518219	3.2135e-05
1569.66	0.516296	0.0151123
1570.1	0.517639	1.0437e-05
1570.6	0.517761	2.81372e-05
1571.1	0.516663	0.00877075
1571.56	-0.697723	-0.0223602
1572.04	0.517334	2.15759e-05
1572.54	0.51712	0.000238434
1573	-0.699066	-0.0154419
1573.48	0.51712	2.1698e-05
1573.98	0.517303	8.63342e-05
1574.46	-0.000164795	0.0079071
1574.92	0.51767	1.43433e-05
1575.42	0.518097	4.83093e-05
1575.9	0.000756836	0.00522491
1576.36	0.517578	1.21765e-05
1576.86	0.517365	3.65906e-05
1577.36	0.516022	0.0151123
1577.8	0.518127	7.44629e-06
1578.3	0.517029	3.25928e-05
1578.8	0.516602	0.00881042
1579.26	-0.697357	-0.0223816
1579.74	0.516785	2.6886e-05
1580.24	0.517242	0.000236023
1580.7	-0.698547	-0.0154724
1581.18	0.517883	1.58081e-05
1581.68	0.517975	8.13599e-05
1582.16	0.000125122	0.00789185
1582.62	0.518188	1.14136e-05
1583.12	0.517853	4.91638e-05
1583.6	0.000421143	0.00522095
1584.06	0.518219	8.17871e-06
1584.56	0.516846	4.11072e-05
1585.06	0.516205	0.0151306
1585.5	0.51712	1.45874e-05
1586	0.518097	2.32544e-05
1586.5	0.516479	0.0088562
1586.96	-0.697449	-0.0223999
1587.44	0.518097	1.77002e-05
1587.94	0.516754	0.000245178
1588.4	-0.697845	-0.0154968
1588.88	0.518127	1.30005e-05
1589.38	0.51825	8.11768e-05
1589.86	0.000567627	0.00786743
1590.32	0.518036	1.01624e-05
1590.82	0.518219	4.74548e-05
1591.3	0.000527954	0.00520782
1591.76	0.517792	1.03149e-05
1592.26	0.517914	3.69568e-05
1592.76	0.517487	0.0151276
1593.2	0.517914	9.06372e-06
1593.7	0.51825	2.32544e-05
1593.92	0.518036	6.10352e-06