File: Edgar/20240531/20240531/electrodeposition_pulsed_potential_20240531_B/pulses_3000_to_4000.txt
Time (s)	WE(1).Potential (V)	WE(1).Current (A)
2319.03	-0.698669	-0.0234406
2319.51	0.517365	2.44446e-05
2320.01	0.51709	0.00193237
2320.47	-0.699036	-0.0175354
2320.95	0.517578	2.11487e-05
2321.45	0.516846	0.000156586
2321.93	-0.000610352	0.0063269
2322.39	0.518036	1.58386e-05
2322.89	0.517426	7.32117e-05
2323.37	0.000338745	0.00437439
2323.83	0.516907	2.14539e-05
2324.33	0.517334	4.83093e-05
2324.83	0.516968	0.0156494
2325.27	0.51825	1.02844e-05
2325.77	0.51712	3.77808e-05
2326.27	0.51767	0.0108154
2326.73	-0.698303	-0.0235046
2327.21	0.517944	2.59705e-05
2327.71	0.517914	0.00281372
2328.17	-0.699097	-0.0175385
2328.65	0.517029	2.72217e-05
2329.15	0.516968	0.000158875
2329.63	0.00055542	0.006328125
2330.09	0.518066	1.55945e-05
2330.59	0.516998	7.55615e-05
2331.07	0.000640869	0.0043927
2331.53	0.516815	2.16064e-05
2332.03	0.517273	4.90112e-05
2332.53	0.516388	0.015683
2332.97	0.518188	9.73511e-06
2333.47	0.517578	3.4668e-05
2333.97	0.5177	0.0108337
2334.43	-0.698242	-0.023526
2334.91	0.516815	3.12805e-05
2335.41	0.51825	0.00314667
2335.87	-0.697815	-0.0175629
2336.35	0.517212	2.54517e-05
2336.85	0.517517	0.000161316
2337.33	-0.000460815	0.00633057
2337.79	0.516846	2.34985e-05
2338.29	0.516968	7.62024e-05
2338.77	0.000369263	0.00439392
2339.23	0.517456	1.98975e-05
2339.73	0.516907	5.26428e-05
2340.23	0.516113	0.0156921
2340.67	0.516876	1.95618e-05
2341.17	0.516663	4.12598e-05
2341.67	0.516388	0.0108582
2342.13	-0.698425	-0.0235443
2342.61	0.518097	2.31018e-05
2343.11	0.5177	0.00335266
2343.57	-0.699036	-0.0175751
2344.05	0.517944	2.03552e-05
2344.55	0.516937	0.000163391
2345.03	0.00062561	0.00631805
2345.49	0.516876	2.47803e-05
2345.99	0.517395	7.24792e-05
2346.47	0.000811768	0.00438721
2346.93	0.518158	1.21155e-05
2347.43	0.517883	4.61426e-05
2347.93	0.517426	0.0156952
2348.37	0.518219	1.11389e-05
2348.87	0.517914	3.25012e-05
2349.37	0.517395	0.0108612
2349.83	-0.697571	-0.0235504
2350.31	0.516937	3.25928e-05
2350.81	0.516846	0.00354187
2351.27	-0.699066	-0.0175873
2351.75	0.517334	2.41699e-05
2352.25	0.516876	0.000166077
2352.73	-0.000186157	0.00630585
2353.19	0.516724	2.48718e-05
2353.69	0.517456	7.56531e-05
2354.17	0.000756836	0.00437897
2354.63	0.517334	1.84937e-05
2355.13	0.518158	4.45557e-05
2355.63	0.517456	0.0156982
2356.07	0.517303	1.66321e-05
2356.57	0.518158	3.08533e-05
2357.07	0.517365	0.0108917
2357.53	-0.698639	-0.0235474
2358.01	0.517365	3.0365e-05
2358.51	0.518066	0.00370819
2358.97	-0.697632	-0.0176086
2359.45	0.517273	2.74963e-05
2359.95	0.517914	0.000160522
2360.43	0.000714111	0.00629303
2360.89	0.517853	1.7334e-05
2361.39	0.517029	7.58057e-05
2361.87	-0.00062561	0.00438202
2362.33	0.516785	2.19116e-05
2362.83	0.517395	5.09338e-05
2363.33	0.516022	0.0156952
2363.77	0.51825	1.05591e-05
2364.27	0.517395	3.66516e-05
2364.77	0.516327	0.0109009
2365.23	-0.697876	-0.0235657
2365.71	0.518036	2.5177e-05
2366.21	0.517609	0.00386688
2366.67	-0.697906	-0.0176239
2367.15	0.516724	2.81677e-05
2367.65	0.518158	0.000159912
2368.13	-0.000674438	0.0062854
2368.59	0.517059	2.21252e-05
2369.09	0.517975	7.03735e-05
2369.57	0.00078125	0.00436707
2370.03	0.5177	1.62048e-05
2370.53	0.518127	4.54712e-05
2371.03	0.516754	0.0156952
2371.47	0.516968	1.59302e-05
2371.97	0.518066	3.33557e-05
2372.47	0.516602	0.0109161
2372.93	-0.698059	-0.0235596
2373.41	0.518036	2.45972e-05
2373.91	0.518188	0.00400208
2374.37	-0.697906	-0.0176361
2374.85	0.516846	2.81982e-05
2375.35	0.516785	0.000171906
2375.83	0.000817871	0.00626984
2376.29	0.51709	2.23999e-05
2376.79	0.517883	7.25098e-05
2377.27	3.05176e-06	0.00436493
2377.73	0.517456	1.90735e-05
2378.23	0.517029	5.16052e-05
2378.73	0.516693	0.0157043
2379.17	0.516937	1.94702e-05
2379.67	0.517151	3.96118e-05
2380.17	0.517609	0.0109192
2380.63	-0.698029	-0.0235626
2381.11	0.517059	3.32947e-05
2381.61	0.516937	0.00411438
2382.07	-0.699066	-0.0176361
2382.55	0.518158	1.95923e-05
2383.05	0.516968	0.000170807
2383.53	0.000335693	0.00626221
2383.99	0.517181	2.29492e-05
2384.49	0.516815	7.83691e-05
2384.97	0.00027771	0.00436096
2385.43	0.516846	1.98364e-05
2385.93	0.517426	5.06897e-05
2386.43	0.516205	0.0157074
2386.87	0.516846	1.83716e-05
2387.37	0.517822	3.40271e-05
2387.87	0.5177	0.0109283
2388.33	-0.697754	-0.0235657
2388.81	0.516998	3.27759e-05
2389.31	0.517426	0.004216
2389.77	-0.698975	-0.0176483
2390.25	0.518036	1.97144e-05
2390.75	0.517853	0.000166168
2391.23	-0.000668335	0.00625366
2391.69	0.517731	1.63879e-05
2392.19	0.518188	6.97021e-05
2392.67	-0.000408936	0.00435852
2393.13	0.516815	2.06299e-05
2393.63	0.517639	5.08728e-05
2394.13	0.516632	0.0157135
2394.57	0.516968	2.01111e-05
2395.07	0.517151	3.94897e-05
2395.57	0.5177	0.0109344
2396.03	-0.69751	-0.023587
2396.51	0.516815	3.41492e-05
2397.01	0.516937	0.0043808
2397.47	-0.698822	-0.0176697
2397.95	0.518127	2.23083e-05
2398.45	0.517517	0.000169006
2398.93	-0.000289917	0.00623596
2399.39	0.517273	2.21558e-05
2399.89	0.516815	8.01697e-05
2400.37	-0.00062561	0.00434906
2400.83	0.517761	1.60217e-05
2401.33	0.5177	4.8645e-05
2401.83	0.516602	0.0157104
2402.27	0.516998	1.78833e-05
2402.77	0.518036	3.28674e-05
2403.27	0.51767	0.0109558
2403.73	-0.698669	-0.0235809
2404.21	0.517883	2.57568e-05
2404.71	0.517365	0.00450104
2405.17	-0.697784	-0.017688
2405.65	0.517761	2.20032e-05
2406.15	0.517487	0.000170471
2406.63	0.000262451	0.00621704
2407.09	0.518097	1.62354e-05
2407.59	0.518066	7.15942e-05
2408.07	0.000860596	0.00433258
2408.53	0.517273	1.93176e-05
2409.03	0.518188	4.47693e-05
2409.53	0.516785	0.0157135
2409.97	0.517487	1.21765e-05
2410.47	0.517181	3.85742e-05
2410.97	0.516449	0.0109619
2411.43	-0.69873	-0.023587
2411.91	0.518097	2.80457e-05
2412.41	0.516907	0.00461609
2412.87	-0.697662	-0.0177002
2413.35	0.516968	2.88391e-05
2413.85	0.517242	0.000171875
2414.33	0.000689697	0.00620422
2414.79	0.517639	1.88293e-05
2415.29	0.516907	8.08105e-05
2415.77	-0.000531006	0.00433472
2416.23	0.518341	1.26038e-05
2416.73	0.517944	4.62036e-05
2417.23	0.516693	0.0157318
2417.67	0.516846	1.90735e-05
2418.17	0.516907	4.27856e-05
2418.67	0.516541	0.0109894
2419.13	-0.697388	-0.0236053
2419.61	0.518188	2.53296e-05
2420.11	0.516876	0.00471649
2420.57	-0.697693	-0.0177124
2421.05	0.517822	2.1698e-05
2421.55	0.516907	0.000178497
2422.03	0.000408936	0.00619385
2422.49	0.516785	2.56653e-05
2422.99	0.516815	7.9895e-05
2423.47	-6.71387e-05	0.00432343
2423.93	0.518188	1.28784e-05
2424.43	0.516693	5.37109e-05
2424.93	0.516113	0.0157318
2425.37	0.516876	1.85852e-05
2425.87	0.516846	4.14429e-05
2426.37	0.517639	0.0109863
2426.83	-0.698029	-0.0235962
2427.31	0.518219	2.57874e-05
2427.81	0.518066	0.00478577
2428.27	-0.697784	-0.0177246
2428.75	0.516815	2.948e-05
2429.25	0.516968	0.000180237
2429.73	0.000408936	0.00618042
2430.19	0.5177	1.83716e-05
2430.69	0.517059	8.00476e-05
2431.17	0.000817871	0.00430969
2431.63	0.516937	2.1698e-05
2432.13	0.516815	5.34058e-05
2432.63	0.516541	0.0157196
2433.07	0.516846	1.87073e-05
2433.57	0.517487	3.71399e-05
2434.07	0.516785	0.0110016
2434.53	-0.697296	-0.0236176
2435.01	0.516846	3.48511e-05
2435.51	0.516968	0.00488983
2435.97	-0.697632	-0.0177429
2436.45	0.516663	2.97852e-05
2436.95	0.517242	0.000179779
2437.43	-0.00045166	0.0061731
2437.89	0.517029	2.38953e-05
2438.39	0.517975	7.23267e-05
2438.87	0.000811768	0.00430145
2439.33	0.516937	2.20337e-05
2439.83	0.516998	5.12695e-05
2440.33	0.517426	0.0157166
2440.77	0.51709	1.73035e-05
2441.27	0.51712	3.97339e-05
2441.77	0.516571	0.0110199
2442.23	-0.698608	-0.0236084
2442.71	0.517334	2.96021e-05
2443.21	0.51767	0.00495209
2443.67	-0.697662	-0.0177551
2444.15	0.517761	2.24915e-05
2444.65	0.517944	0.000179626
2445.13	0.000588989	0.00615021
2445.59	0.517273	2.05383e-05
2446.09	0.517273	7.9895e-05
2446.57	-0.000543213	0.00430237
2447.03	0.517792	1.73645e-05
2447.53	0.517883	4.67224e-05
2448.03	0.516266	0.0157227
2448.47	0.5177	1.42212e-05
2448.97	0.518036	3.29895e-05
2449.47	0.516357	0.0110199
2449.93	-0.697235	-0.0236267
2450.41	0.518066	2.5177e-05
2450.91	0.517212	0.00505035
2451.37	-0.699066	-0.0177582
2451.85	0.518127	2.05688e-05
2452.35	0.516754	0.000187317
2452.83	0.000686646	0.00614075
2453.29	0.518158	1.65405e-05
2453.79	0.516907	8.23975e-05
2454.27	0.000756836	0.00428284
2454.73	0.517029	2.3407e-05
2455.23	0.518036	4.62341e-05
2455.73	0.516022	0.0157349
2456.17	0.517639	1.46484e-05
2456.67	0.517212	4.09241e-05
2457.17	0.51709	0.011026
2457.63	-0.69751	-0.0236359
2458.11	0.518188	2.60925e-05
2458.61	0.517944	0.00512787
2459.07	-0.697693	-0.0177704
2459.55	0.51767	2.29187e-05
2460.05	0.517029	0.000187622
2460.53	-0.00027771	0.00613586
2460.99	0.518188	1.54419e-05
2461.49	0.518097	7.48596e-05
2461.97	-0.000463867	0.00428314
2462.43	0.517059	2.06909e-05
2462.93	0.516815	5.58777e-05
2463.43	0.517303	0.0157288
2463.87	0.518097	1.16577e-05
2464.37	0.5177	3.57361e-05
2464.87	0.517609	0.011026
2465.33	-0.697357	-0.0236359
2465.81	0.516754	3.50342e-05
2466.31	0.517975	0.00519135
2466.77	-0.698578	-0.0177979
2467.25	0.518158	2.0874e-05
2467.75	0.517822	0.000185059
2468.23	-0.00055542	0.00612427
2468.69	0.516846	2.39563e-05
2469.19	0.516907	8.23669e-05
2469.67	9.76562e-05	0.00427734
2470.13	0.517303	1.91345e-05
2470.63	0.518066	4.80652e-05
2471.13	0.516907	0.0157227
2471.57	0.517548	1.61743e-05
2472.07	0.517059	3.98865e-05
2472.57	0.516968	0.0110413
2473.03	-0.698578	-0.023642
2473.51	0.517334	2.92053e-05
2474.01	0.517609	0.00527161
2474.47	-0.698822	-0.017804
2474.95	0.516937	2.92664e-05
2475.45	0.517517	0.000187836
2475.93	-0.000268555	0.00610901
2476.39	0.517639	2.05078e-05
2476.89	0.518005	7.44629e-05
2477.37	0.000579834	0.00425873
2477.83	0.51712	2.04163e-05
2478.33	0.516968	5.42908e-05
2478.83	0.516968	0.015741
2479.27	0.51825	9.61304e-06
2479.77	0.5177	3.61938e-05
2480.27	0.516357	0.0110596
2480.73	-0.698608	-0.0236389
2481.21	0.518097	2.38647e-05
2481.71	0.516724	0.00533844
2482.17	-0.699036	-0.0178131
2482.65	0.517578	2.37732e-05
2483.15	0.51828	0.000186462
2483.63	0.000787354	0.00609131
2484.09	0.517853	1.75781e-05
2484.59	0.516754	8.31909e-05
2485.07	0.000100708	0.00425751
2485.53	0.517822	1.50757e-05
2486.03	0.516815	5.60303e-05
2486.53	0.516968	0.0157257
2486.97	0.517517	1.50757e-05
2487.47	0.516968	4.11987e-05
2487.97	0.517456	0.0110596
2488.43	-0.698181	-0.0236511
2488.91	0.518158	2.47803e-05
2489.41	0.516724	0.00542328
2489.87	-0.697754	-0.0178375
2490.35	0.518188	2.07214e-05
2490.85	0.516907	0.000196716
2491.33	-0.000238037	0.00608337
2491.79	0.51767	2.14539e-05
2492.29	0.518127	7.63855e-05
2492.77	0.000161743	0.00424896
2493.23	0.517059	2.1698e-05
2493.73	0.516907	5.5603e-05
2494.23	0.517426	0.0157288
2494.67	0.517456	1.55334e-05
2495.17	0.517731	3.36914e-05
2495.67	0.517303	0.0110687
2496.13	-0.698425	-0.0236511
2496.61	0.518158	2.59705e-05
2497.11	0.516907	0.00548462
2497.57	-0.698975	-0.0178406
2498.05	0.518158	2.01416e-05
2498.55	0.517059	0.000198608
2499.03	-0.000512695	0.00607208
2499.49	0.518188	1.69067e-05
2499.99	0.517792	7.71179e-05
2500.47	0	0.00424164
2500.93	0.51825	1.31531e-05
2501.43	0.517273	5.42908e-05
2501.93	0.516144	0.0157318
2502.37	0.516998	1.86157e-05
2502.87	0.518219	3.43018e-05
2503.37	0.516602	0.0110931
2503.83	-0.698059	-0.0236664
2504.31	0.516937	3.43933e-05
2504.81	0.517914	0.00551941
2505.27	-0.698853	-0.0178467
2505.75	0.516785	2.948e-05
2506.25	0.516968	0.00019931
2506.73	0.000720215	0.00605072
2507.19	0.517273	2.23083e-05
2507.69	0.517822	7.95898e-05
2508.17	-0.000637817	0.00423492
2508.63	0.518036	1.40991e-05
2509.13	0.518188	4.75159e-05
2509.63	0.516541	0.015741
2510.07	0.516846	2.05688e-05
2510.57	0.516785	4.32434e-05
2511.07	0.516327	0.0111053
2511.53	-0.698547	-0.0236633
2512.01	0.516815	3.46069e-05
2512.51	0.516663	0.0055838
2512.97	-0.698792	-0.0178772
2513.45	0.517059	2.96326e-05
2513.95	0.516815	0.000203735
2514.43	-0.000170898	0.00604218
2514.89	0.518066	1.74561e-05
2515.39	0.517303	8.01086e-05
2515.87	-0.00010376	0.00422089
2516.33	0.517517	1.84326e-05
2516.83	0.517212	5.23987e-05
2517.33	0.516846	0.0157288
2517.77	0.517303	1.49841e-05
2518.27	0.518127	3.40881e-05
2518.77	0.517181	0.0110992
2519.23	-0.697479	-0.0236725
2519.71	0.517029	3.1189e-05
2520.21	0.517761	0.00563812
2520.67	-0.698608	-0.0178833
2521.15	0.516937	2.92053e-05
2521.65	0.517456	0.000203156
2522.13	-0.000494385	0.00603516
2522.59	0.516754	2.45972e-05
2523.09	0.517883	7.77283e-05
2523.57	0.000787354	0.00420868
2524.03	0.516846	2.13013e-05
2524.53	0.516815	5.72815e-05
2525.03	0.517059	0.0157349
2525.47	0.517273	1.67542e-05
2525.97	0.51767	3.77197e-05
2526.47	0.516907	0.0111115
2526.93	-0.698792	-0.0236786
2527.41	0.51767	2.89001e-05
2527.91	0.517883	0.00569092
2528.37	-0.699005	-0.0178864
2528.85	0.516876	2.99988e-05
2529.35	0.516876	0.000207916
2529.83	0.000662231	0.00601135
2530.29	0.517456	2.19116e-05
2530.79	0.516785	8.58459e-05
2531.27	0.000286865	0.00420624
2531.73	0.518036	1.48621e-05
2532.23	0.517334	5.35583e-05
2532.73	0.516418	0.0157379
2533.17	0.517853	1.23901e-05
2533.67	0.517792	3.71399e-05
2534.17	0.51709	0.0111237
2534.63	-0.698029	-0.0236847
2535.11	0.516937	3.30505e-05
2535.61	0.516846	0.00574188
2536.07	-0.697968	-0.0179047
2536.55	0.516907	2.8717e-05
2537.05	0.517761	0.000202301
2537.53	0.000537109	0.00600067
2537.99	0.517212	2.55432e-05
2538.49	0.517242	8.22754e-05
2538.97	-0.000415039	0.00420135
2539.43	0.516876	2.25525e-05
2539.93	0.51709	5.29785e-05
2540.43	0.517365	0.0157257
2540.87	0.517914	1.26648e-05
2541.37	0.516937	4.21753e-05
2541.87	0.516724	0.0111267
2542.33	-0.697571	-0.0236908
2542.81	0.51712	3.302e-05
2543.31	0.51767	0.00578705
2543.77	-0.697723	-0.017926
2544.25	0.518097	1.9928e-05
2544.75	0.518127	0.000202545
2545.23	0.000674438	0.00598877
2545.69	0.516998	2.56042e-05
2546.19	0.516754	8.69446e-05
2546.67	-5.49316e-05	0.0041861
2547.13	0.51709	2.12708e-05
2547.63	0.517914	5.10254e-05
2548.13	0.517303	0.0157318
2548.57	0.517944	1.10168e-05
2549.07	0.517059	4.21143e-05
2549.57	0.516327	0.011145
2550.03	-0.697296	-0.0236969
2550.51	0.517273	3.0426e-05
2551.01	0.516998	0.00583374
2551.47	-0.698517	-0.017923
2551.95	0.517029	2.79236e-05
2552.45	0.517731	0.00020401
2552.93	-0.000735474	0.00598419
2553.39	0.517151	2.4353e-05
2553.89	0.518097	7.93457e-05
2554.37	0.000665283	0.00418091
2554.83	0.516815	2.22473e-05
2555.33	0.517578	5.23071e-05
2555.83	0.516205	0.015744
2556.27	0.517609	1.48926e-05
2556.77	0.518097	3.53394e-05
2557.27	0.517242	0.0111511
2557.73	-0.697174	-0.023703
2558.21	0.516876	3.54919e-05
2558.71	0.516846	0.00587646
2559.17	-0.698975	-0.0179413
2559.65	0.51709	2.90833e-05
2560.15	0.517059	0.000212402
2560.63	0.000616455	0.00596863
2561.09	0.516815	2.68555e-05
2561.59	0.517548	8.06274e-05
2562.07	0.000808716	0.00417175
2562.53	0.516785	2.39868e-05
2563.03	0.517883	4.953e-05
2563.53	0.517334	0.0157379
2563.97	0.517395	1.59912e-05
2564.47	0.516693	4.36707e-05
2564.97	0.517487	0.0111572
2565.43	-0.697296	-0.0237061
2565.91	0.517944	2.7771e-05
2566.41	0.516693	0.00591156
2566.87	-0.69812	-0.0179504
2567.35	0.517853	2.38647e-05
2567.85	0.51709	0.000215179
2568.33	0.000170898	0.00595581
2568.79	0.518158	1.80054e-05
2569.29	0.51767	8.11462e-05
2569.77	-9.76562e-05	0.0041687
2570.23	0.516937	2.26746e-05
2570.73	0.516754	5.76172e-05
2571.23	0.516815	0.0157318
2571.67	0.5177	1.46179e-05
2572.17	0.516937	4.31519e-05
2572.67	0.517426	0.0111725
2573.13	-0.698334	-0.0237122
2573.61	0.516907	3.35999e-05
2574.11	0.517242	0.00595428
2574.57	-0.698975	-0.0179596
2575.05	0.517944	1.96533e-05
2575.55	0.517639	0.000212067
2576.03	-0.000323486	0.00594818
2576.49	0.518066	1.77917e-05
2576.99	0.516754	8.59375E-05
2577.47	0.00017395	0.00415588
2577.93	0.518066	1.50757e-05
2578.43	0.51709	5.52368e-05
2578.93	0.51593	0.015741
2579.37	0.518158	1.22375e-05
2579.87	0.518158	3.51257e-05
2580.37	0.516296	0.0111786
2580.83	-0.698334	-0.0237091
2581.31	0.518097	2.56653e-05
2581.81	0.51712	0.0059967
2582.27	-0.699066	-0.0179779
2582.75	0.516998	2.89307e-05
2583.25	0.518127	0.00021283
2583.73	-0.000518799	0.00593445
2584.19	0.516937	2.61841e-05
2584.69	0.517609	8.15735e-05
2585.17	0.00078125	0.00414856
2585.63	0.518127	1.40686e-05
2586.13	0.517883	5.09338e-05
2586.63	0.516296	0.0157471
2587.07	0.516785	2.02942e-05
2587.57	0.517609	3.70789e-05
2588.07	0.517395	0.0111816
2588.53	-0.698151	-0.0237457
2589.01	0.516785	3.51562e-05
2589.51	0.517883	0.00605469
2589.97	-0.698639	-0.0180023
2590.45	0.516815	3.0426e-05
2590.95	0.516846	0.000226379
2591.43	0.000250244	0.00592285
2591.89	0.516937	2.60925e-05
2592.39	0.51825	7.96509e-05
2592.87	0.000765991	0.004140625
2593.33	0.517822	1.84937e-05
2593.83	0.518127	4.84619e-05
2594.33	0.515991	0.0157379
2594.77	0.518127	1.19019e-05
2595.27	0.516663	4.31824e-05
2595.77	0.516418	0.011203
2596.23	-0.697815	-0.0237396
2596.71	0.518158	2.6825e-05
2597.21	0.516846	0.00610748
2597.67	-0.698914	-0.0180115
2598.15	0.517151	2.7832e-05
2598.65	0.518097	0.000220215
2599.13	-0.000439453	0.005914
2599.59	0.517029	2.63062e-05
2600.09	0.516937	8.97827e-05
2600.57	0.000701904	0.00413055
2601.03	0.516815	2.30713e-05
2601.53	0.516968	5.8197e-05
2602.03	0.516418	0.015741
2602.47	0.517059	1.84326e-05
2602.97	0.51767	3.78113e-05
2603.47	0.517761	0.0112
2603.93	-0.698669	-0.0237396
2604.41	0.518097	2.72217e-05
2604.91	0.516663	0.00614471
2605.37	-0.698975	-0.0180206
2605.85	0.516754	3.06396e-05
2606.35	0.517181	0.000227753
2606.83	-0.00057373	0.00590149
2607.29	0.517883	1.88904e-05
2607.79	0.518066	8.05664e-05
2608.27	-9.46045e-05	0.00413269
2608.73	0.516846	2.32544e-05
2609.23	0.518188	4.87976e-05
2609.73	0.515991	0.0157471
2610.17	0.518219	1.12305e-05
2610.67	0.517029	4.15649e-05
2611.17	0.51651	0.0112183
2611.63	-0.698212	-0.0237488
2612.11	0.516815	3.66516e-05
2612.61	0.517853	0.00616547
2613.07	-0.697937	-0.0180328
2613.55	0.517944	2.23999e-05
2614.05	0.517975	0.000224274
2614.53	-0.000576782	0.00588806
2614.99	0.516785	2.6001e-05
2615.49	0.517395	8.52661e-05
2615.97	-0.00055542	0.00412476
2616.43	0.516876	2.24609e-05
2616.93	0.518219	4.94385e-05
2617.43	0.517365	0.0157318
2617.87	0.5177	1.52283e-05
2618.37	0.517975	3.52478e-05
2618.87	0.516418	0.0112274
2619.33	-0.697449	-0.0237518
2619.81	0.517212	3.18909e-05
2620.31	0.516754	0.0062085
2620.77	-0.698914	-0.018045
2621.25	0.518127	2.10571e-05
2621.75	0.517578	0.000230164
2622.23	0.000408936	0.00587189
2622.69	0.517242	2.39868e-05
2623.19	0.517395	8.42896e-05
2623.67	0.000537109	0.00410675
2624.13	0.518127	1.57166e-05
2624.63	0.517853	5.07507e-05
2625.13	0.517212	0.0157288
2625.57	0.517853	1.40991e-05
2626.07	0.517487	3.75366e-05
2626.57	0.516693	0.0112213
2627.03	-0.698425	-0.0237549
2627.51	0.517029	3.35388e-05
2628.01	0.51767	0.00623566
2628.47	-0.699005	-0.0180542
2628.95	0.517548	2.38037e-05
2629.45	0.517914	0.000229828
2629.93	-0.000613403	0.00586548
2630.39	0.518127	1.59912e-05
2630.89	0.518158	8.27026e-05
2631.37	-0.000552368	0.00410797
2631.83	0.517303	2.01721e-05
2632.33	0.516937	5.79834e-05
2632.83	0.51651	0.015741
2633.27	0.516754	2.09961e-05
2633.77	0.518005	3.56445e-05
2634.27	0.516235	0.0112274
2634.73	-0.69809	-0.0237488
2635.21	0.517456	3.18909e-05
2635.71	0.51709	0.00627625
2636.17	-0.698059	-0.0180634
2636.65	0.517151	2.89001e-05
2637.15	0.517731	0.000235046
2637.63	-9.15527e-05	0.00585175
2638.09	0.518066	1.8219e-05
2638.59	0.517975	8.29773e-05
2639.07	-0.000265503	0.00409424
2639.53	0.517181	1.98364e-05
2640.03	0.518188	4.95605e-05
2640.53	0.516998	0.0157349
2640.97	0.516754	2.13013e-05
2641.47	0.517914	3.62549e-05
2641.97	0.516296	0.0112488
2642.43	-0.698547	-0.0237549
2642.91	0.516937	3.30505e-05
2643.41	0.518036	0.00630219
2643.87	-0.697571	-0.0180847
2644.35	0.517181	2.77405e-05
2644.85	0.517151	0.000239075
2645.33	-0.000698853	0.00584167
2645.79	0.516846	2.54211e-05
2646.29	0.516815	9.22241e-05
2646.77	0.000741577	0.00408356
2647.23	0.516876	2.21863e-05
2647.73	0.517334	5.5542e-05
2648.23	0.516144	0.015744
2648.67	0.517822	1.50757e-05
2649.17	0.516907	4.37317e-05
2649.67	0.516327	0.0112518
2650.13	-0.698639	-0.0237701
2650.61	0.518066	2.71912e-05
2651.11	0.517609	0.0063382
2651.57	-0.698914	-0.0180878
2652.05	0.51712	2.83813e-05
2652.55	0.517212	0.000242371
2653.03	-5.49316e-05	0.0058252
2653.49	0.516907	2.6001e-05
2653.99	0.517578	8.52661e-05
2654.47	0.000152588	0.00407898
2654.93	0.516815	2.11792e-05
2655.43	0.51709	5.66101e-05
2655.93	0.516754	0.0157349
2656.37	0.517212	1.86157e-05
2656.87	0.51828	3.50647e-05
2657.37	0.517426	0.0112457
2657.83	-0.697266	-0.0237793
2658.31	0.517731	2.82593e-05
2658.81	0.517609	0.00636414
2659.27	-0.697845	-0.0181061
2659.75	0.516968	2.89612e-05
2660.25	0.516907	0.000247681
2660.73	-0.000424194	0.00581604
2661.19	0.517578	1.95007e-05
2661.69	0.517975	8.53271e-05
2662.17	0.000588989	0.00406738
2662.63	0.518188	1.35193e-05
2663.13	0.517944	5.34058e-05
2663.63	0.516846	0.0157471
2664.07	0.516815	2.07214e-05
2664.57	0.516815	4.48608e-05
2665.07	0.516418	0.011261
2665.53	-0.698212	-0.0237671
2666.01	0.5177	2.97241e-05
2666.51	0.517853	0.00639618
2666.97	-0.698975	-0.0181152
2667.45	0.517517	2.79846e-05
2667.95	0.517059	0.000248932
2668.43	-0.00022583	0.00579926
2668.89	0.517151	2.28882e-05
2669.39	0.517151	9.24377e-05
2669.87	0.000393677	0.0040567
2670.33	0.516998	2.1637e-05
2670.83	0.518066	5.03845e-05
2671.33	0.516876	0.0157471
2671.77	0.517395	1.4679e-05
2672.27	0.517639	3.75977e-05
2672.77	0.516296	0.0112732
2673.23	-0.698303	-0.0237762
2673.71	0.517578	3.08533e-05
2674.21	0.517517	0.00643646
2674.67	-0.698669	-0.0181183
2675.15	0.518097	2.2583e-05
2675.65	0.518127	0.000244537
2676.13	-0.000183105	0.00579102
2676.59	0.516968	2.49939e-05
2677.09	0.517853	8.79517e-05
2677.57	-0.000244141	0.00405548
2678.03	0.516785	2.33154e-05
2678.53	0.51709	5.67322e-05
2679.03	0.51709	0.0157379
2679.47	0.517944	1.19324e-05
2679.97	0.517029	4.31519e-05
2680.47	0.517365	0.0112823
2680.93	-0.698517	-0.0237915
2681.41	0.517426	3.13416e-05
2681.91	0.516632	0.00647034
2682.37	-0.698547	-0.0181305
2682.85	0.517273	2.66113e-05
2683.35	0.516846	0.000254578
2683.83	-0.000622559	0.00578003
2684.29	0.517242	2.27966e-05
2684.79	0.517303	9.13391e-05
2685.27	0.000732422	0.00404602
2685.73	0.517395	1.63269e-05
2686.23	0.516785	5.88989e-05
2686.73	0.517426	0.0157349
2687.17	0.517029	1.96533e-05
2687.67	0.51709	4.09546e-05
2688.17	0.51651	0.0112823
2688.63	-0.698425	-0.0237885
2689.11	0.518188	2.6947e-05
2689.61	0.517273	0.00648926
2690.07	-0.697632	-0.0181549
2690.55	0.516998	2.92969e-05
2691.05	0.518188	0.000249786
2691.53	-0.000634766	0.00576935
2691.99	0.51709	2.73743e-05
2692.49	0.517517	8.83789e-05
2692.97	0.000805664	0.00403687
2693.43	0.517487	1.79749e-05
2693.93	0.517761	5.53589e-05
2694.43	0.517365	0.0157349
2694.87	0.517761	1.52588e-05
2695.37	0.517029	4.30603e-05
2695.87	0.516418	0.0112915
2696.33	-0.698608	-0.0237885
2696.81	0.517975	2.74658e-05
2697.31	0.516815	0.00651978
2697.77	-0.699036	-0.0181519
2698.25	0.518036	2.44446e-05
2698.75	0.518005	0.000253052
2699.23	0.000738525	0.00574921
2699.69	0.517212	2.44141e-05
2700.19	0.518219	8.45337e-05
2700.67	0.000509644	0.0040271
2701.13	0.516846	2.35291e-05
2701.63	0.516998	5.87769e-05
2702.13	0.517059	0.0157318
2702.57	0.518219	1.08337e-05
2703.07	0.516815	4.40063e-05
2703.57	0.516388	0.0113007
2704.03	-0.697235	-0.0237976
2704.51	0.516754	3.66821e-05
2705.01	0.516663	0.00655121
2705.47	-0.698151	-0.0181641
2705.95	0.516785	3.19519e-05
2706.45	0.516968	0.000261261
2706.93	0.000100708	0.00574677
2707.39	0.518219	1.75476e-05
2707.89	0.516998	9.39331e-05
2708.37	-0.000204468	0.00402649
2708.83	0.518158	1.38855e-05
2709.33	0.518005	5.18799e-05
2709.83	0.516083	0.0157501
2710.27	0.518219	1.15662e-05
2710.77	0.517548	3.96118e-05
2711.27	0.516724	0.0113068
2711.73	-0.698639	-0.0238068
2712.21	0.516815	3.67737e-05
2712.71	0.516632	0.006586
2713.17	-0.697693	-0.0181824
2713.65	0.51825	2.30103e-05
2714.15	0.51709	0.000265594
2714.63	-0.000436401	0.00573425
2715.09	0.516907	2.6886e-05
2715.59	0.518127	8.61206e-05
2716.07	0.00022583	0.00401642
2716.53	0.517639	1.80359e-05
2717.03	0.517303	5.57556e-05
2717.53	0.516876	0.015744
2717.97	0.518097	1.20544e-05
2718.47	0.51709	4.22668e-05
2718.97	0.517456	0.0113129
2719.43	-0.697388	-0.023822
2719.91	0.516785	3.7262e-05
2720.41	0.51767	0.00661896
2720.87	-0.698853	-0.0181885
2721.35	0.518188	2.16064e-05
2721.85	0.516937	0.00027124
2722.33	0.000585937	0.00571228
2722.79	0.516693	2.75269e-05
2723.29	0.517944	8.95691e-05
2723.77	0.000820923	0.00400238
2724.23	0.518127	1.44958e-05
2724.73	0.51828	5.10864e-05
2725.23	0.517456	0.0157379
2725.67	0.516815	2.13318e-05
2726.17	0.517944	3.68652e-05
2726.67	0.517792	0.011319
2727.13	-0.698639	-0.0238098
2727.61	0.517334	3.33252e-05
2728.11	0.516785	0.0066452
2728.57	-0.698822	-0.0181915
2729.05	0.516968	2.771e-05
2729.55	0.517761	0.000267273
2730.03	-0.000335693	0.00570709
2730.49	0.516907	2.48413e-05
2730.99	0.517853	8.87756e-05
2731.47	0.00088501	0.00399597
2731.93	0.516815	2.27356e-05
2732.43	0.518127	5.09644e-05
2732.93	0.517365	0.0157349
2733.37	0.517426	1.89819e-05
2733.87	0.516785	4.36401e-05
2734.37	0.517487	0.011322
2734.83	-0.698669	-0.0238129
2735.31	0.516876	3.2959e-05
2735.81	0.516876	0.00667328
2736.27	-0.6987	-0.0182068
2736.75	0.516815	3.04565e-05
2737.25	0.516998	0.000277313
2737.73	0.00012207	0.00569641
2738.19	0.518097	1.84631e-05
2738.69	0.516815	9.88464e-05
2739.17	0.000778198	0.00398682
2739.63	0.51828	1.42822e-05
2740.13	0.516785	6.04553e-05
2740.63	0.517334	0.015741
2741.07	0.518097	1.38245e-05
2741.57	0.517883	3.6438e-05
2742.07	0.51651	0.0113434
2742.53	-0.69812	-0.0238159
2743.01	0.517426	3.19519e-05
2743.51	0.51651	0.00670013
2743.97	-0.698944	-0.018222
2744.45	0.517395	2.734375E-05
2744.95	0.517151	0.000277496
2745.43	-0.00057373	0.00568329
2745.89	0.517914	1.92566e-05
2746.39	0.516785	9.84802e-05
2746.87	0.000708008	0.00397888
2747.33	0.517181	2.1759e-05
2747.83	0.517914	5.32837e-05
2748.33	0.516296	0.0157471
2748.77	0.518188	1.23901e-05
2749.27	0.516998	4.36401e-05
2749.77	0.51712	0.0113464
2750.23	-0.697266	-0.0238312
2750.71	0.516998	3.43933e-05
2751.21	0.51712	0.00671906
2751.67	-0.697845	-0.0182434
2752.15	0.5177	2.41089e-05
2752.65	0.516846	0.000283936
2753.13	-0.000582886	0.00567139
2753.59	0.517609	1.9989e-05
2754.09	0.518127	8.99353e-05
2754.57	0.000488281	0.00397095
2755.03	0.516937	2.37732e-05
2755.53	0.518097	5.19104e-05
2756.03	0.516052	0.015744
2756.47	0.51767	1.69678e-05
2756.97	0.517242	4.19617e-05
2757.47	0.5177	0.0113403
2757.93	-0.697205	-0.0238373
2758.41	0.516846	3.66211e-05
2758.91	0.516693	0.00675018
2759.37	-0.697632	-0.0182495
2759.85	0.517456	2.81982e-05
2760.35	0.518158	0.000278351
2760.83	0.00050354	0.00565735
2761.29	0.517426	2.1759e-05
2761.79	0.516907	9.68628e-05
2762.27	0.00038147	0.0039679
2762.73	0.518066	1.56555e-05
2763.23	0.517822	5.26428e-05
2763.73	0.516022	0.015744
2764.17	0.516846	1.96533e-05
2764.67	0.518219	3.55835e-05
2765.17	0.517609	0.0113495
2765.63	-0.698425	-0.0238251
2766.11	0.518066	2.63977e-05
2766.61	0.516907	0.00677734
2767.07	-0.697937	-0.0182587
2767.55	0.517212	2.86255e-05
2768.05	0.516724	0.000292114
2768.53	-0.000128174	0.00564728
2768.99	0.51825	1.7334e-05
2769.49	0.51709	9.78088e-05
2769.97	-0.000527954	0.00396362
2770.43	0.516968	2.35291e-05
2770.93	0.516846	6.17981e-05
2771.43	0.517334	0.0157318
2771.87	0.516907	2.04163e-05
2772.37	0.517181	4.422e-05
2772.87	0.516846	0.0113525
2773.33	-0.698456	-0.0238312
2773.81	0.516907	3.53394e-05
2774.31	0.517303	0.00679718
2774.77	-0.697693	-0.0182678
2775.25	0.517456	2.52991e-05
2775.75	0.516815	0.000293091
2776.23	0.000756836	0.00563019
2776.69	0.517853	2.09961e-05
2777.19	0.516815	9.97314e-05
2777.67	0.00015564	0.00395447
2778.13	0.517975	1.47095e-05
2778.63	0.517059	6.16455e-05
2779.13	0.516174	0.0157379
2779.57	0.516968	1.95618e-05
2780.07	0.517975	3.71704e-05
2780.57	0.516266	0.0113739
2781.03	-0.697876	-0.0238403
2781.51	0.51767	3.0365e-05
2782.01	0.5177	0.00681213
2782.47	-0.698975	-0.0182739
2782.95	0.51767	2.41394e-05
2783.45	0.516937	0.000295898
2783.93	0.000231934	0.00562347
2784.39	0.517914	1.93176e-05
2784.89	0.517944	9.35669e-05
2785.37	0.000942993	0.00394012
2785.83	0.518158	1.36719e-05
2786.33	0.517975	5.3833e-05
2786.83	0.517029	0.0157288
2787.27	0.518158	1.21155e-05
2787.77	0.516846	4.51355e-05
2788.27	0.516479	0.0113831
2788.73	-0.697601	-0.0238403
2789.21	0.516815	3.70483e-05
2789.71	0.517181	0.00683533
2790.17	-0.698029	-0.0182983
2790.65	0.517944	2.36206e-05
2791.15	0.518097	0.00029071
2791.63	4.57764e-05	0.00560974
2792.09	0.516846	2.62146e-05
2792.59	0.516815	0.000100769
2793.07	-0.000521851	0.0039444
2793.53	0.516968	2.1637e-05
2794.03	0.517365	5.87769e-05
2794.53	0.516724	0.0157471
2794.97	0.518097	1.24817e-05
2795.47	0.517242	4.19006e-05
2795.97	0.517639	0.01138
2796.43	-0.697601	-0.0238556
2796.91	0.517212	3.30811e-05
2797.41	0.516876	0.00685974
2797.87	-0.698669	-0.0182953
2798.35	0.516876	3.08838e-05
2798.85	0.51709	0.000299988
2799.33	0.00027771	0.00559906
2799.79	0.516998	2.48718e-05
2800.29	0.517151	9.86023e-05
2800.77	0.00022583	0.00392883
2801.23	0.518158	1.54724e-05
2801.73	0.518097	5.19409e-05
2802.23	0.516235	0.0157471
2802.67	0.517822	1.34583e-05
2803.17	0.517944	3.78418e-05
2803.67	0.517548	0.0113861
2804.13	-0.697449	-0.0238617
2804.61	0.516937	3.59497e-05
2805.11	0.517548	0.00687927
2805.57	-0.698669	-0.0183044
2806.05	0.517334	2.63367e-05
2806.55	0.517029	0.000305206
2807.03	-6.71387e-05	0.00559113
2807.49	0.516968	2.65198e-05
2807.99	0.516907	0.000101044
2808.47	0.000662231	0.00391846
2808.93	0.51712	2.19421e-05
2809.43	0.516907	6.02112e-05
2809.93	0.517029	0.0157318
2810.37	0.51712	1.8219e-05
2810.87	0.516876	4.62341e-05
2811.37	0.516357	0.0113983
2811.83	-0.69754	-0.0238647
2812.31	0.517059	3.44543e-05
2812.81	0.516754	0.00691589
2813.27	-0.698578	-0.0183289
2813.75	0.517975	2.55737e-05
2814.25	0.518066	0.000300293
2814.73	0.000149536	0.00558014
2815.19	0.517639	2.13013e-05
2815.69	0.516754	0.000102051
2816.17	-0.000436401	0.00392029
2816.63	0.517975	1.65405e-05
2817.13	0.516876	6.19202e-05
2817.63	0.517273	0.015741
2818.07	0.516785	2.0813e-05
2818.57	0.517242	4.37012e-05
2819.07	0.517578	0.0113922
2819.53	-0.697449	-0.0238586
2820.01	0.516754	3.74756e-05
2820.51	0.517914	0.00692169
2820.97	-0.6987	-0.0183228
2821.45	0.516968	2.81372e-05
2821.95	0.516998	0.000311188
2822.43	0.000390625	0.00557129
2822.89	0.517303	2.33459e-05
2823.39	0.517517	9.58862e-05
2823.87	0.000604248	0.00390869
2824.33	0.517548	1.70288e-05
2824.83	0.518097	5.34058e-05
2825.33	0.517059	0.0157257
2825.77	0.518066	1.2085e-05
2826.27	0.518097	3.65295e-05
2826.77	0.516479	0.0114075
2827.23	-0.697388	-0.0238708
2827.71	0.518066	2.96936e-05
2828.21	0.516632	0.00694885
2828.67	-0.69809	-0.0183472
2829.15	0.517975	2.2644e-05
2829.65	0.517792	0.000309479
2830.13	0.000109863	0.0055603
2830.59	0.516968	2.35901e-05
2831.09	0.516876	0.000102264
2831.57	-0.000131226	0.00391205
2832.03	0.517914	1.73035e-05
2832.53	0.517822	5.23987e-05
2833.03	0.517365	0.015744
2833.47	0.516846	1.98975e-05
2833.97	0.517395	4.27856e-05
2834.47	0.516602	0.0114227
2834.93	-0.698547	-0.0237976
2835.41	0.516998	3.6377e-05
2835.91	0.51767	0.0068576
2836.37	-0.698547	-0.0182953
2836.85	0.518036	2.12708e-05
2837.35	0.518158	0.000298004
2837.83	-0.000518799	0.00558319
2838.29	0.516998	2.56042e-05
2838.79	0.516724	0.000101776
2839.27	-0.000256348	0.00391388
2839.73	0.516937	2.27356e-05
2840.23	0.517883	5.27649e-05
2840.73	0.516113	0.0157471
2841.17	0.5177	1.26343e-05
2841.67	0.517212	4.27551e-05
2842.17	0.517059	0.0114227
2842.63	-0.697418	-0.023822
2843.11	0.517334	3.2196e-05
2843.61	0.517883	0.0068988
2844.07	-0.698029	-0.0183136
2844.55	0.516937	3.0304e-05
2845.05	0.517456	0.000305115
2845.53	7.93457e-05	0.00556061
2845.99	0.517365	2.19116e-05
2846.49	0.518036	9.48486e-05
2846.97	-0.000448608	0.00390961
2847.43	0.517578	2.04163e-05
2847.93	0.518219	5.2887e-05
2848.43	0.516479	0.015744
2848.87	0.516876	2.15149e-05
2849.37	0.516754	4.61731e-05
2849.87	0.516327	0.0114319
2850.33	-0.697937	-0.0238342
2850.81	0.518097	2.89001e-05
2851.31	0.517487	0.00692688
2851.77	-0.698914	-0.0183258
2852.25	0.518097	2.26746e-05
2852.75	0.516968	0.000314819
2853.23	-0.000244141	0.00555664
2853.69	0.517487	1.96533e-05
2854.19	0.517944	9.60693e-05
2854.67	0.000137329	0.00389893
2855.13	0.518097	1.60217e-05
2855.63	0.516937	5.96008e-05
2856.13	0.516541	0.015741
2856.57	0.51767	1.70593e-05
2857.07	0.517029	4.43115e-05
2857.57	0.516296	0.011438
2858.03	-0.697235	-0.0238464
2858.51	0.516907	3.67126e-05
2859.01	0.517273	0.00695984
2859.47	-0.697693	-0.0183502
2859.95	0.517242	2.86865e-05
2860.45	0.517792	0.000313293
2860.93	0.000161743	0.00554077
2861.39	0.517242	2.45056e-05
2861.89	0.516846	0.000104889
2862.37	0.000286865	0.00389557
2862.83	0.516968	2.27966e-05
2863.33	0.517151	5.84412e-05
2863.83	0.517365	0.015741
2864.27	0.516937	1.96533e-05
2864.77	0.518158	3.70178e-05
2865.27	0.517548	0.0114319
2865.73	-0.697449	-0.0238403
2866.21	0.518036	2.81982e-05
2866.71	0.516663	0.00698181
2867.17	-0.698486	-0.0183655
2867.65	0.516937	2.99988e-05
2868.15	0.516815	0.000323486
2868.63	-0.000564575	0.00553497
2869.09	0.517914	2.10266e-05
2869.59	0.517578	9.85107e-05
2870.07	0.000558472	0.00388275
2870.53	0.517761	1.80054e-05
2871.03	0.516846	6.25e-05
2871.53	0.517395	0.015741
2871.97	0.518066	1.2207e-05
2872.47	0.516785	4.47693e-05
2872.97	0.517639	0.011441
2873.43	-0.697388	-0.0238495
2873.91	0.516815	3.66516e-05
2874.41	0.516846	0.00700073
2874.87	-0.698212	-0.0183655
2875.35	0.516937	3.07922e-05
2875.85	0.518005	0.000318512
2876.33	0.000137329	0.00552399
2876.79	0.517181	2.53906e-05
2877.29	0.518158	9.66187e-05
2877.77	-0.000170898	0.00388184
2878.23	0.517334	2.11182e-05
2878.73	0.516998	6.20117e-05
2879.23	0.517395	0.015741
2879.67	0.516876	2.13928e-05
2880.17	0.518005	3.75366e-05
2880.67	0.516418	0.0114594
2881.13	-0.697418	-0.0238525
2881.61	0.516907	3.58276e-05
2882.11	0.517548	0.00701477
2882.57	-0.698975	-0.0183746
2883.05	0.517944	2.33154e-05
2883.55	0.517639	0.000323547
2884.03	0.000311279	0.005513
2884.49	0.517883	2.0752e-05
2884.99	0.518036	9.85107e-05
2885.47	0.000292969	0.00387421
2885.93	0.5177	1.73645e-05
2886.43	0.518097	5.44739e-05
2886.93	0.516235	0.015741
2887.37	0.517395	1.79749e-05
2887.87	0.517944	3.81775e-05
2888.37	0.517334	0.0114532
2888.83	-0.697906	-0.0238525
2889.31	0.516876	3.60107e-05
2889.81	0.516937	0.00703827
2890.27	-0.698608	-0.0183716
2890.75	0.5177	2.5116e-05
2891.25	0.518036	0.000324677
2891.73	-0.000253296	0.00550049
2892.19	0.517609	2.18811e-05
2892.69	0.516937	0.000104645
2893.17	0.000143433	0.00386414
2893.63	0.517975	1.58081e-05
2894.13	0.516815	6.27747e-05
2894.63	0.517365	0.0157379
2895.07	0.516815	2.18811e-05
2895.57	0.516876	4.58679e-05
2896.07	0.516632	0.0114624
2896.53	-0.698669	-0.0238525
2897.01	0.517334	3.31421e-05
2897.51	0.517639	0.00704895
2897.97	-0.698578	-0.0183899
2898.45	0.516876	3.08838e-05
2898.95	0.517548	0.00033197
2899.43	-0.000463867	0.00549896
2899.89	0.51767	2.06299e-05
2900.39	0.517487	0.000103577
2900.87	0.000250244	0.00385925
2901.33	0.517029	2.23999e-05
2901.83	0.516968	6.23474e-05
2902.33	0.516052	0.0157471
2902.77	0.516846	2.18201e-05
2903.27	0.517151	4.40063e-05
2903.77	0.516449	0.0114716
2904.23	-0.697662	-0.0238495
2904.71	0.517761	3.09448e-05
2905.21	0.517792	0.00706543
2905.67	-0.697998	-0.018396
2906.15	0.51712	2.80151e-05
2906.65	0.517914	0.000333649
2907.13	0.000674438	0.00548065
2907.59	0.518188	1.79138e-05
2908.09	0.516968	0.000105988
2908.57	0.000360107	0.00384827
2909.03	0.516815	2.29492e-05
2909.53	0.516968	6.26831e-05
2910.03	0.516266	0.015741
2910.47	0.517944	1.40381e-05
2910.97	0.516998	4.46167e-05
2911.47	0.516449	0.0114777
2911.93	-0.697327	-0.0238586
2912.41	0.517853	2.99988e-05
2912.91	0.516632	0.00709442
2913.37	-0.698456	-0.0184052
2913.85	0.516815	3.125E-05
2914.35	0.517761	0.00033844
2914.83	0.000665283	0.00547302
2915.29	0.517029	2.58484e-05
2915.79	0.516937	0.000107025
2916.27	-0.00043335	0.00384827
2916.73	0.51767	1.66016e-05
2917.23	0.517334	6.02112e-05
2917.73	0.516113	0.0157471
2918.17	0.517639	1.40381e-05
2918.67	0.51767	4.14124e-05
2919.17	0.516357	0.0114868
2919.63	-0.697296	-0.0238708
2920.11	0.517548	3.17383e-05
2920.61	0.51709	0.00711304
2921.07	-0.697723	-0.0184296
2921.55	0.51709	2.91748e-05
2922.05	0.516968	0.000347595
2922.53	-0.000357056	0.00546387
2922.99	0.518097	1.84326e-05
2923.49	0.518066	0.000100372
2923.97	0.000341797	0.00383453
2924.43	0.517517	1.98364e-05
2924.93	0.517914	5.56946e-05
2925.43	0.516907	0.0157379
2925.87	0.517334	1.80054e-05
2926.37	0.517578	4.21143e-05
2926.87	0.517548	0.0114868
2927.33	-0.697418	-0.0238739
2927.81	0.517639	3.10669e-05
2928.31	0.51767	0.00712952
2928.77	-0.698486	-0.0184204
2929.25	0.516815	3.01514e-05
2929.75	0.518097	0.000343964
2930.23	-0.000549316	0.00545258
2930.69	0.517822	1.83411e-05
2931.19	0.517853	0.000102112
2931.67	0.00010376	0.0038269
2932.13	0.516846	2.34985e-05
2932.63	0.516846	6.36292e-05
2933.13	0.517303	0.0157379
2933.57	0.517303	1.9104e-05
2934.07	0.518097	3.84521e-05
2934.57	0.516266	0.011496
2935.03	-0.698151	-0.0238739
2935.51	0.517456	3.34167e-05
2936.01	0.517883	0.00714783
2936.47	-0.698334	-0.0184509
2936.95	0.517487	2.4231e-05
2937.45	0.517975	0.000348419
2937.93	0.000262451	0.0054364
2938.39	0.51712	2.5116e-05
2938.89	0.518127	0.000100769
2939.37	-0.000479126	0.0038269
2939.83	0.517639	1.86462e-05
2940.33	0.517975	5.65796e-05
2940.83	0.516235	0.0157501
2941.27	0.518066	1.24512e-05
2941.77	0.518158	3.91541e-05
2942.27	0.517609	0.0114929
2942.73	-0.698517	-0.0238708
2943.21	0.517029	3.40271e-05
2943.71	0.516846	0.00717529
2944.17	-0.697693	-0.018454
2944.65	0.518005	2.32849e-05
2945.15	0.516785	0.000361267
2945.63	0.000161743	0.00542358
2946.09	0.518097	1.828e-05
2946.59	0.518005	0.000100311
2947.07	-1.52588e-05	0.00381409
2947.53	0.517029	2.29187e-05
2948.03	0.516937	6.39038e-05
2948.53	0.516663	0.0157562
2948.97	0.516968	1.92566e-05
2949.47	0.517334	4.22058e-05
2949.97	0.516327	0.0115234
2950.43	-0.698456	-0.0238922
2950.91	0.517487	3.36914e-05
2951.41	0.517914	0.00720245
2951.87	-0.698547	-0.0184753
2952.35	0.517365	2.73132e-05
2952.85	0.51709	0.0003591
2953.33	6.40869e-05	0.00540924
2953.79	0.517426	2.10876e-05
2954.29	0.516876	0.000108887
2954.77	0.000357056	0.00380798
2955.23	0.516937	2.29797e-05
2955.73	0.518188	5.5603e-05
2956.23	0.516602	0.0157501
2956.67	0.517761	1.40381e-05
2957.17	0.517212	4.32434e-05
2957.67	0.517242	0.0115143
2958.13	-0.697327	-0.0238922
2958.61	0.517914	3.06396e-05
2959.11	0.517395	0.00722504
2959.57	-0.697601	-0.0184967
2960.05	0.516907	2.89001e-05
2960.55	0.516876	0.000364624
2961.03	0.000299072	0.00539734
2961.49	0.516937	2.63367e-05
2961.99	0.516846	0.000109375
2962.47	0.000775146	0.00379822
2962.93	0.518158	1.53198e-05
2963.43	0.51712	6.20728e-05
2963.93	0.516327	0.0157562
2964.37	0.517151	1.70593e-05
2964.87	0.517731	3.96729e-05
2965.37	0.516266	0.0115295
2965.83	-0.697479	-0.0239105
2966.31	0.517761	2.97241e-05
2966.81	0.516846	0.00724823
2967.27	-0.698883	-0.0185059
2967.75	0.517792	2.50549e-05
2968.25	0.517242	0.000368317
2968.73	-0.000216675	0.00539368
2969.19	0.517273	2.30408e-05
2969.69	0.518097	0.000100922
2970.17	-0.000326538	0.00379822
2970.63	0.517731	2.005e-05
2971.13	0.516785	6.43005e-05
2971.63	0.517029	0.0157532
2972.07	0.517975	1.49841e-05
2972.57	0.517975	3.81775e-05
2973.07	0.516815	0.0115265
2973.53	-0.697876	-0.0239136
2974.01	0.518097	3.02429e-05
2974.51	0.516632	0.00726654
2974.97	-0.69812	-0.0185089
2975.45	0.516968	3.09143e-05
2975.95	0.516876	0.000373108
2976.43	-0.000234985	0.00538391
2976.89	0.518066	1.74866e-05
2977.39	0.51712	0.000109589
2977.87	-0.000430298	0.00379181
2978.33	0.516846	2.36816e-05
2978.83	0.517517	5.859375E-05
2979.33	0.516327	0.0157593
2979.77	0.517639	1.474e-05
2980.27	0.516968	4.62341e-05
2980.77	0.516541	0.0115356
2981.23	-0.697906	-0.0239075
2981.71	0.517365	3.44849e-05
2982.21	0.516724	0.00728394
2982.67	-0.697632	-0.0185272
2983.15	0.516815	2.93274e-05
2983.65	0.517242	0.000374817
2984.13	0.000357056	0.00536835
2984.59	0.517914	1.97144e-05
2985.09	0.517853	0.000106018
2985.57	0.000622559	0.00377808
2986.03	0.518005	1.59607e-05
2986.53	0.516876	6.44226e-05
2987.03	0.516418	0.0157654
2987.47	0.516815	1.96838e-05
2987.97	0.517975	3.84827e-05
2988.47	0.516327	0.0115448
2988.93	-0.697205	-0.0239166
2989.41	0.518188	2.89612e-05
2989.91	0.517456	0.00729584
2990.37	-0.698883	-0.0185333
2990.85	0.516998	3.0304e-05
2991.35	0.51825	0.000373749
2991.83	0.000704956	0.00535431
2992.29	0.517609	2.19116e-05
2992.79	0.516876	0.000112518
2993.27	-0.000473022	0.00377533
2993.73	0.51712	2.38037e-05
2994.23	0.516937	6.39648e-05
2994.73	0.516479	0.015741
2995.17	0.517883	1.42517e-05
2995.67	0.517029	4.62341e-05
2996.17	0.517273	0.0115387
2996.63	-0.698578	-0.0239166
2997.11	0.516846	3.7262e-05
2997.61	0.518066	0.00730896
2998.07	-0.697693	-0.0185516
2998.55	0.517242	2.81372e-05
2999.05	0.517242	0.000384125
2999.53	9.15527e-05	0.00534851
2999.99	0.516754	2.6886e-05
3000.49	0.517303	0.000109894
3000.97	-0.000448608	0.00377136
3001.43	0.517456	1.88904e-05
3001.93	0.516815	6.54602e-05
3002.43	0.516327	0.0157532
3002.87	0.517487	1.68152e-05
3003.37	0.518097	3.81775e-05
3003.87	0.5177	0.0115479
3004.33	-0.698578	-0.0239197
3004.81	0.517029	3.58582e-05
3005.31	0.516785	0.0073349
3005.77	-0.697693	-0.0185577
3006.25	0.516998	3.22571e-05
3006.75	0.516846	0.000391022
3007.23	0.000479126	0.00533447
3007.69	0.516907	2.73132e-05
3008.19	0.516846	0.000111572
3008.67	-0.000518799	0.00376099
3009.13	0.517944	1.68762e-05
3009.63	0.517059	6.44836e-05
3010.13	0.516022	0.0157471
3010.57	0.517853	1.33362e-05
3011.07	0.516907	4.72107e-05
3011.57	0.517334	0.0115509
3012.03	-0.698547	-0.0239166
3012.51	0.518219	2.86865e-05
3013.01	0.517639	0.0073349
3013.47	-0.697754	-0.0185577
3013.95	0.517395	2.6947e-05
3014.45	0.51712	0.000391418
3014.93	0.000335693	0.0053363
3015.39	0.518127	1.96228e-05
3015.89	0.516937	0.000112213
3016.37	0.000662231	0.00375488
3016.83	0.516907	2.42004e-05
3017.33	0.517029	6.29883e-05
3017.83	0.517151	0.0157532
3018.27	0.517883	1.44958e-05
3018.77	0.51709	4.44641e-05
3018.99	0.517273	1.78528e-05