File: Edgar/20240531/20240531/electrodeposition_pulsed_potential_20240531_B/pulses_4000_to_5000.txt
Time (s)	WE(1).Potential (V)	WE(1).Current (A)
3031.58	-0.698608	-0.0238281
3032.06	0.517395	2.68555e-05
3032.56	0.517822	0.00706726
3033.02	-0.698883	-0.018576
3033.5	0.517548	2.70996e-05
3034	0.517853	0.000373535
3034.48	-0.000424194	0.00527985
3034.94	0.518036	1.88904e-05
3035.44	0.517242	0.000110626
3035.92	-0.000326538	0.00370087
3036.38	0.518219	1.67847e-05
3036.88	0.518005	5.75256e-05
3037.38	0.517151	0.0157074
3037.82	0.518097	1.22986e-05
3038.32	0.517975	4.08936e-05
3038.82	0.51709	0.0115326
3039.28	-0.698517	-0.0239044
3039.76	0.516968	3.59192e-05
3040.26	0.517365	0.00729584
3040.72	-0.697693	-0.0185883
3041.2	0.517181	3.01208e-05
3041.7	0.517303	0.000389709
3042.18	-0.000265503	0.00529053
3042.64	0.516724	2.83813e-05
3043.14	0.5177	0.000109406
3043.62	0.000772095	0.0037085
3044.08	0.517334	2.03552e-05
3044.58	0.517212	6.39954e-05
3045.08	0.516907	0.0157257
3045.52	0.5177	1.51672e-05
3046.02	0.517273	4.35181e-05
3046.52	0.516235	0.011554
3046.98	-0.697876	-0.0239197
3047.46	0.517914	2.98462e-05
3047.96	0.516632	0.00734131
3048.42	-0.698364	-0.0185883
3048.9	0.518188	2.27661e-05
3049.4	0.516815	0.000401398
3049.88	-0.000265503	0.00528687
3050.34	0.517212	2.38037e-05
3050.84	0.518127	0.000105896
3051.32	-0.000164795	0.00371735
3051.78	0.516815	2.41699e-05
3052.28	0.516907	6.50024e-05
3052.78	0.517426	0.0157288
3053.22	0.517639	1.45874e-05
3053.72	0.518036	3.88489e-05
3054.22	0.517578	0.0115601
3054.68	-0.698639	-0.0239166
3055.16	0.518158	3.09448e-05
3055.66	0.517853	0.00735779
3056.12	-0.698334	-0.0186035
3056.6	0.517914	2.53296e-05
3057.1	0.518036	0.000397095
3057.58	0.000515747	0.00527527
3058.04	0.5177	2.22473e-05
3058.54	0.517059	0.00011554
3059.02	0.000222778	0.00370667
3059.48	0.518158	1.44043e-05
3059.98	0.51709	6.31104e-05
3060.48	0.517365	0.0157288
3060.92	0.517609	1.71204e-05
3061.42	0.516785	4.73633e-05
3061.92	0.517517	0.0115692
3062.38	-0.697357	-0.0239319
3062.86	0.516876	3.79944e-05
3063.36	0.517853	0.00738647
3063.82	-0.69873	-0.0185944
3064.3	0.517548	2.71301e-05
3064.8	0.517456	0.000408112
3065.28	0.00010376	0.00527039
3065.74	0.517395	2.53296e-05
3066.24	0.516968	0.000115997
3066.72	-0.000308228	0.00370544
3067.18	0.517151	2.26746e-05
3067.68	0.518219	5.71289e-05
3068.18	0.516632	0.0157318
3068.62	0.516998	2.17285e-05
3069.12	0.517059	4.56238e-05
3069.62	0.516327	0.0115753
3070.08	-0.697357	-0.023938
3070.56	0.516937	3.82385e-05
3071.06	0.516632	0.0074176
3071.52	-0.699066	-0.0186096
3072	0.516815	3.01819e-05
3072.5	0.517456	0.0004151
3072.98	-4.57764e-05	0.00525787
3073.44	0.518036	2.00806e-05
3073.94	0.517212	0.00011377
3074.42	-0.000195313	0.00370056
3074.88	0.517029	2.2644e-05
3075.38	0.517395	6.09436e-05
3075.88	0.516785	0.0157257
3076.32	0.517517	1.9043e-05
3076.82	0.5177	4.21753e-05
3077.32	0.516785	0.0115753
3077.78	-0.698181	-0.0239349
3078.26	0.517487	3.28979e-05
3078.76	0.516693	0.0074408
3079.22	-0.698883	-0.0186218
3079.7	0.517456	2.83813e-05
3080.2	0.517975	0.000419281
3080.68	-7.93457e-05	0.00525146
3081.14	0.516846	2.6886e-05
3081.64	0.517334	0.000116272
3082.12	0.000784302	0.00368622
3082.58	0.517914	1.92261e-05
3083.08	0.518158	5.77698e-05
3083.58	0.517303	0.0157288
3084.02	0.5177	1.48315e-05
3084.52	0.516907	4.87366e-05
3085.02	0.516479	0.0115967
3085.48	-0.698395	-0.0239471
3085.96	0.5177	3.32031e-05
3086.46	0.517731	0.00745331
3086.92	-0.697693	-0.0186371
3087.4	0.518097	2.4292e-05
3087.9	0.516876	0.000430328
3088.38	0.000219727	0.00523865
3088.84	0.51825	1.94092e-05
3089.34	0.516876	0.000120056
3089.82	0.000671387	0.00368225
3090.28	0.518066	1.68152e-05
3090.78	0.517883	6.18591e-05
3091.28	0.517365	0.0157349
3091.72	0.518158	1.3855e-05
3092.22	0.517517	4.32129e-05
3092.72	0.516357	0.0115997
3093.18	-0.698151	-0.0239532
3093.66	0.516876	3.75366e-05
3094.16	0.517822	0.00747559
3094.62	-0.699005	-0.0186432
3095.1	0.517456	2.61536e-05
3095.6	0.517151	0.00043576
3096.08	-0.000479126	0.00522675
3096.54	0.51767	2.31018e-05
3097.04	0.516968	0.000120728
3097.52	0.000735474	0.00367371
3097.98	0.517761	1.80664e-05
3098.48	0.517548	6.38428e-05
3098.98	0.516602	0.015741
3099.42	0.517029	1.80359e-05
3099.92	0.518097	4.03442e-05
3100.42	0.516357	0.0116028
3100.88	-0.698547	-0.0239594
3101.36	0.516846	3.86658e-05
3101.86	0.517822	0.00749817
3102.32	-0.698547	-0.0186584
3102.8	0.517578	2.63672e-05
3103.3	0.517578	0.000437408
3103.78	0.000595093	0.00521484
3104.24	0.51709	2.65808e-05
3104.74	0.518097	0.000113281
3105.22	-0.000463867	0.00367493
3105.68	0.517303	1.92566e-05
3106.18	0.517792	6.12488e-05
3106.68	0.516479	0.0157257
3107.12	0.516907	2.19727e-05
3107.62	0.517639	4.38232e-05
3108.12	0.516724	0.0116028
3108.58	-0.698547	-0.0239532
3109.06	0.518036	2.96021e-05
3109.56	0.516876	0.00751648
3110.02	-0.698853	-0.0186523
3110.5	0.518005	2.35596e-05
3111	0.518066	0.000439789
3111.48	0.000170898	0.00521057
3111.94	0.518097	1.91345e-05
3112.44	0.517487	0.000118958
3112.92	0.000302124	0.00366791
3113.38	0.518066	1.58386e-05
3113.88	0.516846	6.83899e-05
3114.38	0.516937	0.0157471
3114.82	0.518127	1.34583e-05
3115.32	0.51709	4.73633e-05
3115.82	0.516418	0.0116119
3116.28	-0.698273	-0.0239716
3116.76	0.518036	3.03955e-05
3117.26	0.517365	0.00753174
3117.72	-0.697754	-0.0186798
3118.2	0.518219	2.27966e-05
3118.7	0.517853	0.000444153
3119.18	-0.000491333	0.00521088
3119.64	0.516907	2.71606e-05
3120.14	0.516785	0.000123352
3120.62	0.000567627	0.0036676
3121.08	0.517365	2.17285e-05
3121.58	0.516846	6.75659e-05
3122.08	0.516083	0.0157471
3122.52	0.517853	1.46484e-05
3123.02	0.517242	4.63257e-05
3123.52	0.51651	0.0116241
3123.98	-0.698608	-0.0239685
3124.46	0.516876	3.75977e-05
3124.96	0.516693	0.00753784
3125.42	-0.697815	-0.018692
3125.9	0.517914	2.47498e-05
3126.4	0.518219	0.000444397
3126.88	-3.66211e-05	0.00519958
3127.34	0.516846	2.74353e-05
3127.84	0.516998	0.000121674
3128.32	0.000750732	0.00365997
3128.78	0.517456	1.77612e-05
3129.28	0.516968	6.68945e-05
3129.78	0.516052	0.0157501
3130.22	0.516846	2.28882e-05
3130.72	0.516785	4.91638e-05
3131.22	0.517456	0.011618
3131.68	-0.697449	-0.0239777
3132.16	0.517517	3.37219e-05
3132.66	0.516998	0.00755615
3133.12	-0.69809	-0.0186951
3133.6	0.517944	2.49023e-05
3134.1	0.516846	0.000457581
3134.58	0.00045166	0.0051889
3135.04	0.517426	2.28882e-05
3135.54	0.518127	0.000116516
3136.02	0.000610352	0.00365723
3136.48	0.517303	2.15454e-05
3136.98	0.516754	6.92749e-05
3137.48	0.517303	0.0157318
3137.92	0.518158	1.31531e-05
3138.42	0.5177	4.26636e-05
3138.92	0.516815	0.0116364
3139.38	-0.697571	-0.0239868
3139.86	0.518005	3.01208e-05
3140.36	0.517578	0.0075592
3140.82	-0.697876	-0.0186981
3141.3	0.518066	2.38647e-05
3141.8	0.517365	0.000459015
3142.28	0.000787354	0.00517578
3142.74	0.518127	1.95618e-05
3143.24	0.518036	0.000116455
3143.72	0.000753784	0.00364502
3144.18	0.516998	2.31018e-05
3144.68	0.516876	6.90613e-05
3145.18	0.517151	0.015741
3145.62	0.516876	2.11182e-05
3146.12	0.516876	4.88892e-05
3146.62	0.516388	0.0116364
3147.08	-0.697876	-0.0239807
3147.56	0.51712	3.5614e-05
3148.06	0.516785	0.00759277
3148.52	-0.698486	-0.0187012
3149	0.516846	3.16467e-05
3149.5	0.518036	0.000460083
3149.98	6.40869e-05	0.00516754
3150.44	0.517944	1.96838e-05
3150.94	0.517334	0.000122803
3151.42	0.000228882	0.0036438
3151.88	0.517548	1.98059e-05
3152.38	0.518158	6.00586e-05
3152.88	0.516113	0.015744
3153.32	0.51712	1.86157e-05
3153.82	0.518188	4.0741e-05
3154.32	0.516968	0.0116302
3154.78	-0.698547	-0.0239807
3155.26	0.516846	3.92456e-05
3155.76	0.517639	0.00759888
3156.22	-0.698303	-0.0187164
3156.7	0.518066	2.33765e-05
3157.2	0.516846	0.000474121
3157.68	0.000570679	0.00515625
3158.14	0.517548	2.29187e-05
3158.64	0.516876	0.000126587
3159.12	-0.000332642	0.00364227
3159.58	0.518036	1.72424e-05
3160.08	0.517944	6.11572e-05
3160.58	0.516327	0.0157471
3161.02	0.518097	1.42212e-05
3161.52	0.517029	4.7821e-05
3162.02	0.517487	0.0116364
3162.48	-0.697662	-0.023999
3162.96	0.518005	3.09448e-05
3163.46	0.516602	0.00761719
3163.92	-0.698639	-0.0187347
3164.4	0.516785	3.18298e-05
3164.9	0.517365	0.000475769
3165.38	0.000354004	0.00514618
3165.84	0.517975	2.005e-05
3166.34	0.516815	0.000127838
3166.82	0.000784302	0.00362671
3167.28	0.516815	2.35596e-05
3167.78	0.517426	6.4209e-05
3168.28	0.517395	0.0157318
3168.72	0.518036	1.31531e-05
3169.22	0.516754	5.04456e-05
3169.72	0.516357	0.0116455
3170.18	-0.697266	-0.023996
3170.66	0.516968	3.82385e-05
3171.16	0.516418	0.0076355
3171.62	-0.697937	-0.0187317
3172.1	0.517548	2.74963e-05
3172.6	0.517365	0.000481079
3173.08	0.000350952	0.00513977
3173.54	0.51767	2.11182e-05
3174.04	0.516998	0.000127472
3174.52	6.10352e-05	0.00362579
3174.98	0.516815	2.39258e-05
3175.48	0.518188	6.16455e-05
3175.98	0.51709	0.015741
3176.42	0.516968	2.02637e-05
3176.92	0.517395	4.54102e-05
3177.42	0.517029	0.0116577
3177.88	-0.698547	-0.0240021
3178.36	0.51712	3.73535e-05
3178.86	0.517822	0.00764771
3179.32	-0.697632	-0.0187561
3179.8	0.517639	2.86255e-05
3180.3	0.517578	0.000487366
3180.78	0.000756836	0.00512909
3181.24	0.517517	2.46582e-05
3181.74	0.517792	0.000124451
3182.22	0.000704956	0.00361176
3182.68	0.517883	1.70288e-05
3183.18	0.5177	6.31104e-05
3183.68	0.515991	0.0157349
3184.12	0.517853	1.37634e-05
3184.62	0.516937	4.90723e-05
3185.12	0.51767	0.0116547
3185.58	-0.698456	-0.0240051
3186.06	0.516937	3.5675e-05
3186.56	0.516541	0.00767212
3187.02	-0.698822	-0.0187561
3187.5	0.518127	2.22168e-05
3188	0.516754	0.000497803
3188.48	-0.000158691	0.00512482
3188.94	0.516937	2.7771e-05
3189.44	0.518219	0.00012088
3189.92	0.000384521	0.00360565
3190.38	0.517212	2.04468e-05
3190.88	0.518158	6.14319e-05
3191.38	0.516388	0.0157318
3191.82	0.517029	2.12097e-05
3192.32	0.51828	4.05884e-05
3192.82	0.516693	0.0116638
3193.28	-0.698181	-0.0240082
3193.76	0.517944	3.1311e-05
3194.26	0.516479	0.00768738
3194.72	-0.698578	-0.0187653
3195.2	0.517853	2.50244e-05
3195.7	0.516968	0.000505371
3196.18	-2.13623e-05	0.005112
3196.64	0.517822	2.04773e-05
3197.14	0.516846	0.000130798
3197.62	-0.00015564	0.00360565
3198.08	0.516998	2.38647e-05
3198.58	0.516724	7.01294e-05
3199.08	0.516144	0.0157379
3199.52	0.516815	2.14539e-05
3200.02	0.516876	4.84619e-05
3200.52	0.517029	0.0116516
3200.98	-0.697357	-0.0240204
3201.46	0.517548	3.53394e-05
3201.96	0.516449	0.00769958
3202.42	-0.699005	-0.0187744
3202.9	0.518005	2.3468e-05
3203.4	0.518127	0.00050415
3203.88	-0.000247192	0.00510315
3204.34	0.517731	2.19116e-05
3204.84	0.517914	0.000121857
3205.32	-0.000540161	0.00359894
3205.78	0.516876	2.39868e-05
3206.28	0.517059	6.80237e-05
3206.78	0.517456	0.0157349
3207.22	0.516724	2.14539e-05
3207.72	0.517303	4.71802e-05
3208.22	0.516266	0.011676
3208.68	-0.697449	-0.0240173
3209.16	0.516846	3.77808e-05
3209.66	0.517212	0.00771179
3210.12	-0.698944	-0.0187775
3210.6	0.516907	3.27759e-05
3211.1	0.518036	0.00051178
3211.58	0.000588989	0.00508423
3212.04	0.518066	1.92566e-05
3212.54	0.518188	0.000124176
3213.02	0.000830078	0.00358368
3213.48	0.518188	1.49841e-05
3213.98	0.516876	6.98853e-05
3214.48	0.516174	0.0157318
3214.92	0.518005	1.39465e-05
3215.42	0.517395	4.77905e-05
3215.92	0.517639	0.0116699
3216.38	-0.697205	-0.0240326
3216.86	0.517395	3.56445e-05
3217.36	0.517395	0.00772095
3217.82	-0.697693	-0.0187958
3218.3	0.517029	3.24707e-05
3218.8	0.517212	0.000519714
3219.28	0.000637817	0.00507751
3219.74	0.516785	2.75879e-05
3220.24	0.517059	0.000130066
3220.72	0.000186157	0.00358246
3221.18	0.518097	1.65405e-05
3221.68	0.517548	6.77795e-05
3222.18	0.517242	0.0157166
3222.62	0.517975	1.45264e-05
3223.12	0.516907	4.89197e-05
3223.62	0.516327	0.0116821
3224.08	-0.698395	-0.0240173
3224.56	0.518158	3.1311e-05
3225.06	0.517029	0.00775146
3225.52	-0.698395	-0.0187897
3226	0.518219	2.37427e-05
3226.5	0.516998	0.00052887
3226.98	0.00043335	0.00506927
3227.44	0.518066	2.03247e-05
3227.94	0.517731	0.000127289
3228.42	0.000436401	0.00357361
3228.88	0.516785	2.43835e-05
3229.38	0.517792	6.36292e-05
3229.88	0.517426	0.0157166
3230.32	0.517792	1.76086e-05
3230.82	0.517975	4.36096e-05
3231.32	0.516663	0.0116882
3231.78	-0.697205	-0.0240387
3232.26	0.51709	3.91235e-05
3232.76	0.516937	0.00776062
3233.22	-0.698547	-0.0188019
3233.7	0.517212	3.09448e-05
3234.2	0.516754	0.000536804
3234.68	0.000701904	0.00505798
3235.14	0.517822	2.09351e-05
3235.64	0.518158	0.000127258
3236.12	-0.000442505	0.00357147
3236.58	0.516968	2.5238e-05
3237.08	0.518188	6.27747e-05
3237.58	0.517273	0.0157166
3238.02	0.517761	1.62048e-05
3238.52	0.51825	4.11987e-05
3239.02	0.516327	0.0116852
3239.48	-0.698608	-0.0240417
3239.96	0.518005	2.99988e-05
3240.46	0.517365	0.00777893
3240.92	-0.698822	-0.0188232
3241.4	0.517395	2.81677e-05
3241.9	0.518036	0.000535278
3242.38	0.00045166	0.005047
3242.84	0.517273	2.65198e-05
3243.34	0.516846	0.000136627
3243.82	0.000521851	0.00356445
3244.28	0.51712	2.34375e-05
3244.78	0.517029	6.90918e-05
3245.28	0.517365	0.0157227
3245.72	0.516876	2.12097e-05
3246.22	0.516846	4.97437e-05
3246.72	0.516449	0.0116913
3247.18	-0.698212	-0.0240387
3247.66	0.516998	3.87268e-05
3248.16	0.516479	0.00778809
3248.62	-0.697601	-0.0188354
3249.1	0.517975	2.59399e-05
3249.6	0.51709	0.000549316
3250.08	-0.000686646	0.00504364
3250.54	0.516846	2.81372e-05
3251.04	0.517853	0.000129425
3251.52	-0.000463867	0.00355743
3251.98	0.516998	2.38647e-05
3252.48	0.517334	6.71692e-05
3252.98	0.516663	0.0157318
3253.42	0.518005	1.28784e-05
3253.92	0.518188	4.09241e-05
3254.42	0.517395	0.0116974
3254.88	-0.697479	-0.024054
3255.36	0.516937	3.86047e-05
3255.86	0.517548	0.00779114
3256.32	-0.697815	-0.0188416
3256.8	0.516907	3.08533e-05
3257.3	0.516815	0.000556335
3257.78	0.000564575	0.00502838
3258.24	0.518127	1.9104e-05
3258.74	0.518005	0.000129974
3259.22	0.000808716	0.00354279
3259.68	0.517853	1.93787e-05
3260.18	0.517181	6.90308e-05
3260.68	0.516663	0.0157257
3261.12	0.516876	2.26135e-05
3261.62	0.517792	4.41284e-05
3262.12	0.516266	0.0117035
3262.58	-0.697845	-0.024057
3263.06	0.516754	3.97644e-05
3263.56	0.516632	0.00782166
3264.02	-0.698853	-0.0188477
3264.5	0.518036	2.39563e-05
3265	0.517792	0.00055603
3265.48	0.000448608	0.00501953
3265.94	0.51712	2.63062e-05
3266.44	0.516846	0.00013916
3266.92	0.000442505	0.00353455
3267.38	0.518188	1.63269e-05
3267.88	0.51767	6.79626e-05
3268.38	0.516174	0.0157166
3268.82	0.517944	1.50757e-05
3269.32	0.517914	4.28772e-05
3269.82	0.517456	0.0117004
3270.28	-0.698547	-0.0240509
3270.76	0.516785	3.97644e-05
3271.26	0.51767	0.00782471
3271.72	-0.698456	-0.0188446
3272.2	0.518005	2.4231e-05
3272.7	0.517944	0.000562134
3273.18	-0.000161743	0.00501648
3273.64	0.516785	2.81677e-05
3274.14	0.517639	0.000134521
3274.62	-0.000164795	0.00353333
3275.08	0.517609	1.9104e-05
3275.58	0.517487	6.96716e-05
3276.08	0.516937	0.0157227
3276.52	0.518005	1.45264e-05
3277.02	0.517578	4.4342e-05
3277.52	0.516357	0.0117126
3277.98	-0.698608	-0.024054
3278.46	0.517883	3.23486e-05
3278.96	0.516876	0.00784302
3279.42	-0.698914	-0.018866
3279.9	0.518036	2.4353e-05
3280.4	0.517578	0.000568542
3280.88	0.000634766	0.00500061
3281.34	0.516754	2.82898e-05
3281.84	0.517975	0.000134186
3282.32	0.000689697	0.00352539
3282.78	0.51767	2.16675e-05
3283.28	0.517059	7.01294e-05
3283.78	0.516113	0.0157227
3284.22	0.518127	1.44348e-05
3284.72	0.516815	5.01099e-05
3285.22	0.517548	0.0117035
3285.68	-0.698578	-0.024054
3286.16	0.518188	3.1311e-05
3286.66	0.516479	0.00784912
3287.12	-0.697754	-0.0188721
3287.6	0.516968	3.18604e-05
3288.1	0.518188	0.000570374
3288.58	-0.000198364	0.00499725
3289.04	0.517792	2.14233e-05
3289.54	0.517914	0.000133881
3290.02	-0.000180054	0.00352173
3290.48	0.517456	2.13623e-05
3290.98	0.516815	7.34863e-05
3291.48	0.516144	0.0157227
3291.92	0.517242	1.89514e-05
3292.42	0.517242	4.83093e-05
3292.92	0.51651	0.01171875
3293.38	-0.698486	-0.0240509
3293.86	0.518036	3.27454e-05
3294.36	0.517212	0.00785522
3294.82	-0.697632	-0.0188812
3295.3	0.518005	2.45972e-05
3295.8	0.51712	0.0005859375
3296.28	-0.000238037	0.00499084
3296.74	0.516876	2.78625e-05
3297.24	0.516876	0.000143158
3297.72	0.00017395	0.00351654
3298.18	0.517365	1.98059e-05
3298.68	0.517822	6.67419e-05
3299.18	0.516388	0.0157227
3299.62	0.516937	2.25525e-05
3300.12	0.51825	4.34875e-05
3300.62	0.517609	0.0117096
3301.08	-0.698486	-0.024054
3301.56	0.518158	3.15247e-05
3302.06	0.51651	0.00787964
3302.52	-0.697876	-0.0188873
3303	0.518127	2.3407e-05
3303.5	0.518127	0.0005859375
3303.98	0.000283813	0.00497589
3304.44	0.516724	2.71912e-05
3304.94	0.518188	0.000135956
3305.42	0.000296021	0.0035083
3305.88	0.516876	2.4353e-05
3306.38	0.518036	6.73218e-05
3306.88	0.517212	0.0157104
3307.32	0.516907	2.26746e-05
3307.82	0.51767	4.58069e-05
3308.32	0.517609	0.0117218
3308.78	-0.698517	-0.024057
3309.26	0.516968	3.90015e-05
3309.76	0.516541	0.00788574
3310.22	-0.6987	-0.0188995
3310.7	0.516754	3.26538e-05
3311.2	0.517303	0.000595703
3311.68	0.00067749	0.00496643
3312.14	0.517181	2.52075e-05
3312.64	0.51825	0.000137054
3313.12	0.000588989	0.00349945
3313.58	0.516815	2.39258e-05
3314.08	0.517181	7.28149e-05
3314.58	0.516785	0.0157074
3315.02	0.517517	1.53809e-05
3315.52	0.517273	4.82788e-05
3316.02	0.517609	0.01171875
3316.48	-0.69809	-0.024054
3316.96	0.516815	4.02527e-05
3317.46	0.51651	0.007901
3317.92	-0.698486	-0.0189056
3318.4	0.516907	3.39966e-05
3318.9	0.518097	0.000596313
3319.38	0.000125122	0.00495972
3319.84	0.517273	2.37732e-05
3320.34	0.518127	0.000137848
3320.82	0.000543213	0.00349213
3321.28	0.517944	1.89819e-05
3321.78	0.51712	7.34863e-05
3322.28	0.516724	0.0157135
3322.72	0.517181	2.11487e-05
3323.22	0.517273	4.71802e-05
3323.72	0.516418	0.0117279
3324.18	-0.698639	-0.0240601
3324.66	0.516846	3.94592e-05
3325.16	0.516602	0.00791321
3325.62	-0.698212	-0.0189178
3326.1	0.517761	2.76489e-05
3326.6	0.517151	0.000608826
3327.08	0.000479126	0.00494537
3327.54	0.517853	2.15454e-05
3328.04	0.51767	0.000141052
3328.52	0.000869751	0.00348816
3328.98	0.517944	1.7334e-05
3329.48	0.517059	7.33032e-05
3329.98	0.516022	0.0157104
3330.42	0.518158	1.37634e-05
3330.92	0.51709	4.93164e-05
3331.42	0.516357	0.0117371
3331.88	-0.698486	-0.0240601
3332.36	0.516968	3.76587e-05
3332.86	0.516998	0.00791931
3333.32	-0.698547	-0.0189148
3333.8	0.517029	3.25012e-05
3334.3	0.516724	0.00061615
3334.78	-3.05176e-05	0.0049353
3335.24	0.516876	2.74658e-05
3335.74	0.517792	0.000140533
3336.22	0.000732422	0.00348083
3336.68	0.517487	2.20032e-05
3337.18	0.517334	7.1228e-05
3337.68	0.517395	0.0157043
3338.12	0.517517	1.66626e-05
3338.62	0.518158	4.41284e-05
3339.12	0.517334	0.0117371
3339.58	-0.698059	-0.0240601
3340.06	0.517914	3.33557e-05
3340.56	0.516418	0.00793457
3341.02	-0.697998	-0.0189178
3341.5	0.516846	3.27759e-05
3342	0.518127	0.000613708
3342.48	0.000671387	0.00492706
3342.94	0.517212	2.36511e-05
3343.44	0.517273	0.000144714
3343.92	0.000506592	0.00347595
3344.38	0.517578	1.87378e-05
3344.88	0.517181	7.43408e-05
3345.38	0.516998	0.0157104
3345.82	0.517212	1.83716e-05
3346.32	0.517273	4.7821e-05
3346.82	0.517578	0.0117371
3347.28	-0.698608	-0.0240723
3347.76	0.516846	4.00696e-05
3348.26	0.516541	0.00794983
3348.72	-0.697601	-0.0189301
3349.2	0.516815	3.30811e-05
3349.7	0.517761	0.000623169
3350.18	0.00027771	0.00491669
3350.64	0.51767	2.29797e-05
3351.14	0.517883	0.000140472
3351.62	0.000527954	0.00346497
3352.08	0.516968	2.39258e-05
3352.58	0.517059	7.37305e-05
3353.08	0.517426	0.0156952
3353.52	0.518005	1.57166e-05
3354.02	0.517914	4.47388e-05
3354.52	0.517517	0.0117432
3354.98	-0.698456	-0.0240814
3355.46	0.518127	3.17383e-05
3355.96	0.517059	0.00795898
3356.42	-0.698547	-0.0189331
3356.9	0.518127	2.49634e-05
3357.4	0.516815	0.000637817
3357.88	0.000698853	0.00490784
3358.34	0.517242	2.5238e-05
3358.84	0.51709	0.000148468
3359.32	0.000134277	0.00346527
3359.78	0.518158	1.61743e-05
3360.28	0.516846	7.51648e-05
3360.78	0.516113	0.0157074
3361.22	0.517517	1.72729e-05
3361.72	0.518219	4.37927e-05
3362.22	0.517456	0.0117371
3362.68	-0.698303	-0.0240662
3363.16	0.517303	3.6438e-05
3363.66	0.516602	0.00796509
3364.12	-0.697998	-0.0189392
3364.6	0.516876	3.35693e-05
3365.1	0.5177	0.000635986
3365.58	0.000668335	0.00489807
3366.04	0.517029	2.78625e-05
3366.54	0.517944	0.000144989
3367.02	-0.000512695	0.00346069
3367.48	0.516876	2.44446e-05
3367.98	0.518066	6.81458e-05
3368.48	0.516724	0.0157074
3368.92	0.5177	1.71509e-05
3369.42	0.517914	4.51355e-05
3369.92	0.517487	0.0117462
3370.38	-0.698029	-0.0240784
3370.86	0.517914	3.18298e-05
3371.36	0.517303	0.00797119
3371.82	-0.698975	-0.0189392
3372.3	0.518158	2.6001e-05
3372.8	0.517578	0.000644531
3373.28	-0.000350952	0.00489075
3373.74	0.518127	1.97754e-05
3374.24	0.518066	0.000144257
3374.72	0.000512695	0.00344757
3375.18	0.517517	2.24304e-05
3375.68	0.517548	7.22351e-05
3376.18	0.516418	0.0156952
3376.62	0.518005	1.42517e-05
3377.12	0.517151	5.13e-05
3377.62	0.517212	0.0117493
3378.08	-0.69812	-0.0240723
3378.56	0.516785	3.96118e-05
3379.06	0.516602	0.00798035
3379.52	-0.698517	-0.0189484
3380	0.516907	3.27759e-05
3380.5	0.517487	0.000649414
3380.98	-0.000378418	0.00488556
3381.44	0.516998	2.9541e-05
3381.94	0.518005	0.000145264
3382.42	0.000311279	0.00344421
3382.88	0.517578	1.9928e-05
3383.38	0.517914	6.73523e-05
3383.88	0.51712	0.0156891
3384.32	0.516846	2.23694e-05
3384.82	0.51767	4.55322e-05
3385.32	0.517303	0.0117615
3385.78	-0.697449	-0.0240814
3386.26	0.516876	4.04663e-05
3386.76	0.516846	0.00799866
3387.22	-0.698761	-0.0189636
3387.7	0.516754	3.33557e-05
3388.2	0.516907	0.00065979
3388.68	-0.000585937	0.00487793
3389.14	0.517303	2.63367e-05
3389.64	0.5177	0.000150085
3390.12	0.000515747	0.0034317
3390.58	0.517181	2.20337e-05
3391.08	0.51712	7.53174e-05
3391.58	0.516571	0.0157043
3392.02	0.517456	1.98669e-05
3392.52	0.517792	4.53796e-05
3393.02	0.516632	0.0117615
3393.48	-0.697815	-0.0240906
3393.96	0.517975	3.125E-05
3394.46	0.516632	0.00800781
3394.92	-0.697906	-0.0189606
3395.4	0.518036	2.38647e-05
3395.9	0.518097	0.00065918
3396.38	0.000149536	0.00486328
3396.84	0.516937	2.89001e-05
3397.34	0.518005	0.000147797
3397.82	-0.000354004	0.00343353
3398.28	0.518097	1.71204e-05
3398.78	0.517487	7.28455e-05
3399.28	0.51651	0.0156982
3399.72	0.517548	1.73035e-05
3400.22	0.518127	4.18396e-05
3400.72	0.517059	0.0117706
3401.18	-0.698578	-0.0240845
3401.66	0.517212	3.8208e-05
3402.16	0.517792	0.00800781
3402.62	-0.698669	-0.0189819
3403.1	0.516846	3.38135e-05
3403.6	0.516907	0.000670471
3404.08	0.000100708	0.00485809
3404.54	0.517303	2.51465e-05
3405.04	0.518127	0.00014798
3405.52	-0.000369263	0.00342773
3405.98	0.517761	2.03552e-05
3406.48	0.517853	7.09839e-05
3406.98	0.516357	0.0156982
3407.42	0.516846	2.22168e-05
3407.92	0.516876	5.22766e-05
3408.42	0.516266	0.0117706
3408.88	-0.69754	-0.0240967
3409.36	0.516846	3.97949e-05
3409.86	0.516998	0.00801392
3410.32	-0.6987	-0.0189728
3410.8	0.516846	3.26538e-05
3411.3	0.516846	0.000675049
3411.78	-0.000616455	0.00485352
3412.24	0.516998	2.75879e-05
3412.74	0.518036	0.000149567
3413.22	0.000686646	0.00341095
3413.68	0.518127	1.65405e-05
3414.18	0.516876	7.65381e-05
3414.68	0.516144	0.0156921
3415.12	0.517395	1.9928e-05
3415.62	0.516754	5.2002e-05
3416.12	0.517334	0.0117554
3416.58	-0.698517	-0.0240936
3417.06	0.516815	4.0802e-05
3417.56	0.516876	0.00802307
3418.02	-0.69873	-0.0189911
3418.5	0.517822	2.72217e-05
3419	0.517365	0.000681152
3419.48	0.000634766	0.00483521
3419.94	0.516815	2.87781e-05
3420.44	0.516907	0.000158569
3420.92	-0.000305176	0.0034137
3421.38	0.517944	1.8158e-05
3421.88	0.51825	6.89087e-05
3422.38	0.517029	0.0156799
3422.82	0.517395	1.85242e-05
3423.32	0.517578	4.79736e-05
3423.82	0.516418	0.0117676
3424.28	-0.697815	-0.0241028
3424.76	0.518066	3.18298e-05
3425.26	0.517731	0.00804443
3425.72	-0.698669	-0.0190063
3426.2	0.51825	2.37427e-05
3426.7	0.517822	0.000686035
3427.18	-0.00022583	0.00483398
3427.64	0.516907	2.84729e-05
3428.14	0.518127	0.00015097
3428.62	-3.05176e-06	0.0034079
3429.08	0.51712	2.34985e-05
3429.58	0.517303	7.41882e-05
3430.08	0.516174	0.0156921
3430.52	0.517914	1.41296e-05
3431.02	0.517975	4.48914e-05
3431.52	0.517548	0.0117737
3431.98	-0.698395	-0.0240967
3432.46	0.517456	3.54919e-05
3432.96	0.516541	0.00805664
3433.42	-0.6987	-0.0190063
3433.9	0.517334	3.05786e-05
3434.4	0.517639	0.00069458
3434.88	0.000634766	0.00481995
3435.34	0.518005	2.03552e-05
3435.84	0.517456	0.000157593
3436.32	-0.000482178	0.00340118
3436.78	0.516907	2.5177e-05
3437.28	0.517883	7.23572e-05
3437.78	0.517273	0.0156799
3438.22	0.517975	1.58997e-05
3438.72	0.518127	4.39453e-05
3439.22	0.51767	0.0117767
3439.68	-0.697327	-0.0241058
3440.16	0.5177	3.49731e-05
3440.66	0.51709	0.00805664
3441.12	-0.697937	-0.0190186
3441.6	0.517792	2.58484e-05
3442.1	0.516876	0.000705566
3442.58	0.000646973	0.00480927
3443.04	0.518097	2.06299e-05
3443.54	0.516968	0.000159576
3444.02	-0.000497437	0.0033963
3444.48	0.517426	2.0874e-05
3444.98	0.516846	7.87048e-05
3445.48	0.516235	0.0156799
3445.92	0.516785	2.33765e-05
3446.42	0.518066	4.53796e-05
3446.92	0.516449	0.0117798
3447.38	-0.697845	-0.0241089
3447.86	0.517883	3.26538e-05
3448.36	0.517792	0.0080719
3448.82	-0.697968	-0.0190186
3449.3	0.516968	3.2135e-05
3449.8	0.516754	0.000715027
3450.28	-0.000524902	0.00480682
3450.74	0.516968	2.84119e-05
3451.24	0.516846	0.000164001
3451.72	0.000811768	0.00338074
3452.18	0.516876	2.22778e-05
3452.68	0.517212	7.62939e-05
3453.18	0.516998	0.015683
3453.62	0.518097	1.34888e-05
3454.12	0.5177	4.51355e-05
3454.62	0.516479	0.0117859
3455.08	-0.697571	-0.024115
3455.56	0.517365	3.53699e-05
3456.06	0.51712	0.00809021
3456.52	-0.697601	-0.0190308
3457	0.516815	3.41797e-05
3457.5	0.516968	0.000719604
3457.98	-0.000585937	0.00479736
3458.44	0.516693	2.87476e-05
3458.94	0.517975	0.000156464
3459.42	0.000289917	0.00337463
3459.88	0.516937	2.47192e-05
3460.38	0.517944	7.17468e-05
3460.88	0.516022	0.015686
3461.32	0.516815	2.25525e-05
3461.82	0.517365	5.06592e-05
3462.32	0.517639	0.0117859
3462.78	-0.698456	-0.0241058
3463.26	0.516937	4.05579e-05
3463.76	0.517792	0.00808716
3464.22	-0.697754	-0.0190277
3464.7	0.518066	2.56958e-05
3465.2	0.51767	0.00072052
3465.68	-0.000582886	0.00478699
3466.14	0.517365	2.32544e-05
3466.64	0.516846	0.000165863
3467.12	0.000430298	0.00336884
3467.58	0.517029	2.39868e-05
3468.08	0.518127	7.14722e-05
3468.58	0.516083	0.0156799
3469.02	0.517273	1.98975e-05
3469.52	0.518066	4.41284e-05
3470.02	0.516541	0.011795
3470.48	-0.697357	-0.0241089
3470.96	0.517029	3.96118e-05
3471.46	0.517914	0.00809631
3471.92	-0.697662	-0.019043
3472.4	0.517731	2.6886e-05
3472.9	0.517334	0.000729675
3473.38	0.00032959	0.00477264
3473.84	0.517273	2.72827e-05
3474.34	0.517456	0.000161652
3474.82	0.000436401	0.00336243
3475.28	0.516937	2.5116e-05
3475.78	0.516785	8.05359e-05
3476.28	0.516357	0.0156708
3476.72	0.517395	1.77002e-05
3477.22	0.516846	5.37109e-05
3477.72	0.517639	0.011792
3478.18	-0.697388	-0.024115
3478.66	0.518097	3.2135e-05
3479.16	0.516998	0.00811768
3479.62	-0.698364	-0.0190521
3480.1	0.516754	3.51257e-05
3480.6	0.518005	0.000733337
3481.08	-0.000195313	0.00476776
3481.54	0.517212	2.57263e-05
3482.04	0.517395	0.000161346
3482.52	0.000454712	0.00335693
3482.98	0.518036	1.86462e-05
3483.48	0.517853	7.37305e-05
3483.98	0.517029	0.0156769
3484.42	0.518066	1.50146e-05
3484.92	0.517334	5.16968e-05
3485.42	0.517181	0.0117889
3485.88	-0.698273	-0.024115
3486.36	0.518005	3.09143e-05
3486.86	0.517731	0.00811462
3487.32	-0.69873	-0.019046
3487.8	0.51709	3.14941e-05
3488.3	0.518158	0.000738525
3488.78	0.000704956	0.00475494
3489.24	0.518097	1.99585e-05
3489.74	0.517059	0.000166748
3490.22	0.000408936	0.00335419
3490.68	0.517334	2.32849e-05
3491.18	0.516846	8.02917e-05
3491.68	0.516296	0.0156769
3492.12	0.516876	2.1698e-05
3492.62	0.516968	5.35583e-05
3493.12	0.516754	0.0118042
3493.58	-0.698425	-0.0241119
3494.06	0.516907	4.13208e-05
3494.56	0.517273	0.00813599
3495.02	-0.697571	-0.0190613
3495.5	0.517822	2.6886e-05
3496	0.518127	0.000745239
3496.48	0.000643921	0.00474579
3496.94	0.516785	2.88086e-05
3497.44	0.517517	0.000164795
3497.92	-0.000549316	0.00335083
3498.38	0.517365	2.2644e-05
3498.88	0.51709	8.02002e-05
3499.38	0.516693	0.0156799
3499.82	0.516907	2.18506e-05
3500.32	0.516815	5.43213e-05
3500.82	0.516296	0.0118073
3501.28	-0.698608	-0.0241028
3501.76	0.518127	3.33252e-05
3502.26	0.517517	0.00814209
3502.72	-0.698853	-0.0190552
3503.2	0.516815	3.28369e-05
3503.7	0.516785	0.000759888
3504.18	-0.000271606	0.00474579
3504.64	0.517517	2.23389e-05
3505.14	0.516998	0.00016925
3505.62	0.000585937	0.00333466
3506.08	0.517212	2.24915e-05
3506.58	0.517578	7.70264e-05
3507.08	0.516205	0.0156647
3507.52	0.516785	2.19727e-05
3508.02	0.516754	5.48096e-05
3508.52	0.517578	0.011795
3508.98	-0.698425	-0.0240967
3509.46	0.516785	4.20532e-05
3509.96	0.516754	0.00814514
3510.42	-0.697601	-0.0190643
3510.9	0.516815	3.29895e-05
3511.4	0.517395	0.000765991
3511.88	0.000619507	0.00472687
3512.34	0.516937	2.69165e-05
3512.84	0.517365	0.000167908
3513.32	0.000823975	0.00332764
3513.78	0.518158	1.77612e-05
3514.28	0.516846	8.09326e-05
3514.78	0.516449	0.0156708
3515.22	0.518066	1.47705e-05
3515.72	0.516907	5.29175e-05
3516.22	0.516205	0.0118073
3516.68	-0.697266	-0.0241089
3517.16	0.517517	3.5553e-05
3517.66	0.51651	0.00816345
3518.12	-0.699005	-0.0190674
3518.6	0.518188	2.46887e-05
3519.1	0.51712	0.000774231
3519.58	8.54492e-05	0.00471741
3520.04	0.517273	2.57874e-05
3520.54	0.517487	0.000167603
3521.02	0.000610352	0.00332001
3521.48	0.518097	1.68457e-05
3521.98	0.516846	8.16956e-05
3522.48	0.517426	0.0156494
3522.92	0.517761	1.43433e-05
3523.42	0.518127	4.52271e-05
3523.92	0.517639	0.011795
3524.38	-0.69812	-0.0241058
3524.86	0.516937	4.01917e-05
3525.36	0.517242	0.00816956
3525.82	-0.697937	-0.0190796
3526.3	0.518097	2.54517e-05
3526.8	0.518036	0.000775757
3527.28	-0.000305176	0.00471466
3527.74	0.517639	2.36511e-05
3528.24	0.516815	0.000175049
3528.72	-0.000491333	0.00332214
3529.18	0.516815	2.6123e-05
3529.68	0.518127	7.43713e-05
3530.18	0.517334	0.0156525
3530.62	0.516815	2.29797e-05
3531.12	0.517395	5.09644e-05
3531.62	0.517212	0.0117981
3532.08	-0.698608	-0.0241272
3532.56	0.517334	3.88489e-05
3533.06	0.5177	0.00817566
3533.52	-0.697754	-0.019101
3534	0.517365	2.87781e-05
3534.5	0.517822	0.000784912
3534.98	0.000668335	0.00470825
3535.44	0.517426	2.42615e-05
3535.94	0.516937	0.000175903
3536.42	0.000228882	0.0033194
3536.88	0.516846	2.51465e-05
3537.38	0.516846	8.23059e-05
3537.88	0.516815	0.0156555
3538.32	0.517731	1.62048e-05
3538.82	0.518127	4.47693e-05
3539.32	0.517059	0.0118164
3539.78	-0.697266	-0.0241364
3540.26	0.517761	3.43933e-05
3540.76	0.517517	0.00817566
3541.22	-0.698669	-0.0191071
3541.7	0.518097	2.59094e-05
3542.2	0.518066	0.000793152
3542.68	0.000820923	0.00470154
3543.14	0.517914	2.23999e-05
3543.64	0.518097	0.000167572
3544.12	0.000543213	0.00331024
3544.58	0.516815	2.63062e-05
3545.08	0.518188	7.33337e-05
3545.58	0.516907	0.0156647
3546.02	0.516968	2.15149e-05
3546.52	0.51712	5.31616e-05
3547.02	0.517517	0.0118103
3547.48	-0.698547	-0.0241302
3547.96	0.517242	3.80249e-05
3548.46	0.517853	0.00818787
3548.92	-0.69809	-0.0190979
3549.4	0.517944	2.66113e-05
3549.9	0.518097	0.000797119
3550.38	0.0003479	0.00469727
3550.84	0.51712	2.95715e-05
3551.34	0.517761	0.000169647
3551.82	-0.000140381	0.00330994
3552.28	0.517517	2.04468e-05
3552.78	0.518097	7.44019e-05
3553.28	0.517426	0.0156555
3553.72	0.516937	2.12097e-05
3554.22	0.516815	5.44434e-05
3554.72	0.516266	0.0118073
3555.18	-0.698547	-0.0241333
3555.66	0.516815	4.12292e-05
3556.16	0.51709	0.00820618
3556.62	-0.698181	-0.019101
3557.1	0.516815	3.48206e-05
3557.6	0.518036	0.000802612
3558.08	0.000732422	0.00468719
3558.54	0.516937	2.8595e-05
3559.04	0.518219	0.00016806
3559.52	-0.00045166	0.00330536
3559.98	0.517273	2.23694e-05
3560.48	0.516815	8.34351e-05
3560.98	0.517242	0.0156555
3561.42	0.516785	2.40784e-05
3561.92	0.516907	5.36499e-05
3562.42	0.516327	0.0118164
3562.88	-0.698395	-0.0241211
3563.36	0.516998	4.04358e-05
3563.86	0.516968	0.00820923
3564.32	-0.698486	-0.0191101
3564.8	0.517029	3.25928e-05
3565.3	0.517212	0.000813904
3565.78	0.000454712	0.00467957
3566.24	0.517212	2.73743e-05
3566.74	0.517731	0.000174713
3567.22	0.000631714	0.00329132
3567.68	0.516876	2.59705e-05
3568.18	0.518036	7.71179e-05
3568.68	0.516418	0.0156647
3569.12	0.516846	2.3468e-05
3569.62	0.516998	5.38025e-05
3570.12	0.517334	0.0118103
3570.58	-0.697662	-0.0241394
3571.06	0.517975	3.39355e-05
3571.56	0.517853	0.00820618
3572.02	-0.698456	-0.0191101
3572.5	0.516724	3.34778e-05
3573	0.516846	0.00082489
3573.48	0.000482178	0.00467041
3573.94	0.516815	2.90833e-05
3574.44	0.518158	0.000172974
3574.92	0.000778198	0.00328552
3575.38	0.517853	1.87073e-05
3575.88	0.51709	8.26111e-05
3576.38	0.517151	0.0156494
3576.82	0.518219	1.23291e-05
3577.32	0.51712	5.26733e-05
3577.82	0.516571	0.0118195
3578.28	-0.698334	-0.0241302
3578.76	0.516693	4.08325e-05
3579.26	0.517639	0.00822449
3579.72	-0.698669	-0.0191284
3580.2	0.51712	3.31726e-05
3580.7	0.516907	0.00083252
3581.18	-0.000350952	0.00467499
3581.64	0.517456	2.5177e-05
3582.14	0.517914	0.000174133
3582.62	-0.000476074	0.00329102
3583.08	0.516846	2.56348e-05
3583.58	0.516876	8.40454e-05
3584.08	0.517242	0.0156525
3584.52	0.516785	2.35901e-05
3585.02	0.517975	4.74854e-05
3585.52	0.517334	0.0118164
3585.98	-0.69809	-0.0241394
3586.46	0.518097	3.22876e-05
3586.96	0.51651	0.00823669
3587.42	-0.698059	-0.0191406
3587.9	0.517944	2.74048e-05
3588.4	0.516876	0.000837708
3588.88	0.000610352	0.00465973
3589.34	0.517914	2.16675e-05
3589.84	0.517731	0.000178802
3590.32	0.000619507	0.00328033
3590.78	0.516785	2.53296e-05
3591.28	0.517883	7.80945e-05
3591.78	0.517212	0.0156525
3592.22	0.5177	1.5564e-05
3592.72	0.516815	5.48401e-05
3593.22	0.516785	0.0118347
3593.68	-0.697235	-0.0241394
3594.16	0.517822	3.57971e-05
3594.66	0.516937	0.0082428
3595.12	-0.697815	-0.0191437
3595.6	0.516785	3.41797e-05
3596.1	0.516724	0.00084259
3596.58	0.000759888	0.0046524
3597.04	0.516815	2.87781e-05
3597.54	0.516907	0.000184326
3598.02	-0.000405884	0.00327759
3598.48	0.518219	1.6449e-05
3598.98	0.517303	8.11462e-05
3599.48	0.516113	0.0156586
3599.92	0.517395	1.87378e-05
3600.42	0.517242	5.41687e-05
3600.92	0.517151	0.0118408
3601.38	-0.698303	-0.0241333
3601.86	0.517242	3.7262e-05
3602.36	0.516846	0.00824585
3602.82	-0.697571	-0.0191528
3603.3	0.518066	2.63367e-05
3603.8	0.516815	0.000852661
3604.28	0.000296021	0.00464722
3604.74	0.516815	3.03955e-05
3605.24	0.518097	0.000177917
3605.72	0.00088501	0.00326599
3606.18	0.517609	2.0752e-05
3606.68	0.517548	8.14209e-05
3607.18	0.516144	0.0156586
3607.62	0.516846	2.20337e-05
3608.12	0.516876	5.57861e-05
3608.62	0.516479	0.0118408
3609.08	-0.697937	-0.0241394
3609.56	0.518036	3.33862e-05
3610.06	0.5177	0.008255
3610.52	-0.698944	-0.0191498
3611	0.516785	3.40881e-05
3611.5	0.516998	0.000859375
3611.98	-0.00065918	0.00463837
3612.44	0.517761	2.19727e-05
3612.94	0.516846	0.000186981
3613.42	0.000714111	0.00325867
3613.88	0.516846	2.57263e-05
3614.38	0.516907	8.63342e-05
3614.88	0.516602	0.0156464
3615.32	0.518066	1.50452e-05
3615.82	0.518066	4.71191e-05
3616.32	0.517609	0.0118408
3616.78	-0.697357	-0.0241455
3617.26	0.517151	3.9978e-05
3617.76	0.517273	0.00827332
3618.22	-0.698456	-0.0191589
3618.7	0.51709	3.07617e-05
3619.2	0.516876	0.000872192
3619.68	-0.000299072	0.00463318
3620.14	0.518188	1.95923e-05
3620.64	0.517456	0.00018454
3621.12	0.000640869	0.00325287
3621.58	0.517853	1.77612e-05
3622.08	0.518127	7.87659e-05
3622.58	0.51712	0.0156494
3623.02	0.517303	1.96228e-05
3623.52	0.517517	5.0293e-05
3624.02	0.517029	0.011853
3624.48	-0.697632	-0.0241638
3624.96	0.517578	3.6499e-05
3625.46	0.51709	0.00827942
3625.92	-0.698883	-0.0191742
3626.4	0.516815	3.30811e-05
3626.9	0.516907	0.000881348
3627.38	-0.000128174	0.00461884
3627.84	0.517151	2.55737e-05
3628.34	0.516907	0.000190979
3628.82	-0.000360107	0.00325348
3629.28	0.516846	2.55737e-05
3629.78	0.517792	8.19092e-05
3630.28	0.517181	0.0156342
3630.72	0.51828	1.32751e-05
3631.22	0.517578	5.20935e-05
3631.72	0.517395	0.0118469
3632.18	-0.697357	-0.0241669
3632.66	0.518005	3.27454e-05
3633.16	0.517609	0.00827637
3633.62	-0.698853	-0.0191742
3634.1	0.517822	2.81677e-05
3634.6	0.518219	0.000882263
3635.08	-0.000427246	0.00461456
3635.54	0.518066	2.0752e-05
3636.04	0.51767	0.000185364
3636.52	0.000198364	0.00324463
3636.98	0.518219	1.59912e-05
3637.48	0.518188	7.87659e-05
3637.98	0.517029	0.0156494
3638.42	0.516785	2.27356e-05
3638.92	0.517975	4.94385e-05
3639.42	0.517242	0.0118378
3639.88	-0.698273	-0.0241608
3640.36	0.517761	3.55835e-05
3640.86	0.517395	0.00829773
3641.32	-0.698578	-0.0191833
3641.8	0.518158	2.61841e-05
3642.3	0.517822	0.00089325
3642.78	0.000183105	0.00460358
3643.24	0.517731	2.20337e-05
3643.74	0.518097	0.000184265
3644.22	-0.000582886	0.00323975
3644.68	0.516846	2.5116e-05
3645.18	0.516846	8.73413e-05
3645.68	0.517365	0.0156372
3646.12	0.517975	1.52588e-05
3646.62	0.518066	4.79126e-05
3647.12	0.517609	0.0118408
3647.58	-0.697479	-0.024176
3648.06	0.5177	3.7384e-05
3648.56	0.516724	0.00830383
3649.02	-0.698853	-0.0191956
3649.5	0.516846	3.46375e-05
3650	0.517212	0.000903625
3650.48	0.000369263	0.00459167
3650.94	0.51709	2.70081e-05
3651.44	0.51712	0.000193542
3651.92	-0.00045166	0.00323853
3652.38	0.517761	2.06299e-05
3652.88	0.516937	8.71277e-05
3653.38	0.516357	0.0156464
3653.82	0.518127	1.42212e-05
3654.32	0.518005	5.00488e-05
3654.82	0.516296	0.0118591
3655.28	-0.697235	-0.024173
3655.76	0.517303	4.09241e-05
3656.26	0.51651	0.00831909
3656.72	-0.698914	-0.0192078
3657.2	0.516815	3.44543e-05
3657.7	0.516937	0.000916138
3658.18	-0.000161743	0.00458862
3658.64	0.518036	2.31018e-05
3659.14	0.516907	0.000195862
3659.62	0.00010376	0.00322754
3660.08	0.517761	1.84326e-05
3660.58	0.516846	8.92639e-05
3661.08	0.517334	0.0156403
3661.52	0.516876	2.31018e-05
3662.02	0.518066	4.79431e-05
3662.52	0.517029	0.01185
3662.98	-0.697296	-0.0241852
3663.46	0.517365	3.8147e-05
3663.96	0.516571	0.00832825
3664.42	-0.697662	-0.01922
3664.9	0.516785	3.5553e-05
3665.4	0.516846	0.000925293
3665.88	-0.000479126	0.00458435
3666.34	0.517303	2.5238e-05
3666.84	0.518219	0.000189087
3667.32	-0.00043335	0.00322845
3667.78	0.517273	2.17896e-05
3668.28	0.518127	8.0719e-05
3668.78	0.516113	0.0156403
3669.22	0.518066	1.3855e-05
3669.72	0.517914	4.80652e-05
3670.22	0.516754	0.011853
3670.68	-0.698486	-0.024176
3671.16	0.518097	3.34167e-05
3671.66	0.517792	0.00833435
3672.12	-0.69873	-0.019223
3672.6	0.517029	3.41797e-05
3673.1	0.518158	0.000925293
3673.58	-0.000558472	0.00457825
3674.04	0.516876	2.88086e-05
3674.54	0.517731	0.000191345
3675.02	-0.000384521	0.00322021
3675.48	0.516785	2.6062e-05
3675.98	0.517975	8.11768e-05
3676.48	0.516174	0.0156403
3676.92	0.517578	1.75171e-05
3677.42	0.518097	4.89502e-05
3677.92	0.516327	0.0118652
3678.38	-0.697937	-0.0241791
3678.86	0.517059	4.09241e-05
3679.36	0.517242	0.0083374
3679.82	-0.697968	-0.0192169
3680.3	0.517883	2.71912e-05
3680.8	0.516876	0.000938721
3681.28	0.000735474	0.00456238
3681.74	0.517242	2.72217e-05
3682.24	0.518097	0.000191895
3682.72	-0.000534058	0.00321686
3683.18	0.516876	2.54517e-05
3683.68	0.518066	8.08411e-05
3684.18	0.516052	0.0156494
3684.62	0.517181	1.96533e-05
3685.12	0.516907	5.61523e-05
3685.62	0.516968	0.0118591
3686.08	-0.697418	-0.0241821
3686.56	0.516785	4.35791e-05
3687.06	0.516541	0.00834961
3687.52	-0.697723	-0.0192322
3688	0.517303	3.21655e-05
3688.5	0.517334	0.000942993
3688.98	-0.000442505	0.0045575
3689.44	0.517212	2.57874e-05
3689.94	0.516876	0.000200378
3690.42	-0.000369263	0.00321259
3690.88	0.517426	2.03552e-05
3691.38	0.517029	8.81958e-05
3691.88	0.517273	0.0156281
3692.32	0.517029	2.19727e-05
3692.82	0.516785	5.5603e-05
3693.32	0.517578	0.0118713
3693.78	-0.698578	-0.024176
3694.26	0.517426	3.96729e-05
3694.76	0.516449	0.00835571
3695.22	-0.698914	-0.0192413
3695.7	0.517334	3.36304e-05
3696.2	0.516815	0.000956421
3696.68	-3.66211e-05	0.00455475
3697.14	0.517639	2.72827e-05
3697.64	0.517792	0.000195221
3698.12	0.000598145	0.00319733
3698.58	0.518036	1.78223e-05
3699.08	0.5177	8.47168e-05
3699.58	0.517212	0.0156342
3700.02	0.516907	2.15759e-05
3700.52	0.517151	5.46875e-05
3701.02	0.516296	0.0118835
3701.48	-0.698303	-0.0241882
3701.96	0.516876	4.245e-05
3702.46	0.516815	0.00836792
3702.92	-0.69751	-0.0192505
3703.4	0.518158	2.69775e-05
3703.9	0.516937	0.000963135
3704.38	-0.000512695	0.00454651
3704.84	0.517517	2.56958e-05
3705.34	0.518127	0.00019455
3705.82	0.000814819	0.00319092
3706.28	0.516937	2.35901e-05
3706.78	0.516937	8.96301e-05
3707.28	0.516052	0.0156342
3707.72	0.5177	1.77612e-05
3708.22	0.517792	5.2063e-05
3708.72	0.517059	0.0118805
3709.18	-0.697754	-0.0241913
3709.66	0.517853	3.57971e-05
3710.16	0.517578	0.00837402
3710.62	-0.697662	-0.0192566
3711.1	0.518158	2.61536e-05
3711.6	0.518097	0.00096283
3712.08	6.40869e-05	0.00453766
3712.54	0.51709	2.93884e-05
3713.04	0.516876	0.000204315
3713.52	-0.000241089	0.00319153
3713.98	0.517151	2.31323e-05
3714.48	0.516876	8.88367e-05
3714.98	0.516876	0.0156372
3715.42	0.51709	2.12402e-05
3715.92	0.517761	5.11169e-05
3716.42	0.516205	0.0118835
3716.88	-0.698181	-0.0241852
3717.36	0.517609	3.67126e-05
3717.86	0.517029	0.00837097
3718.32	-0.69873	-0.0192566
3718.8	0.517853	2.92969e-05
3719.3	0.517853	0.00097168
3719.78	0.000671387	0.00452362
3720.24	0.517853	2.45361e-05
3720.74	0.518127	0.000196625
3721.22	0.000622559	0.00318268
3721.68	0.517059	2.50854e-05
3722.18	0.517944	8.38013e-05
3722.68	0.516479	0.015625
3723.12	0.517792	1.40686e-05
3723.62	0.516907	5.65491e-05
3724.12	0.51712	0.0118866
3724.58	-0.697174	-0.0241821
3725.06	0.517914	3.47595e-05
3725.56	0.516937	0.00838013
3726.02	-0.698792	-0.0192444
3726.5	0.517273	3.10364e-05
3727	0.517517	0.000979004
3727.48	-0.000500488	0.00452576
3727.94	0.518188	2.10571e-05
3728.44	0.517029	0.000204865
3728.92	0.000646973	0.00317871
3729.38	0.518066	1.84326e-05
3729.88	0.518066	8.27942e-05
3730.38	0.516876	0.0156311
3730.82	0.516907	2.2522e-05
3731.32	0.517517	5.2124e-05
3731.54	0.516876	2.21558e-05