File: Edgar/20240531/20240531/electrodeposition_pulsed_potential_20240531_B/pulses_2000_to_3000.txt
Time (s)	WE(1).Potential (V)	WE(1).Current (A)
1606.64	-0.698456	-0.0223755
1607.12	0.517273	1.88904e-05
1607.62	0.516876	0.00022937
1608.08	-0.697754	-0.0155609
1608.56	0.518341	1.26343e-05
1609.06	0.51712	8.65479e-05
1609.54	-0.000747681	0.00778503
1610	0.518097	1.08032e-05
1610.5	0.518158	4.54712e-05
1610.98	-0.00032959	0.00513855
1611.44	0.517151	1.37024e-05
1611.94	0.517334	3.7262e-05
1612.44	0.516174	0.015094
1612.88	0.518097	7.78198e-06
1613.38	0.518188	2.24915e-05
1613.88	0.516724	0.00886841
1614.34	-0.698822	-0.0224091
1614.82	0.516754	2.66418e-05
1615.32	0.516968	0.000247803
1615.78	-0.698151	-0.0155701
1616.26	0.518311	1.24512e-05
1616.76	0.51709	8.94165e-05
1617.24	-0.000161743	0.00778809
1617.7	0.517029	1.92871e-05
1618.2	0.517273	5.53589e-05
1618.68	0.000189209	0.00515198
1619.14	0.517548	1.3916e-05
1619.64	0.517761	3.29895e-05
1620.14	0.516022	0.0151276
1620.58	0.517212	1.33057e-05
1621.08	0.516876	3.04871e-05
1621.58	0.517609	0.00891418
1622.04	-0.698151	-0.0224426
1622.52	0.517792	1.86462e-05
1623.02	0.517151	0.000249481
1623.48	-0.699341	-0.0155884
1623.96	0.51828	1.40686e-05
1624.46	0.517395	8.92944e-05
1624.94	-0.000863647	0.00778503
1625.4	0.517365	1.58386e-05
1625.9	0.51825	4.72412e-05
1626.38	0.00050354	0.00515656
1626.84	0.518188	8.88062e-06
1627.34	0.516937	3.98865e-05
1627.84	0.515961	0.0151459
1628.28	0.517914	1.11084e-05
1628.78	0.518188	2.40173e-05
1629.28	0.516571	0.008984375
1629.74	-0.698334	-0.0224518
1630.22	0.51709	2.38037e-05
1630.72	0.518066	0.000249969
1631.18	-0.698273	-0.0156189
1631.66	0.518097	1.47705e-05
1632.16	0.517792	8.66089e-05
1632.64	0.000640869	0.00776978
1633.1	0.517456	1.52283e-05
1633.6	0.516815	5.84106e-05
1634.08	-0.000582886	0.00515961
1634.54	0.517548	1.39465e-05
1635.04	0.518158	3.2135e-05
1635.54	0.516083	0.0151611
1635.98	0.517822	8.23975e-06
1636.48	0.516815	3.40881e-05
1636.98	0.517151	0.00900269
1637.44	-0.697754	-0.0224762
1637.92	0.518311	1.75781e-05
1638.42	0.517975	0.000254669
1638.88	-0.69812	-0.0156311
1639.36	0.51712	2.12402e-05
1639.86	0.517029	8.97827e-05
1640.34	-0.00093689	0.00775452
1640.8	0.516998	1.91345e-05
1641.3	0.517242	5.62134e-05
1641.78	-7.93457e-05	0.0051535
1642.24	0.516785	1.84021e-05
1642.74	0.517761	3.59497e-05
1643.24	0.517456	0.0151703
1643.68	0.517914	1.00708e-05
1644.18	0.516785	3.28979e-05
1644.68	0.516357	0.00905762
1645.14	-0.698822	-0.0224823
1645.62	0.517944	1.77307e-05
1646.12	0.518127	0.000258392
1646.58	-0.697815	-0.0156616
1647.06	0.5177	1.73035e-05
1647.56	0.516663	9.43909e-05
1648.04	-0.000134277	0.00773926
1648.5	0.518097	1.1261e-05
1649	0.517212	5.65186e-05
1649.48	0.000634766	0.00514557
1649.94	0.518188	1.12305e-05
1650.44	0.516785	4.26636e-05
1650.94	0.517273	0.0151855
1651.38	0.517822	9.46045e-06
1651.88	0.517395	2.89001e-05
1652.38	0.517059	0.00909119
1652.84	-0.697479	-0.0225067
1653.32	0.517029	2.67944e-05
1653.82	0.517303	0.000266205
1654.28	-0.698059	-0.0156921
1654.76	0.516815	2.19727e-05
1655.26	0.516785	9.46655e-05
1655.74	-3.66211e-05	0.00771484
1656.2	0.516815	2.01416e-05
1656.7	0.518158	4.88586e-05
1657.18	0.000747681	0.0051355
1657.64	0.516693	1.76392e-05
1658.14	0.517487	3.68042e-05
1658.64	0.517151	0.0152069
1659.08	0.516785	1.72424e-05
1659.58	0.51709	3.34778e-05
1660.08	0.516388	0.00913391
1660.54	-0.698151	-0.022522
1661.02	0.517517	2.24609e-05
1661.52	0.517212	0.000270508
1661.98	-0.697876	-0.0157135
1662.46	0.517822	1.74255e-05
1662.96	0.517639	8.92029e-05
1663.44	0.000509644	0.00770569
1663.9	0.517548	1.40686e-05
1664.4	0.518158	5.00793e-05
1664.88	0.000689697	0.0051297
1665.34	0.516785	1.8219e-05
1665.84	0.518219	3.40576e-05
1666.34	0.517212	0.015213
1666.78	0.516785	1.70288e-05
1667.28	0.516785	3.43018e-05
1667.78	0.517334	0.00917358
1668.24	-0.698425	-0.0225372
1668.72	0.518188	1.83105e-05
1669.22	0.517487	0.000273163
1669.68	-0.698547	-0.0157318
1670.16	0.516846	2.37122e-05
1670.66	0.51767	8.97522e-05
1671.14	7.32422e-05	0.00768433
1671.6	0.518219	9.49097e-06
1672.1	0.517792	5.28259e-05
1672.58	0.000686646	0.00512177
1673.04	0.516968	1.67236e-05
1673.54	0.517487	3.93677e-05
1674.04	0.51712	0.0152222
1674.48	0.516815	1.69678e-05
1674.98	0.518127	2.56653e-05
1675.48	0.516418	0.00920715
1675.94	-0.697754	-0.0225525
1676.42	0.517303	2.39258e-05
1676.92	0.517029	0.000283905
1677.38	-0.697784	-0.0157715
1677.86	0.516815	2.39563e-05
1678.36	0.517395	9.27429e-05
1678.84	0.00057373	0.00766296
1679.3	0.517975	1.06812e-05
1679.8	0.516998	5.85327e-05
1680.28	0.000296021	0.00512024
1680.74	0.516876	1.78528e-05
1681.24	0.517517	3.96423e-05
1681.74	0.516022	0.0152344
1682.18	0.51767	1.06812e-05
1682.68	0.517365	3.09448e-05
1683.18	0.517914	0.00923157
1683.64	-0.697693	-0.0225739
1684.12	0.516876	2.82288e-05
1684.62	0.517731	0.000283325
1685.08	-0.697784	-0.015799
1685.56	0.516998	2.20947e-05
1686.06	0.516785	9.7229e-05
1686.54	-0.000302124	0.00765381
1687	0.516693	2.12402e-05
1687.5	0.517365	5.50537e-05
1687.98	-0.000439453	0.00512085
1688.44	0.517853	1.07422e-05
1688.94	0.517456	3.67126e-05
1689.44	0.517212	0.0152557
1689.88	0.517975	9.0332e-06
1690.38	0.518066	2.58789e-05
1690.88	0.517731	0.00927734
1691.34	-0.698273	-0.0225861
1691.82	0.516998	2.74963e-05
1692.32	0.517212	0.000292114
1692.78	-0.697876	-0.0158325
1693.26	0.517975	1.80054e-05
1693.76	0.517944	8.86841e-05
1694.24	0.000552368	0.00763855
1694.7	0.516876	2.12708e-05
1695.2	0.516785	6.03027e-05
1695.68	0.000933838	0.00510345
1696.14	0.518219	9.82666e-06
1696.64	0.517181	4.00696e-05
1697.14	0.515991	0.0152649
1697.58	0.516815	1.62659e-05
1698.08	0.517426	2.82593e-05
1698.58	0.516479	0.00930481
1699.04	-0.698181	-0.0226044
1699.52	0.516968	2.60315e-05
1700.02	0.516998	0.0002995
1700.48	-0.698608	-0.0158569
1700.96	0.517944	1.89209e-05
1701.46	0.516876	9.75952e-05
1701.94	-0.000750732	0.00762024
1702.4	0.518219	1.37329e-05
1702.9	0.518219	4.90112e-05
1703.38	-0.000552368	0.00510193
1703.84	0.517273	1.55334e-05
1704.34	0.516937	4.30603e-05
1704.84	0.517548	0.0152649
1705.28	0.516846	1.75171e-05
1705.78	0.516815	3.45764e-05
1706.28	0.516815	0.00933228
1706.74	-0.698608	-0.0226196
1707.22	0.516937	2.88391e-05
1707.72	0.517029	0.000304016
1708.18	-0.698212	-0.0158783
1708.66	0.51828	1.53503e-05
1709.16	0.517212	9.76257e-05
1709.64	-0.000814819	0.00759888
1710.1	0.516907	2.04773e-05
1710.6	0.517029	5.81665e-05
1711.08	-0.000338745	0.00509613
1711.54	0.516815	1.98669e-05
1712.04	0.516998	4.26636e-05
1712.54	0.516449	0.0152863
1712.98	0.516754	1.75171e-05
1713.48	0.517792	2.85645e-05
1713.98	0.517761	0.00936279
1714.44	-0.698517	-0.0226318
1714.92	0.518341	1.90125e-05
1715.42	0.516998	0.000308502
1715.88	-0.698029	-0.0159058
1716.36	0.5177	1.78528e-05
1716.86	0.51709	9.85718e-05
1717.34	0.00010376	0.00757446
1717.8	0.517822	1.45569e-05
1718.3	0.517456	5.52063e-05
1718.78	0.0003479	0.00507996
1719.24	0.516815	1.87378e-05
1719.74	0.516998	4.26025e-05
1720.24	0.517059	0.0152924
1720.68	0.517517	1.12e-05
1721.18	0.516998	3.39661e-05
1721.68	0.51767	0.00939941
1722.14	-0.697235	-0.0226501
1722.62	0.517792	1.93787e-05
1723.12	0.518036	0.000305878
1723.58	-0.698517	-0.0159271
1724.06	0.516754	2.39258e-05
1724.56	0.518188	9.21326e-05
1725.04	-0.000231934	0.00757446
1725.5	0.516998	1.98669e-05
1726	0.517853	5.45044e-05
1726.48	0.000534058	0.00507111
1726.94	0.517944	1.297e-05
1727.44	0.517517	4.08936e-05
1727.94	0.517517	0.0152954
1728.38	0.516724	1.72729e-05
1728.88	0.517365	3.03955e-05
1729.38	0.517517	0.00942383
1729.84	-0.698761	-0.02265625
1730.32	0.517853	2.0813e-05
1730.82	0.51825	0.000312042
1731.28	-0.698883	-0.0159515
1731.76	0.517395	1.96228e-05
1732.26	0.518066	9.14612e-05
1732.74	-0.000393677	0.00754089
1733.2	0.516937	2.14844e-05
1733.7	0.516937	6.03638e-05
1734.18	0.000610352	0.00506226
1734.64	0.518311	1.11389e-05
1735.14	0.517578	3.93677e-05
1735.64	0.517273	0.0153107
1736.08	0.517792	1.07422e-05
1736.58	0.518311	2.44751e-05
1737.08	0.516571	0.00947266
1737.54	-0.697723	-0.0226715
1738.02	0.518127	1.93787e-05
1738.52	0.516754	0.000328247
1738.98	-0.699127	-0.0159698
1739.46	0.518219	1.46179e-05
1739.96	0.516998	0.000100464
1740.44	-0.000543213	0.00752563
1740.9	0.517517	1.58691e-05
1741.4	0.517181	5.9082e-05
1741.88	0.000778198	0.0050531
1742.34	0.518188	1.08032e-05
1742.84	0.517303	4.03748e-05
1743.34	0.516388	0.0153198
1743.78	0.518219	8.05664e-06
1744.28	0.517792	2.61536e-05
1744.78	0.517792	0.00948486
1745.24	-0.698608	-0.0226929
1745.72	0.516846	2.96326e-05
1746.22	0.516998	0.000330719
1746.68	-0.697784	-0.0160034
1747.16	0.518219	1.57776e-05
1747.66	0.518036	9.33228e-05
1748.14	-0.000671387	0.00751648
1748.6	0.517334	1.52588e-05
1749.1	0.516968	6.10352e-05
1749.58	0.000756836	0.00504425
1750.04	0.516937	1.828e-05
1750.54	0.517792	3.87268e-05
1751.04	0.516479	0.0153168
1751.48	0.518188	8.94165e-06
1751.98	0.517792	2.81982e-05
1752.48	0.516357	0.00951843
1752.94	-0.697601	-0.0227081
1753.42	0.5177	2.24609e-05
1753.92	0.516846	0.000339752
1754.38	-0.69812	-0.0160217
1754.86	0.518158	1.55945e-05
1755.36	0.517242	9.96399e-05
1755.84	-0.000143433	0.00749512
1756.3	0.518341	1.18713e-05
1756.8	0.517883	5.50232e-05
1757.28	-0.00020752	0.00503967
1757.74	0.518097	1.08643e-05
1758.24	0.516876	4.56238e-05
1758.74	0.517334	0.0153259
1759.18	0.516968	1.55029e-05
1759.68	0.516907	3.31726e-05
1760.18	0.517365	0.00953369
1760.64	-0.69751	-0.0227203
1761.12	0.517578	2.37427e-05
1761.62	0.516815	0.000347321
1762.08	-0.699097	-0.0160431
1762.56	0.516785	2.30103e-05
1763.06	0.516998	0.000100891
1763.54	-0.000558472	0.0074762
1764	0.516907	2.06909e-05
1764.5	0.51767	5.71899e-05
1764.98	0.000778198	0.00502808
1765.44	0.518219	9.39941e-06
1765.94	0.517212	4.32129e-05
1766.44	0.517426	0.015332
1766.88	0.517273	1.45874e-05
1767.38	0.516968	3.43933e-05
1767.88	0.517792	0.00957642
1768.34	-0.698761	-0.0227295
1768.82	0.518158	2.005e-05
1769.32	0.517487	0.000349121
1769.78	-0.698853	-0.0160797
1770.26	0.517151	2.0752e-05
1770.76	0.516785	0.000104034
1771.24	0.000296021	0.00744751
1771.7	0.518005	1.31531e-05
1772.2	0.517426	6.06079e-05
1772.68	-0.000378418	0.00502472
1773.14	0.517426	1.3031e-05
1773.64	0.517517	4.07104e-05
1774.14	0.517365	0.0153473
1774.58	0.517944	1.05591e-05
1775.08	0.518036	2.81067e-05
1775.58	0.516815	0.00960693
1776.04	-0.697449	-0.0227509
1776.52	0.517517	2.36511e-05
1777.02	0.517914	0.000353088
1777.48	-0.697845	-0.0160919
1777.96	0.517426	1.98975e-05
1778.46	0.516815	0.000103485
1778.94	-0.000747681	0.00744019
1779.4	0.518219	1.32446e-05
1779.9	0.516724	6.23474e-05
1780.38	-0.000378418	0.00501404
1780.84	0.517029	1.77002e-05
1781.34	0.517517	4.07715e-05
1781.84	0.516174	0.0153503
1782.28	0.518341	7.56836e-06
1782.78	0.517761	2.86255e-05
1783.28	0.516479	0.00963135
1783.74	-0.698395	-0.0227539
1784.22	0.51828	2.01416e-05
1784.72	0.517334	0.000361847
1785.18	-0.698303	-0.0161102
1785.66	0.51828	1.66016e-05
1786.16	0.516785	0.000105377
1786.64	0.000769043	0.00741241
1787.1	0.518097	1.25122e-05
1787.6	0.51709	5.92651e-05
1788.08	-0.000439453	0.00500488
1788.54	0.518066	1.28174e-05
1789.04	0.5177	3.87878e-05
1789.54	0.516449	0.0153625
1789.98	0.516907	1.79443e-05
1790.48	0.517731	2.91138e-05
1790.98	0.516479	0.00965881
1791.44	-0.697327	-0.0227783
1791.92	0.516846	2.67334e-05
1792.42	0.517822	0.000364929
1792.88	-0.698273	-0.0161469
1793.36	0.51825	1.59302e-05
1793.86	0.518097	9.86938e-05
1794.34	0.000415039	0.00739838
1794.8	0.518158	1.23901e-05
1795.3	0.516876	6.28357e-05
1795.78	-0.000375366	0.00499725
1796.24	0.516968	1.63269e-05
1796.74	0.516907	4.49829e-05
1797.24	0.516907	0.0153656
1797.68	0.5177	1.171875E-05
1798.18	0.517975	2.99683e-05
1798.68	0.517181	0.00967712
1799.14	-0.697357	-0.0227905
1799.62	0.517273	2.70691e-05
1800.12	0.516815	0.000379608
1800.58	-0.698944	-0.0161621
1801.06	0.518158	1.651e-05
1801.56	0.516785	0.000105927
1802.04	-0.000646973	0.00738708
1802.5	0.518097	1.39771e-05
1803	0.517517	5.59082e-05
1803.48	-0.000338745	0.00499146
1803.94	0.517395	1.2207e-05
1804.44	0.517883	3.80249e-05
1804.94	0.516113	0.0153839
1805.38	0.517731	1.21765e-05
1805.88	0.518341	2.60315e-05
1806.38	0.517792	0.00970459
1806.84	-0.698639	-0.0227966
1807.32	0.51767	2.45667e-05
1807.82	0.518158	0.000381561
1808.28	-0.698578	-0.0161987
1808.76	0.51767	1.98059e-05
1809.26	0.517883	9.91821e-05
1809.74	-0.000692749	0.00736786
1810.2	0.516998	2.00806e-05
1810.7	0.518127	5.47791e-05
1811.18	0.000650024	0.00497223
1811.64	0.517639	1.3092e-05
1812.14	0.517517	4.11377e-05
1812.64	0.517456	0.0153778
1813.08	0.516907	1.59912e-05
1813.58	0.516937	3.45459e-05
1814.08	0.517792	0.00971985
1814.54	-0.698456	-0.022818
1815.02	0.516998	2.88086e-05
1815.52	0.517609	0.000399323
1815.98	-0.699158	-0.0162201
1816.46	0.517303	2.17285e-05
1816.96	0.517914	9.8938e-05
1817.44	-0.000317383	0.00735657
1817.9	0.516724	2.13318e-05
1818.4	0.518127	5.51147e-05
1818.88	-0.000125122	0.00497894
1819.34	0.51767	1.34888e-05
1819.84	0.517242	4.38843e-05
1820.34	0.516174	0.0154114
1820.78	0.516846	1.62354e-05
1821.28	0.51712	3.33252e-05
1821.78	0.516449	0.00975037
1822.24	-0.697693	-0.0228516
1822.72	0.517273	2.68555e-05
1823.22	0.517792	0.000401093
1823.68	-0.699219	-0.0162506
1824.16	0.517761	1.89209e-05
1824.66	0.517792	0.000100433
1825.14	-0.000100708	0.00733307
1825.6	0.517303	1.90125e-05
1826.1	0.517883	5.5603e-05
1826.58	-0.000662231	0.00496887
1827.04	0.516876	1.9043e-05
1827.54	0.516907	4.44031e-05
1828.04	0.517395	0.0154114
1828.48	0.517883	1.00708e-05
1828.98	0.517914	2.78625e-05
1829.48	0.517761	0.00978088
1829.94	-0.698669	-0.0228516
1830.42	0.518097	2.19116e-05
1830.92	0.518127	0.000402954
1831.38	-0.699066	-0.016275
1831.86	0.516693	2.66113e-05
1832.36	0.517914	0.000100555
1832.84	0.000354004	0.00731262
1833.3	0.517456	1.83411e-05
1833.8	0.51825	5.26733e-05
1834.28	0.000366211	0.00495026
1834.74	0.518219	1.01318e-05
1835.24	0.517151	4.34265e-05
1835.74	0.516357	0.0154297
1836.18	0.517517	1.3092e-05
1836.68	0.516785	3.48816e-05
1837.18	0.517761	0.0098053
1837.64	-0.698578	-0.0228638
1838.12	0.516785	2.99988e-05
1838.62	0.518188	0.000410522
1839.08	-0.697662	-0.0163086
1839.56	0.516724	2.66113e-05
1840.06	0.518158	9.82361e-05
1840.54	-0.000543213	0.00730164
1841	0.5177	1.63574e-05
1841.5	0.516754	6.40564e-05
1841.98	0.000790405	0.00494446
1842.44	0.51712	1.80054e-05
1842.94	0.517365	4.1626e-05
1843.44	0.517639	0.0154266
1843.88	0.517731	8.69751e-06
1844.38	0.518219	2.6123e-05
1844.88	0.516693	0.00983582
1845.34	-0.6987	-0.0228882
1845.82	0.51825	1.95618e-05
1846.32	0.51767	0.000425201
1846.78	-0.697662	-0.0163422
1847.26	0.517395	2.19421e-05
1847.76	0.517883	9.94568e-05
1848.24	-0.000784302	0.00728058
1848.7	0.516815	2.36511e-05
1849.2	0.518188	5.37109e-05
1849.68	-0.000531006	0.00494476
1850.14	0.518127	1.06506e-05
1850.64	0.516876	4.422e-05
1851.14	0.516663	0.0154449
1851.58	0.517212	1.651e-05
1852.08	0.518005	2.82288e-05
1852.58	0.516907	0.00986328
1853.04	-0.698853	-0.0229004
1853.52	0.517212	2.89612e-05
1854.02	0.516815	0.00043985
1854.48	-0.697784	-0.0163574
1854.96	0.517395	2.14539e-05
1855.46	0.516815	0.000110291
1855.94	-0.000686646	0.00726593
1856.4	0.517426	1.88293e-05
1856.9	0.518158	5.41382e-05
1857.38	-0.000180054	0.00493225
1857.84	0.517426	1.6571e-05
1858.34	0.518158	3.52173e-05
1858.84	0.51651	0.0154541
1859.28	0.518127	9.97925e-06
1859.78	0.516693	3.61938e-05
1860.28	0.517792	0.00987549
1860.74	-0.697357	-0.0229156
1861.22	0.517517	2.45972e-05
1861.72	0.51825	0.000440918
1862.18	-0.699005	-0.0163727
1862.66	0.516846	2.64282e-05
1863.16	0.517731	0.000102905
1863.64	0.000723267	0.00723999
1864.1	0.518036	1.3855e-05
1864.6	0.518188	5.42603e-05
1865.08	0.000717163	0.0049176
1865.54	0.517883	1.51367e-05
1866.04	0.51825	3.74756e-05
1866.54	0.51709	0.0154572
1866.98	0.516815	1.86768e-05
1867.48	0.517975	2.6825e-05
1867.98	0.517792	0.00989685
1868.44	-0.69873	-0.0229156
1868.92	0.517853	2.19116e-05
1869.42	0.517456	0.000457611
1869.88	-0.69809	-0.0164032
1870.36	0.516907	2.46277e-05
1870.86	0.518188	0.00010141
1871.34	0.000146484	0.00722717
1871.8	0.516693	2.37122e-05
1872.3	0.516907	6.41479e-05
1872.78	-0.000588989	0.00491608
1873.24	0.518188	1.17798e-05
1873.74	0.517365	4.3457e-05
1874.24	0.517487	0.015451
1874.68	0.518158	9.24683e-06
1875.18	0.518066	2.76794e-05
1875.68	0.516754	0.00991821
1876.14	-0.697357	-0.022937
1876.62	0.517883	2.20947e-05
1877.12	0.517853	0.000462952
1877.58	-0.697906	-0.0164307
1878.06	0.517181	2.28882e-05
1878.56	0.51825	0.000101501
1879.04	3.05176e-06	0.0072052
1879.5	0.517731	1.77917e-05
1880	0.518127	5.62134e-05
1880.48	-0.000167847	0.00490234
1880.94	0.517273	1.66321e-05
1881.44	0.516968	4.26636e-05
1881.94	0.516388	0.0154694
1882.38	0.516846	1.71509e-05
1882.88	0.517181	3.34167e-05
1883.38	0.517517	0.00994263
1883.84	-0.698151	-0.0229523
1884.32	0.518158	2.09351e-05
1884.82	0.51709	0.000479218
1885.28	-0.697723	-0.0164429
1885.76	0.517334	2.32849e-05
1886.26	0.516815	0.000111542
1886.74	-0.000674438	0.00719452
1887.2	0.518066	1.41296e-05
1887.7	0.51825	5.54504e-05
1888.18	-0.000332642	0.00489105
1888.64	0.518127	1.05896e-05
1889.14	0.51712	4.46167e-05
1889.64	0.517242	0.0154694
1890.08	0.518188	9.12476e-06
1890.58	0.517029	3.48206e-05
1891.08	0.517761	0.00996094
1891.54	-0.697418	-0.0229675
1892.02	0.516724	3.02124e-05
1892.52	0.517761	0.000486481
1892.98	-0.698151	-0.0164673
1893.46	0.516693	2.41089e-05
1893.96	0.51825	0.000103333
1894.44	0.000418091	0.0071701
1894.9	0.517853	1.61133e-05
1895.4	0.516846	6.61926e-05
1895.88	0.000402832	0.00488495
1896.34	0.516785	1.99585e-05
1896.84	0.517731	4.02222e-05
1897.34	0.516541	0.0154846
1897.78	0.51828	7.99561e-06
1898.28	0.518158	2.83203e-05
1898.78	0.516388	0.00999451
1899.24	-0.698242	-0.0229584
1899.72	0.516724	3.08838e-05
1900.22	0.516846	0.000504456
1900.68	-0.699005	-0.0164886
1901.16	0.518036	1.64185e-05
1901.66	0.51767	0.000104736
1902.14	0.000509644	0.00715302
1902.6	0.517944	1.42212e-05
1903.1	0.517365	6.38123e-05
1903.58	0.000714111	0.00487244
1904.04	0.517609	1.42822e-05
1904.54	0.516937	4.51965e-05
1905.04	0.516388	0.0154846
1905.48	0.517578	1.30615e-05
1905.98	0.517761	2.92969e-05
1906.48	0.51709	0.0100037
1906.94	-0.697693	-0.022998
1907.42	0.517578	2.33154e-05
1907.92	0.51712	0.000512695
1908.38	-0.699036	-0.01651
1908.86	0.518188	1.71204e-05
1909.36	0.5177	0.000109467
1909.84	-0.000692749	0.00715118
1910.3	0.516876	2.19116e-05
1910.8	0.518219	5.60913e-05
1911.28	-8.54492e-05	0.00487274
1911.74	0.517059	1.93176e-05
1912.24	0.517517	4.23279e-05
1912.74	0.517395	0.0154785
1913.18	0.516785	1.84021e-05
1913.68	0.517639	3.33557e-05
1914.18	0.517761	0.0100281
1914.64	-0.697449	-0.022998
1915.12	0.517853	2.43225e-05
1915.62	0.517853	0.000520325
1916.08	-0.698914	-0.0165344
1916.56	0.517029	2.47803e-05
1917.06	0.517578	0.000108582
1917.54	-0.00039978	0.00713196
1918	0.517792	1.55945e-05
1918.5	0.51709	6.41479e-05
1918.98	0.000344849	0.00485626
1919.44	0.516998	1.96533e-05
1919.94	0.516876	4.57153e-05
1920.44	0.516083	0.0154938
1920.88	0.517883	1.22986e-05
1921.38	0.518097	2.76489e-05
1921.88	0.517426	0.0100494
1922.34	-0.698334	-0.0230072
1922.82	0.518188	2.0752e-05
1923.32	0.516693	0.000544434
1923.78	-0.699158	-0.0165527
1924.26	0.516785	2.62146e-05
1924.76	0.518005	0.000106689
1925.24	0.000689697	0.0071051
1925.7	0.518127	1.24512e-05
1926.2	0.517731	5.92957e-05
1926.68	0.00065918	0.00484833
1927.14	0.517029	1.79749e-05
1927.64	0.516846	4.63257e-05
1928.14	0.516144	0.015506
1928.58	0.517273	1.52588e-05
1929.08	0.51767	3.06702e-05
1929.58	0.516541	0.0100739
1930.04	-0.697968	-0.0230225
1930.52	0.516785	3.07007e-05
1931.02	0.516815	0.000557556
1931.48	-0.698944	-0.0165802
1931.96	0.518219	1.70593e-05
1932.46	0.516815	0.000116425
1932.94	-0.00065918	0.00709961
1933.4	0.517731	1.49841e-05
1933.9	0.517883	5.82581e-05
1934.38	0.000540161	0.00483704
1934.84	0.516907	1.93481e-05
1935.34	0.516724	4.71191e-05
1935.84	0.517517	0.0155029
1936.28	0.516785	1.87378e-05
1936.78	0.518005	2.95105e-05
1937.28	0.517761	0.0101013
1937.74	-0.6987	-0.0230377
1938.22	0.518066	2.18201e-05
1938.72	0.516785	0.000574036
1939.18	-0.697906	-0.0166077
1939.66	0.518127	1.90735e-05
1940.16	0.518097	0.000107697
1940.64	0.000216675	0.00707367
1941.1	0.518066	1.49841e-05
1941.6	0.517548	6.03943e-05
1942.08	0.000198364	0.00483612
1942.54	0.517059	1.76392e-05
1943.04	0.517914	4.00085e-05
1943.54	0.516693	0.0155121
1943.98	0.517883	8.97217e-06
1944.48	0.516876	3.69873e-05
1944.98	0.51651	0.0101257
1945.44	-0.698517	-0.023053
1945.92	0.517365	2.55737e-05
1946.42	0.517395	0.000585327
1946.88	-0.699158	-0.016626
1947.36	0.516724	2.7771e-05
1947.86	0.517029	0.000115021
1948.34	3.05176e-06	0.00705566
1948.8	0.517883	1.58997e-05
1949.3	0.51712	6.61926e-05
1949.78	-0.000506592	0.00482452
1950.24	0.517242	1.71814e-05
1950.74	0.516846	4.76379e-05
1951.24	0.51712	0.0155243
1951.68	0.517303	1.66626e-05
1952.18	0.517181	3.56445e-05
1952.68	0.517792	0.0101379
1953.14	-0.698273	-0.0230652
1953.62	0.518311	2.0874e-05
1954.12	0.517517	0.000597839
1954.58	-0.698395	-0.0166504
1955.06	0.518219	1.73645e-05
1955.56	0.517334	0.000115082
1956.04	0.000201416	0.00704559
1956.5	0.516724	2.42004e-05
1957	0.518127	5.82886e-05
1957.48	-0.000445557	0.00481476
1957.94	0.517059	1.90735e-05
1958.44	0.517273	4.33655e-05
1958.94	0.516327	0.0155182
1959.38	0.516724	1.79749e-05
1959.88	0.517426	3.26233e-05
1960.38	0.517212	0.0101501
1960.84	-0.698395	-0.0230804
1961.32	0.517761	2.28577e-05
1961.82	0.518188	0.000612183
1962.28	-0.699127	-0.0166565
1962.76	0.518005	1.93481e-05
1963.26	0.516724	0.000117889
1963.74	0.00062561	0.00701996
1964.2	0.517883	1.58691e-05
1964.7	0.518219	5.81665e-05
1965.18	-7.32422e-05	0.00480347
1965.64	0.518341	1.15662e-05
1966.14	0.516724	4.79126e-05
1966.64	0.516144	0.0155273
1967.08	0.516907	1.73035e-05
1967.58	0.517334	3.16772e-05
1968.08	0.517517	0.0101746
1968.54	-0.6987	-0.0230743
1969.02	0.518097	2.13623e-05
1969.52	0.518158	0.000627441
1969.98	-0.698578	-0.016684
1970.46	0.516907	2.72217e-05
1970.96	0.517487	0.000113647
1971.44	0.000405884	0.00700897
1971.9	0.517273	2.09351e-05
1972.4	0.517548	6.34155e-05
1972.88	-0.000177002	0.0047995
1973.34	0.517242	1.81885e-05
1973.84	0.516754	4.73938e-05
1974.34	0.517365	0.0155243
1974.78	0.518188	8.97217e-06
1975.28	0.516968	3.64685e-05
1975.78	0.516357	0.0101959
1976.24	-0.698608	-0.0230804
1976.72	0.518219	2.10571e-05
1977.22	0.516754	0.000649414
1977.68	-0.69809	-0.0167114
1978.16	0.517212	2.34375e-05
1978.66	0.518158	0.000110809
1979.14	-0.000601196	0.00700195
1979.6	0.517395	2.09045e-05
1980.1	0.517273	6.37817e-05
1980.58	0.000100708	0.00478546
1981.04	0.517181	1.83411e-05
1981.54	0.516876	4.77295e-05
1982.04	0.517334	0.0155273
1982.48	0.516876	1.87073e-05
1982.98	0.517487	3.28064e-05
1983.48	0.516266	0.0102142
1983.94	-0.6987	-0.0230988
1984.42	0.517334	2.83508e-05
1984.92	0.517853	0.000658875
1985.38	-0.698303	-0.0167175
1985.86	0.517334	1.9928e-05
1986.36	0.518127	0.000112152
1986.84	0.000723267	0.00697662
1987.3	0.516998	2.21558e-05
1987.8	0.516785	6.92139e-05
1988.28	-0.00017395	0.00477509
1988.74	0.517792	1.49536e-05
1989.24	0.516998	4.6814e-05
1989.74	0.516083	0.0155365
1990.18	0.518219	9.552e-06
1990.68	0.517944	2.948e-05
1991.18	0.5177	0.0102234
1991.64	-0.698212	-0.0231018
1992.12	0.517334	2.67029e-05
1992.62	0.518158	0.000675964
1993.08	-0.69873	-0.016748
1993.56	0.51767	2.18201e-05
1994.06	0.517059	0.000119446
1994.54	-0.000744629	0.00696747
1995	0.518005	1.58081e-05
1995.5	0.517242	6.57959e-05
1995.98	0.000665283	0.00478088
1996.44	0.516815	2.18811e-05
1996.94	0.516785	4.82178e-05
1997.44	0.516144	0.0155701
1997.88	0.517792	9.97925e-06
1998.38	0.517883	2.92053e-05
1998.88	0.517548	0.0102509
1999.34	-0.697388	-0.0231445
1999.82	0.516785	2.83813e-05
2000.32	0.516937	0.000689087
2000.78	-0.697815	-0.0167908
2001.26	0.516876	2.63062e-05
2001.76	0.517792	0.000113373
2002.24	-0.000762939	0.00696594
2002.7	0.518158	1.52283e-05
2003.2	0.516876	6.58569e-05
2003.68	-6.71387e-05	0.00477753
2004.14	0.518036	1.16577e-05
2004.64	0.516815	4.87976e-05
2005.14	0.517395	0.015567
2005.58	0.517029	1.76392e-05
2006.08	0.517395	3.25317e-05
2006.58	0.517578	0.01026
2007.04	-0.69873	-0.0231506
2007.52	0.517914	2.51465e-05
2008.02	0.517914	0.000698853
2008.48	-0.697693	-0.0168091
2008.96	0.518188	1.69678e-05
2009.46	0.516693	0.000122833
2009.94	0.000497437	0.00694031
2010.4	0.517334	2.04163e-05
2010.9	0.517578	6.14929e-05
2011.38	0.000610352	0.00476593
2011.84	0.516937	1.75171e-05
2012.34	0.51825	3.95203e-05
2012.84	0.516205	0.0155823
2013.28	0.517822	1.14441e-05
2013.78	0.516724	3.7323e-05
2014.28	0.516937	0.0102814
2014.74	-0.698456	-0.0231689
2015.22	0.517151	2.86255e-05
2015.72	0.516693	0.000731201
2016.18	-0.698364	-0.0168304
2016.66	0.517059	2.31323e-05
2017.16	0.518097	0.000114258
2017.64	-0.000561523	0.00693451
2018.1	0.517334	1.76697e-05
2018.6	0.5177	6.53381e-05
2019.08	1.83105e-05	0.00476105
2019.54	0.517731	1.44958e-05
2020.04	0.517212	4.56543e-05
2020.54	0.517395	0.0155701
2020.98	0.518188	8.81958e-06
2021.48	0.517548	3.19214e-05
2021.98	0.516388	0.0103088
2022.44	-0.698029	-0.0231781
2022.92	0.517975	2.23999e-05
2023.42	0.518127	0.000743713
2023.88	-0.698914	-0.0168365
2024.36	0.517944	1.89819e-05
2024.86	0.51825	0.000115387
2025.34	-0.000271606	0.00691803
2025.8	0.517273	2.12708e-05
2026.3	0.517212	6.56738e-05
2026.78	-0.000405884	0.00475433
2027.24	0.517578	1.61743e-05
2027.74	0.516663	4.77295e-05
2028.24	0.517456	0.0155762
2028.68	0.516846	1.77612e-05
2029.18	0.516846	3.86963e-05
2029.68	0.517181	0.0103088
2030.14	-0.698334	-0.0231781
2030.62	0.518127	2.23999e-05
2031.12	0.516937	0.000772705
2031.58	-0.69809	-0.0168762
2032.06	0.516785	2.73132e-05
2032.56	0.516937	0.000123474
2033.04	-0.000650024	0.00690369
2033.5	0.517151	2.22473e-05
2034	0.517578	6.21338e-05
2034.48	-0.000238037	0.0047406
2034.94	0.51825	1.13831e-05
2035.44	0.516724	4.9469e-05
2035.94	0.516205	0.0155853
2036.38	0.517303	1.48315e-05
2036.88	0.517609	3.36609e-05
2037.38	0.516998	0.0103394
2037.84	-0.698639	-0.0231934
2038.32	0.516907	3.02429e-05
2038.82	0.516998	0.000786743
2039.28	-0.698212	-0.0168945
2039.76	0.516693	2.66113e-05
2040.26	0.517731	0.000116669
2040.74	0.000698853	0.00688049
2041.2	0.517334	1.83105e-05
2041.7	0.51828	6.05774e-05
2042.18	-0.000631714	0.00474182
2042.64	0.517242	1.78528e-05
2043.14	0.516754	4.79126e-05
2043.64	0.516113	0.0156036
2044.08	0.516815	1.76392e-05
2044.58	0.517212	3.43018e-05
2045.08	0.516785	0.0103607
2045.54	-0.698639	-0.0232147
2046.02	0.517517	2.56958e-05
2046.52	0.516968	0.00080658
2046.98	-0.697693	-0.016922
2047.46	0.517639	2.28577e-05
2047.96	0.517426	0.000118713
2048.44	0.000805664	0.00686768
2048.9	0.518097	1.42517e-05
2049.4	0.516846	7.01599e-05
2049.88	0.000219727	0.00473175
2050.34	0.517761	1.48621e-05
2050.84	0.518036	4.03748e-05
2051.34	0.517426	0.0156067
2051.78	0.51709	1.81274e-05
2052.28	0.517151	3.58582e-05
2052.78	0.516754	0.0103729
2053.24	-0.69754	-0.0232269
2053.72	0.517761	2.78015e-05
2054.22	0.51825	0.000819397
2054.68	-0.697845	-0.0169464
2055.16	0.517944	1.93787e-05
2055.66	0.51828	0.000115784
2056.14	0.000326538	0.00685547
2056.6	0.517151	2.0813e-05
2057.1	0.517029	6.73828e-05
2057.58	0.000497437	0.00472107
2058.04	0.518311	1.05896e-05
2058.54	0.517548	4.42505e-05
2059.04	0.516022	0.015625
2059.48	0.517059	1.64185e-05
2059.98	0.51709	3.78723e-05
2060.48	0.517761	0.0103882
2060.94	-0.69809	-0.0232391
2061.42	0.516876	3.16772e-05
2061.92	0.517273	0.000847473
2062.38	-0.698029	-0.0169708
2062.86	0.517853	1.98669e-05
2063.36	0.517761	0.000117645
2063.84	-0.000646973	0.00684906
2064.3	0.517242	2.07214e-05
2064.8	0.517426	6.35376e-05
2065.28	0.000463867	0.00471375
2065.74	0.51828	1.09253e-05
2066.24	0.517975	4.26941e-05
2066.74	0.516174	0.0156219
2067.18	0.516785	1.89209e-05
2067.68	0.516693	3.78723e-05
2068.18	0.517517	0.0104004
2068.64	-0.697266	-0.0232605
2069.12	0.516937	3.01208e-05
2069.62	0.517975	0.000875854
2070.08	-0.699005	-0.0169861
2070.56	0.517731	2.10266e-05
2071.06	0.517487	0.000120483
2071.54	0.000213623	0.00683014
2072	0.516724	2.40173e-05
2072.5	0.518219	5.92957e-05
2072.98	-0.000363159	0.00471283
2073.44	0.518036	1.17798e-05
2073.94	0.51825	4.10156e-05
2074.44	0.517303	0.0156219
2074.88	0.517395	1.41602e-05
2075.38	0.517731	3.17078e-05
2075.88	0.516327	0.0104279
2076.34	-0.698486	-0.0232574
2076.82	0.516907	3.10059e-05
2077.32	0.516846	0.000909729
2077.78	-0.697693	-0.0170074
2078.26	0.517975	1.84021e-05
2078.76	0.517365	0.000122833
2079.24	-0.000546265	0.0068158
2079.7	0.518036	1.53198e-05
2080.2	0.517242	6.68335e-05
2080.68	0.000842285	0.00469452
2081.14	0.518005	1.37634e-05
2081.64	0.517975	3.95203e-05
2082.14	0.516815	0.0156219
2082.58	0.517914	1.09253e-05
2083.08	0.518097	2.9541e-05
2083.58	0.5177	0.010434
2084.04	-0.6987	-0.0232727
2084.52	0.51709	2.99377e-05
2085.02	0.517578	0.000936279
2085.48	-0.697968	-0.0170166
2085.96	0.517944	2.22473e-05
2086.46	0.516785	0.000126923
2086.94	0.000604248	0.00679535
2087.4	0.516968	2.24915e-05
2087.9	0.516724	6.94275e-05
2088.38	-0.00012207	0.00468842
2088.84	0.518188	1.08643e-05
2089.34	0.518066	3.96118e-05
2089.84	0.51593	0.0156342
2090.28	0.516632	1.98975e-05
2090.78	0.516876	3.75977e-05
2091.28	0.516327	0.0104614
2091.74	-0.698029	-0.023291
2092.22	0.51828	2.09961e-05
2092.72	0.517029	0.000968933
2093.18	-0.697723	-0.0170471
2093.66	0.517639	2.05994e-05
2094.16	0.5177	0.000121002
2094.64	0.000723267	0.00677673
2095.1	0.517059	2.29492e-05
2095.6	0.518158	6.13403e-05
2096.08	0.000704956	0.00467957
2096.54	0.51767	1.43433e-05
2097.04	0.516785	4.89502e-05
2097.54	0.516724	0.0156311
2097.98	0.517517	1.24817e-05
2098.48	0.516998	3.71094e-05
2098.98	0.5177	0.0104645
2099.44	-0.697693	-0.0233093
2099.92	0.516907	3.10974e-05
2100.42	0.517334	0.00100525
2100.88	-0.697723	-0.0170654
2101.36	0.518158	1.828e-05
2101.86	0.517181	0.000125061
2102.34	0.000723267	0.00676056
2102.8	0.517822	1.63574e-05
2103.3	0.51709	6.73828e-05
2103.78	0.000112915	0.00466797
2104.24	0.516998	2.0874e-05
2104.74	0.518036	4.02832e-05
2105.24	0.516235	0.0156342
2105.68	0.517609	1.17798e-05
2106.18	0.517517	3.08228e-05
2106.68	0.516907	0.0104889
2107.14	-0.69809	-0.0233032
2107.62	0.517273	2.74353e-05
2108.12	0.516724	0.00104309
2108.58	-0.699097	-0.0170746
2109.06	0.518219	1.86768e-05
2109.56	0.516937	0.000128571
2110.04	0.000701904	0.00674347
2110.5	0.517059	2.05994e-05
2111	0.51767	6.21948e-05
2111.48	-0.000488281	0.00466583
2111.94	0.516815	2.14844e-05
2112.44	0.517303	4.55322e-05
2112.94	0.516815	0.0156403
2113.38	0.518158	9.67407e-06
2113.88	0.516846	3.83911e-05
2114.38	0.516266	0.0105072
2114.84	-0.698669	-0.0233124
2115.32	0.518158	2.2644e-05
2115.82	0.517609	0.00107025
2116.28	-0.697693	-0.0171021
2116.76	0.517426	2.31323e-05
2117.26	0.517181	0.000128723
2117.74	-0.000131226	0.00672913
2118.2	0.518188	1.6449e-05
2118.7	0.517761	6.42395e-05
2119.18	-0.000546265	0.00465118
2119.64	0.517365	1.81274e-05
2120.14	0.51709	4.82483e-05
2120.64	0.516083	0.0156525
2121.08	0.517181	1.58997e-05
2121.58	0.517975	3.13416e-05
2122.08	0.516754	0.0105255
2122.54	-0.697754	-0.0233246
2123.02	0.518066	2.35596e-05
2123.52	0.516846	0.00110962
2123.98	-0.699036	-0.0171143
2124.46	0.517731	2.15454e-05
2124.96	0.516846	0.000132721
2125.44	-0.000466919	0.00671783
2125.9	0.516846	2.27661e-05
2126.4	0.516876	6.9458e-05
2126.88	0.000137329	0.00464722
2127.34	0.517639	1.6449e-05
2127.84	0.517395	4.46777e-05
2128.34	0.516846	0.0156494
2128.78	0.517944	9.46045e-06
2129.28	0.517578	3.27148e-05
2129.78	0.517303	0.0105286
2130.24	-0.697876	-0.0233337
2130.72	0.51825	2.23389e-05
2131.22	0.516815	0.00113922
2131.68	-0.69873	-0.0171356
2132.16	0.518005	1.83411e-05
2132.66	0.51828	0.000124512
2133.14	-0.000177002	0.0066983
2133.6	0.518036	1.49536e-05
2134.1	0.516815	7.14417e-05
2134.58	-0.000311279	0.00463623
2135.04	0.517883	1.34277e-05
2135.54	0.517517	4.58679e-05
2136.04	0.516724	0.0156525
2136.48	0.51767	1.20239e-05
2136.98	0.518158	2.90222e-05
2137.48	0.517761	0.0105377
2137.94	-0.698792	-0.0233368
2138.42	0.516663	3.10974e-05
2138.92	0.516968	0.00118378
2139.38	-0.698029	-0.0171509
2139.86	0.516754	2.61841e-05
2140.36	0.517883	0.000125366
2140.84	0.000119019	0.00668182
2141.3	0.518158	1.43433e-05
2141.8	0.518158	6.19812e-05
2142.28	-0.000466919	0.00462646
2142.74	0.517975	1.19324e-05
2143.24	0.518036	4.22974e-05
2143.74	0.516571	0.0156494
2144.18	0.517609	1.38245e-05
2144.68	0.51709	3.85742e-05
2145.18	0.5177	0.0105591
2145.64	-0.697693	-0.0233459
2146.12	0.5177	2.6123e-05
2146.62	0.516998	0.0012262
2147.08	-0.698395	-0.0171692
2147.56	0.517609	2.09351e-05
2148.06	0.517242	0.000133118
2148.54	-0.000640869	0.00667328
2149	0.517731	1.64795e-05
2149.5	0.516998	7.07397e-05
2149.98	3.96729e-05	0.00460968
2150.44	0.516754	2.20337e-05
2150.94	0.516815	5.08118e-05
2151.44	0.51712	0.0156586
2151.88	0.517944	1.14746e-05
2152.38	0.517883	3.09143e-05
2152.88	0.51709	0.0105743
2153.34	-0.698303	-0.0233612
2153.82	0.518005	2.3407e-05
2154.32	0.518127	0.00126678
2154.78	-0.699066	-0.0171814
2155.26	0.517761	2.12097e-05
2155.76	0.516968	0.000135254
2156.24	0.000244141	0.00665314
2156.7	0.516785	2.41394e-05
2157.2	0.516846	7.2113e-05
2157.68	0.00057373	0.004599
2158.14	0.51828	1.20544e-05
2158.64	0.5177	4.27551e-05
2159.14	0.517334	0.0156494
2159.58	0.517334	1.62354e-05
2160.08	0.516907	3.89709e-05
2160.58	0.517029	0.0106018
2161.04	-0.69812	-0.0233643
2161.52	0.516876	3.17993e-05
2162.02	0.517792	0.001315
2162.48	-0.698425	-0.0172089
2162.96	0.518311	1.66931e-05
2163.46	0.518127	0.000128632
2163.94	-0.00062561	0.00664307
2164.4	0.516846	2.36816e-05
2164.9	0.516724	7.27234e-05
2165.38	-0.00017395	0.00459137
2165.84	0.517792	1.45874e-05
2166.34	0.516907	4.99268e-05
2166.84	0.515991	0.0156616
2167.28	0.517426	1.54419e-05
2167.78	0.517548	3.35999e-05
2168.28	0.51767	0.0106018
2168.74	-0.698517	-0.0233643
2169.22	0.518127	2.31934e-05
2169.72	0.517242	0.00135162
2170.18	-0.697662	-0.0172089
2170.66	0.516968	2.65198e-05
2171.16	0.516937	0.000136658
2171.64	0.000720215	0.00662201
2172.1	0.517273	1.90125e-05
2172.6	0.517578	6.67419e-05
2173.08	-0.000494385	0.00458954
2173.54	0.517609	1.48315e-05
2174.04	0.516937	5.03845e-05
2174.54	0.516144	0.0156616
2174.98	0.516846	1.5686e-05
2175.48	0.518097	3.15552e-05
2175.98	0.516327	0.0106201
2176.44	-0.698486	-0.0233826
2176.92	0.516632	3.27759e-05
2177.42	0.518188	0.00139832
2177.88	-0.697815	-0.0172333
2178.36	0.516907	2.6123e-05
2178.86	0.517761	0.000131836
2179.34	0.000256348	0.00660553
2179.8	0.517609	1.90125e-05
2180.3	0.516876	7.09229e-05
2180.78	-0.000509644	0.00458069
2181.24	0.516876	2.16675e-05
2181.74	0.517273	4.66614e-05
2182.24	0.516479	0.0156677
2182.68	0.517975	1.02844e-05
2183.18	0.516937	3.89099e-05
2183.68	0.516388	0.0106445
2184.14	-0.697571	-0.0233887
2184.62	0.517914	2.49939e-05
2185.12	0.5177	0.00145416
2185.58	-0.698639	-0.0172485
2186.06	0.516724	2.68555e-05
2186.56	0.51767	0.000135162
2187.04	-0.000695801	0.00660278
2187.5	0.517578	1.85852e-05
2188	0.517334	6.90918e-05
2188.48	-0.000552368	0.00457611
2188.94	0.517639	1.5686e-05
2189.44	0.517365	4.73328e-05
2189.94	0.516663	0.0156647
2190.38	0.518158	9.52148e-06
2190.88	0.51828	3.00293e-05
2191.38	0.516449	0.0106567
2191.84	-0.698334	-0.0234009
2192.32	0.518158	2.33154e-05
2192.82	0.517914	0.00151428
2193.28	-0.697968	-0.0172699
2193.76	0.518127	1.89819e-05
2194.26	0.518188	0.000130829
2194.74	0.000430298	0.00658203
2195.2	0.516693	2.53906e-05
2195.7	0.518188	6.36292e-05
2196.18	-0.000476074	0.00457153
2196.64	0.517426	1.8219e-05
2197.14	0.517914	4.18396e-05
2197.64	0.516693	0.015683
2198.08	0.516846	1.828e-05
2198.58	0.517212	3.61023e-05
2199.08	0.516327	0.0106659
2199.54	-0.697357	-0.0234192
2200.02	0.517639	2.79846e-05
2200.52	0.517792	0.00157837
2200.98	-0.698517	-0.0172913
2201.46	0.517883	2.2522e-05
2201.96	0.517914	0.000134247
2202.44	0.000695801	0.0065683
2202.9	0.516754	2.36816e-05
2203.4	0.518372	6.31104e-05
2203.88	-0.000518799	0.00456207
2204.34	0.517151	1.84631e-05
2204.84	0.51709	4.90723e-05
2205.34	0.516052	0.015683
2205.78	0.517883	1.11389e-05
2206.28	0.518097	3.13416e-05
2206.78	0.517181	0.0106812
2207.24	-0.698456	-0.0234253
2207.72	0.516846	3.3783e-05
2208.22	0.51825	0.00163757
2208.68	-0.697662	-0.0173187
2209.16	0.518158	1.91345e-05
2209.66	0.516785	0.000144165
2210.14	0.000723267	0.00655853
2210.6	0.518219	1.41907e-05
2211.1	0.517761	6.52771e-05
2211.58	-0.000411987	0.00455109
2212.04	0.517548	1.5564e-05
2212.54	0.517426	4.77295e-05
2213.04	0.517487	0.0156738
2213.48	0.516815	2.11182e-05
2213.98	0.516785	3.87878e-05
2214.48	0.517761	0.0106842
2214.94	-0.697723	-0.0234406
2215.42	0.51828	2.44141e-05
2215.92	0.517578	0.00172394
2216.38	-0.699005	-0.0173248
2216.86	0.518188	1.98975e-05
2217.36	0.518036	0.000135101
2217.84	0.000457764	0.0065387
2218.3	0.517822	1.75781e-05
2218.8	0.517883	6.75964e-05
2219.28	-0.000549316	0.00454407
2219.74	0.518127	1.36719e-05
2220.24	0.518127	4.11377e-05
2220.74	0.517426	0.0156799
2221.18	0.518066	1.10168e-05
2221.68	0.518158	3.21045e-05
2222.18	0.517151	0.0106995
2222.64	-0.697662	-0.0234314
2223.12	0.517181	2.92664e-05
2223.62	0.516815	0.00181274
2224.08	-0.698822	-0.0173462
2224.56	0.518188	1.97144e-05
2225.06	0.517731	0.000139954
2225.54	-0.000326538	0.00652893
2226	0.517853	1.83411e-05
2226.5	0.517151	7.08313e-05
2226.98	-0.000262451	0.00453217
2227.44	0.516998	1.9043e-05
2227.94	0.516998	4.95605e-05
2228.44	0.516296	0.015683
2228.88	0.517212	1.79443e-05
2229.38	0.516876	3.87573e-05
2229.88	0.516663	0.0107269
2230.34	-0.698486	-0.0234406
2230.82	0.517365	2.79846e-05
2231.32	0.517334	0.00188263
2231.78	-0.698975	-0.0173553
2232.26	0.51712	2.52075e-05
2232.76	0.518066	0.000137329
2233.24	-0.000231934	0.00651825
2233.7	0.516846	2.56653e-05
2234.2	0.518066	6.62537e-05
2234.68	0.000549316	0.00451996
2235.14	0.517517	1.52588e-05
2235.64	0.517639	4.34265e-05
2236.14	0.517426	0.0156891
2236.58	0.517365	1.63879e-05
2237.08	0.517517	3.39966e-05
2237.58	0.517792	0.0107239
2238.04	-0.698669	-0.0234467
2238.52	0.517883	2.56653e-05
2239.02	0.517853	0.00196991
2239.48	-0.698212	-0.0173767
2239.96	0.516754	2.93579e-05
2240.46	0.516876	0.000147949
2240.94	0.000732422	0.00649323
2241.4	0.517944	1.62048e-05
2241.9	0.516937	7.52869e-05
2242.38	0.000500488	0.00451233
2242.84	0.517853	1.54114e-05
2243.34	0.516815	5.03235e-05
2243.84	0.517548	0.015686
2244.28	0.517517	1.40076e-05
2244.78	0.516968	3.85132e-05
2245.28	0.517212	0.0107422
2245.74	-0.697693	-0.0234558
2246.22	0.518036	2.49023e-05
2246.72	0.518188	0.00207153
2247.18	-0.698761	-0.0173981
2247.66	0.518066	1.97449e-05
2248.16	0.518219	0.000140503
2248.64	-0.000732422	0.00648682
2249.1	0.516937	2.39868e-05
2249.6	0.518188	6.56738e-05
2250.08	0.000448608	0.00450012
2250.54	0.518127	1.40076e-05
2251.04	0.51709	4.92859e-05
2251.54	0.516174	0.0156921
2251.98	0.518311	1.08643e-05
2252.48	0.518127	2.97852e-05
2252.98	0.516327	0.0107605
2253.44	-0.697632	-0.0234711
2253.92	0.51712	3.24097e-05
2254.42	0.518005	0.00216431
2254.88	-0.698029	-0.0174133
2255.36	0.517853	2.18811e-05
2255.86	0.516907	0.000147858
2256.34	-0.000610352	0.006474
2256.8	0.518036	1.68457e-05
2257.3	0.517822	6.82678e-05
2257.78	-0.000558472	0.00449615
2258.24	0.518311	1.34888e-05
2258.74	0.51825	4.23889e-05
2259.24	0.517029	0.0156982
2259.68	0.518219	1.07422e-05
2260.18	0.517365	3.73535e-05
2260.68	0.517609	0.0107666
2261.14	-0.69812	-0.0234772
2261.62	0.517365	2.84729e-05
2262.12	0.516907	0.00228302
2262.58	-0.699127	-0.0174194
2263.06	0.518158	1.87073e-05
2263.56	0.516815	0.000152527
2264.04	-0.000619507	0.00646179
2264.5	0.517761	1.79443e-05
2265	0.516754	7.61108e-05
2265.48	0.000405884	0.00448059
2265.94	0.516754	2.29492e-05
2266.44	0.517365	4.92554e-05
2266.94	0.516876	0.0157013
2267.38	0.518311	1.05286e-05
2267.88	0.516846	4.01001e-05
2268.38	0.516632	0.0107727
2268.84	-0.698517	-0.0234772
2269.32	0.516876	3.2196e-05
2269.82	0.518066	0.00238525
2270.28	-0.698914	-0.0174316
2270.76	0.517944	2.0752e-05
2271.26	0.518066	0.000145203
2271.74	-0.000338745	0.00644684
2272.2	0.518127	1.74866e-05
2272.7	0.518036	6.6925e-05
2273.18	0.000216675	0.00447632
2273.64	0.516876	2.13623e-05
2274.14	0.517975	4.27856e-05
2274.64	0.516205	0.0156982
2275.08	0.516754	1.9989e-05
2275.58	0.517853	3.28674e-05
2276.08	0.516632	0.0107971
2276.54	-0.698425	-0.0234894
2277.02	0.517029	3.06091e-05
2277.52	0.517029	0.00251526
2277.98	-0.697784	-0.0174561
2278.46	0.51825	1.77612e-05
2278.96	0.517456	0.000149963
2279.44	-0.000650024	0.00643158
2279.9	0.517914	1.64185e-05
2280.4	0.517029	7.58362e-05
2280.88	-0.000228882	0.00447205
2281.34	0.517792	1.69373e-05
2281.84	0.516815	5.30701e-05
2282.34	0.51593	0.0157013
2282.78	0.51828	9.49097e-06
2283.28	0.517792	3.37524e-05
2283.78	0.516602	0.0108063
2284.24	-0.698029	-0.0234833
2284.72	0.516937	3.16772e-05
2285.22	0.516998	0.00265656
2285.68	-0.699036	-0.0174622
2286.16	0.516815	2.78931e-05
2286.66	0.516998	0.000154053
2287.14	0.000802612	0.00640961
2287.6	0.516815	2.48718e-05
2288.1	0.516815	7.62634e-05
2288.58	-0.000106812	0.0044577
2289.04	0.516998	2.04163e-05
2289.54	0.517883	4.56238e-05
2290.04	0.516754	0.0157043
2290.48	0.516785	2.10266e-05
2290.98	0.518066	3.20435e-05
2291.48	0.516541	0.0108215
2291.94	-0.69873	-0.0234985
2292.42	0.516754	3.35693e-05
2292.92	0.51825	0.00276642
2293.38	-0.69812	-0.0174835
2293.86	0.516815	2.76489e-05
2294.36	0.516937	0.000153931
2294.84	0.000183105	0.00639679
2295.3	0.518188	1.54724e-05
2295.8	0.517181	7.45239e-05
2296.28	0.000411987	0.00444702
2296.74	0.517181	1.76392e-05
2297.24	0.517517	4.80957e-05
2297.74	0.516754	0.0157074
2298.18	0.51712	1.77612e-05
2298.68	0.518127	3.36304e-05
2299.18	0.51709	0.0108246
2299.64	-0.697266	-0.0235046
2300.12	0.518097	2.47192e-05
2300.62	0.516785	0.00288391
2301.08	-0.697601	-0.0174957
2301.56	0.516937	2.63977e-05
2302.06	0.518158	0.000150848
2302.54	0.000396729	0.00638306
2303	0.516815	2.31323e-05
2303.5	0.516876	7.57141e-05
2303.98	-0.000305176	0.00444061
2304.44	0.518097	1.30005e-05
2304.94	0.517761	4.77905e-05
2305.44	0.517426	0.0156952
2305.88	0.516815	2.06909e-05
2306.38	0.517609	3.48511e-05
2306.6	0.516815	1.828e-05