File: Edgar/20240531/20240531/electrodeposition_pulsed_potential_20240531_B/pulses_0_to_1000.txt
Time (s)	WE(1).Potential (V)	WE(1).Current (A)
181.812	-0.698639	-0.00304138
182.292	0.516815	4.69971e-06
182.792	0.517456	7.50732e-06
183.252	-0.699005	-0.00223938
183.732	0.516846	5.0354e-06
184.232	0.517548	6.2561e-06
184.712	1.52588e-05	0.000226532
185.172	0.516968	3.96729e-06
185.672	0.518158	1.25122e-06
186.152	-0.000402832	6.04248e-05
186.612	0.517761	-1.52588e-06
187.112	0.517151	9.24683e-06
187.612	0.517151	0.000105927
188.052	0.516724	7.14111e-06
188.552	0.516846	1.11389e-05
189.052	0.518097	2.89001e-05
189.512	-0.698456	-0.00344147
189.992	0.51712	1.01318e-05
190.492	0.517792	1.86157e-05
190.952	-0.699188	-0.00279449
191.432	0.517548	9.09424e-06
191.932	0.518097	1.31226e-05
192.412	-0.000363159	0.000419098
192.872	0.517029	1.14746e-05
193.372	0.518219	9.67407e-06
193.852	-0.000619507	8.29163e-05
194.312	0.517395	7.38525e-06
194.812	0.516663	1.85547e-05
195.312	0.518127	0.000104889
195.752	0.516785	1.20239e-05
196.252	0.516846	1.70898e-05
196.752	0.517273	4.64783e-05
197.212	-0.698395	-0.00472321
197.692	0.517426	1.14746e-05
198.192	0.517029	3.53088e-05
198.652	-0.698486	-0.00364441
199.132	0.517853	6.83594e-06
199.632	0.517059	2.4231e-05
200.112	0.000924683	0.00104095
200.572	0.517517	7.14111e-06
201.072	0.517578	1.56555e-05
201.552	0.000720215	7.22961e-05
202.012	0.517029	1.00403e-05
202.512	0.517578	1.00098e-05
203.012	0.516937	0.000121521
203.452	0.51709	5.76782e-06
203.952	0.518219	5.31006e-06
204.452	0.518097	3.69873e-05
204.912	-0.698303	-0.00599487
205.392	0.517731	5.98145e-06
205.892	0.517822	2.11487e-05
206.352	-0.698547	-0.00419952
206.832	0.518188	8.54492e-07
207.332	0.517151	1.75781e-05
207.812	6.10352e-05	0.00259735
208.272	0.516815	1.03149e-05
208.772	0.518158	7.2937e-06
209.252	0.000671387	6.35681e-05
209.712	0.516907	8.3313e-06
210.212	0.518188	2.92969e-06
210.712	0.516968	0.000118774
211.152	0.517914	-4.27246e-07
211.652	0.516968	1.12915e-05
212.152	0.516876	3.8208e-05
212.612	-0.698914	-0.00702087
213.092	0.518188	2.13623e-07
213.592	0.518127	1.55029e-05
214.052	-0.699646	-0.0045166
214.532	0.516937	7.08008e-06
215.032	0.516785	1.77917e-05
215.512	-0.000466919	0.00423279
215.972	0.516815	7.84302e-06
216.472	0.517334	9.79614e-06
216.952	-0.000448608	9.52148e-05
217.412	0.516876	7.17163e-06
217.912	0.516724	1.0498e-05
218.412	0.516785	0.000127594
218.852	0.518341	-3.84521e-06
219.352	0.517029	7.47681e-06
219.852	0.516754	3.57056e-05
220.312	-0.698547	-0.00792236
220.792	0.517395	4.15039e-06
221.292	0.5177	1.46179e-05
221.752	-0.698853	-0.00477875
222.232	0.517334	2.74658e-06
222.732	0.51767	8.27026e-06
223.212	-0.000161743	0.00546844
223.672	0.518005	-2.2583e-06
224.172	0.516907	1.07727e-05
224.652	0.000204468	0.000161865
225.112	0.517303	3.93677e-06
225.612	0.517609	3.75366e-06
226.112	0.518066	0.000135468
226.552	0.51825	-3.44849e-06
227.052	0.517181	3.54004e-06
227.552	0.517548	2.86865e-05
228.012	-0.698944	-0.00870972
228.492	0.518158	-1.5564e-06
228.992	0.517181	1.67847e-05
229.452	-0.698364	-0.00502472
229.932	0.517609	1.46484e-06
230.432	0.517822	8.60596e-06
230.912	0.000491333	0.00637115
231.372	0.518097	-2.22778e-06
231.872	0.517853	2.83813e-06
232.352	-0.000274658	0.000291382
232.812	0.517792	-1.25122e-06
233.312	0.516815	8.5144e-06
233.812	0.518127	0.000154541
234.252	0.517883	-7.01904e-07
234.752	0.517731	2.04468e-06
235.252	0.51709	3.14331e-05
235.712	-0.699402	-0.00939331
236.192	0.518097	-2.44141e-06
236.692	0.5177	1.19324e-05
237.152	-0.699005	-0.00526031
237.632	0.516785	6.56128e-06
238.132	0.517914	4.91333e-06
238.612	-0.00062561	0.00706146
239.072	0.516754	4.08936e-06
239.572	0.518188	-3.05176e-07
240.052	-0.000463867	0.000475037
240.512	0.517517	3.05176e-07
241.012	0.518219	-1.52588e-06
241.512	0.517578	0.000189026
241.952	0.518219	-4.48608e-06
242.452	0.5177	2.80762e-06
242.952	0.517822	2.8717e-05
243.412	-0.699036	-0.0100067
243.892	0.516724	5.7373e-06
244.392	0.517059	1.58386e-05
244.852	-0.698364	-0.00549652
245.332	0.518097	-2.74658e-06
245.832	0.518127	2.34985e-06
246.312	1.2207e-05	0.00757446
246.772	0.517426	8.8501e-07
247.272	0.516815	8.88062e-06
247.752	9.76562e-05	0.00069519
248.212	0.517609	-1.43433e-06
248.712	0.516846	6.65283e-06
249.212	0.518188	0.000220642
249.652	0.517975	-3.17383e-06
250.152	0.518127	-2.41089e-06
250.652	0.517883	2.89307e-05
251.112	-0.699554	-0.0105225
251.592	0.516876	4.82178e-06
252.092	0.517181	1.5625e-05
252.552	-0.698944	-0.00571228
253.032	0.517792	-2.80762e-06
253.532	0.518036	3.8147e-06
254.012	0.000369263	0.00796509
254.472	0.517395	-2.56348e-06
254.972	0.517242	5.43213e-06
255.452	0.000570679	0.00094635
255.912	0.517792	-4.57764e-07
256.412	0.5177	2.16675e-06
256.912	0.518127	0.000255341
257.352	0.51828	-4.57764e-06
257.852	0.517639	2.62451e-06
258.352	0.516876	3.87573e-05
258.812	-0.699341	-0.0109711
259.292	0.517303	1.49536e-06
259.792	0.517273	1.36719e-05
260.252	-0.699463	-0.00591675
260.732	0.518066	-2.50244e-06
261.232	0.517395	1.04675e-05
261.712	-0.000170898	0.00830994
262.172	0.518158	-4.36401e-06
262.672	0.516724	1.00098e-05
263.152	-0.000338745	0.00121307
263.612	0.518188	-5.12695e-06
264.112	0.517883	1.83105e-07
264.612	0.516968	0.00030603
265.052	0.518311	-3.78418e-06
265.552	0.517395	1.86157e-06
266.052	0.517181	3.84827e-05
266.512	-0.69809	-0.01138
266.992	0.518188	-4.05884e-06
267.492	0.518097	8.54492e-06
267.952	-0.69931	-0.00611084
268.432	0.518219	-3.90625e-06
268.932	0.518219	2.22778e-06
269.412	-8.23975e-05	0.00854492
269.872	0.517853	-4.39453e-06
270.372	0.51767	4.05884e-06
270.852	0.000189209	0.00146973
271.312	0.517609	-3.96729e-07
271.812	0.516998	7.01904e-06
272.312	0.517365	0.00034549
272.752	0.516937	3.90625e-06
273.252	0.517242	1.61743e-06
273.752	0.517792	3.50342e-05
274.212	-0.699219	-0.0117279
274.692	0.517456	-3.05176e-08
275.192	0.51712	1.88293e-05
275.652	-0.699158	-0.00628754
276.132	0.51767	-8.23975e-07
276.632	0.516998	1.22681e-05
277.112	-0.000820923	0.00875549
277.572	0.518127	-3.32642e-06
278.072	0.517578	4.15039e-06
278.552	0.000222778	0.00171661
279.012	0.517792	-2.47192e-06
279.512	0.517181	3.96729e-06
280.012	0.51828	0.000385834
280.452	0.517456	-1.31226e-06
280.952	0.51828	-4.02832e-06
281.452	0.51825	3.78418e-05
281.912	-0.699463	-0.0120331
282.392	0.517426	2.96021e-06
282.892	0.516754	1.92871e-05
283.352	-0.699554	-0.00644928
283.832	0.518341	-4.94385e-06
284.332	0.517517	7.17163e-06
284.812	0.00057373	0.00892639
285.272	0.517426	9.46045e-07
285.772	0.517365	4.02832e-06
286.252	0.000839233	0.00194183
286.712	0.518127	-4.97437e-06
287.212	0.517426	1.7395e-06
287.712	0.517578	0.00044397
288.152	0.518188	-4.08936e-06
288.652	0.516663	5.15747e-06
289.152	0.518097	3.94897e-05
289.612	-0.698151	-0.0123047
290.092	0.51825	-4.02832e-06
290.592	0.517395	1.45264e-05
291.052	-0.698883	-0.0066037
291.532	0.517212	2.34985e-06
292.032	0.516724	1.21155e-05
292.512	-0.000820923	0.00906982
292.972	0.517242	1.80054e-06
293.472	0.5177	1.95313e-06
293.952	7.32422e-05	0.0021637
294.412	0.517303	6.71387e-07
294.912	0.516846	8.3313e-06
295.412	0.517853	0.000501099
295.852	0.517975	-4.63867e-06
296.352	0.517548	2.01416e-06
296.852	0.51709	4.94995e-05
297.312	-0.697998	-0.012561
297.792	0.517853	-7.62939e-07
298.292	0.517181	1.75476e-05
298.752	-0.69873	-0.00674713
299.232	0.517029	4.69971e-06
299.732	0.517609	5.85937e-06
300.212	-0.000189209	0.00917664
300.672	0.518341	-5.70679e-06
301.172	0.518219	-7.93457e-07
301.652	0.000949097	0.00235443
302.112	0.517426	-4.57764e-07
302.612	0.51828	-2.7771e-06
303.112	0.517334	0.000559082
303.552	0.517273	1.09863e-06
304.052	0.51825	-3.02124e-06
304.552	0.518219	4.50745e-05
305.012	-0.698883	-0.0127838
305.492	0.517181	2.47192e-06
305.992	0.516876	1.9928e-05
306.452	-0.69928	-0.00687897
306.932	0.518066	-3.90625e-06
307.432	0.516937	1.26648e-05
307.912	0.000436401	0.0092804
308.372	0.518127	-4.91333e-06
308.872	0.518097	1.77002e-06
309.352	0.000637817	0.00254089
309.812	0.51825	-4.48608e-06
310.312	0.51825	-1.34277e-06
310.812	0.518066	0.000617981
311.252	0.51825	-5.5542e-06
311.752	0.51825	-3.08228e-06
312.252	0.518219	4.78516e-05
312.712	-0.698181	-0.0130096
313.192	0.518066	-2.86865e-06
313.692	0.517609	1.69678e-05
314.152	-0.698273	-0.00701416
314.632	0.517761	-2.96021e-06
315.132	0.517853	5.00488e-06
315.612	0.000466919	0.0093689
316.072	0.517365	1.40381e-06
316.572	0.518188	3.05176e-07
317.052	-0.000375366	0.00271301
317.512	0.518158	-4.73022e-06
318.012	0.516724	8.57544e-06
318.512	0.517303	0.00068512
318.952	0.518097	-4.11987e-06
319.452	0.518158	-8.23975e-07
319.952	0.516876	5.9021e-05
320.412	-0.698059	-0.0131989
320.892	0.518066	-2.19727e-06
321.392	0.517029	2.10876e-05
321.852	-0.698822	-0.00712616
322.332	0.517944	-2.13623e-06
322.832	0.517944	7.04956e-06
323.312	-0.000115967	0.00945435
323.772	0.518188	-3.78418e-06
324.272	0.518127	1.34277e-06
324.752	-0.000408936	0.00286713
325.212	0.51709	3.8147e-06
325.712	0.517426	2.96021e-06
326.212	0.517853	0.000755005
326.652	0.516724	5.21851e-06
327.152	0.516968	5.82886e-06
327.652	0.516846	6.1676e-05
328.112	-0.699036	-0.0133759
328.592	0.518036	-2.96021e-06
329.092	0.518127	1.45569e-05
329.552	-0.699554	-0.00723663
330.032	0.517151	3.17383e-06
330.532	0.51767	6.80542e-06
331.012	7.01904e-05	0.00949707
331.472	0.518097	-2.62451e-06
331.972	0.517517	3.2959e-06
332.452	0.000695801	0.00299866
332.912	0.518158	-3.08228e-06
333.412	0.51709	3.08228e-06
333.912	0.517944	0.000828552
334.352	0.518127	-5.0354e-06
334.852	0.517242	6.073e-06
335.352	0.517181	6.21643e-05
335.812	-0.698944	-0.013562
336.292	0.518219	-3.02124e-06
336.792	0.517395	1.94092e-05
337.252	-0.69928	-0.00734955
337.732	0.516785	6.80542e-06
338.232	0.516693	1.42517e-05
338.712	0.000512695	0.00956116
339.172	0.518219	-3.8147e-06
339.672	0.517273	7.17163e-06
340.152	0.000961304	0.00312927
340.612	0.517151	2.56348e-06
341.112	0.518188	-8.54492e-07
341.612	0.518311	0.000909729
342.052	0.517822	-4.11987e-06
342.552	0.517181	4.57764e-06
343.052	0.517792	6.08521e-05
343.512	-0.699158	-0.0137207
343.992	0.517548	1.86157e-06
344.492	0.517273	2.13928e-05
344.952	-0.698456	-0.00746307
345.432	0.518311	-3.63159e-06
345.932	0.518036	4.88281e-06
346.412	-0.000442505	0.00960388
346.872	0.517181	4.08936e-06
347.372	0.518158	7.93457e-07
347.852	-0.000314331	0.00325592
348.312	0.517059	3.05176e-06
348.812	0.517731	-3.05176e-08
349.312	0.517029	0.00101288
349.752	0.516937	3.75366e-06
350.252	0.516815	5.92041e-06
350.752	0.516968	6.87866e-05
351.212	-0.698395	-0.0138885
351.692	0.518127	-2.41089e-06
352.192	0.518158	1.71509e-05
352.652	-0.699432	-0.00756531
353.132	0.518066	-2.68555e-06
353.632	0.517975	5.7373e-06
354.112	-0.000796509	0.00965271
354.572	0.518005	-3.78418e-06
355.072	0.517914	2.96021e-06
355.552	-0.000253296	0.00336884
356.012	0.517059	3.8147e-06
356.512	0.518005	5.79834e-07
357.012	0.517242	0.00111725
357.452	0.517761	-3.84521e-06
357.952	0.516998	5.76782e-06
358.452	0.51712	6.90613e-05
358.912	-0.698273	-0.014032
359.392	0.518097	-3.479e-06
359.892	0.517456	2.31323e-05
360.352	-0.698822	-0.00767212
360.832	0.516724	5.98145e-06
361.332	0.517029	1.33362e-05
361.812	-0.000497437	0.00970154
362.272	0.516815	5.58472e-06
362.772	0.518066	2.31934e-06
363.252	0.000430298	0.00346588
363.712	0.516754	4.88281e-06
364.212	0.516754	8.78906e-06
364.712	0.517792	0.00122437
365.152	0.516968	3.84521e-06
365.652	0.51712	4.94385e-06
366.152	0.517609	6.65588e-05
366.612	-0.699127	-0.0141785
367.092	0.518158	-2.53296e-06
367.592	0.517761	2.1698e-05
368.052	-0.698364	-0.00777588
368.532	0.518188	-3.72314e-06
369.032	0.517761	8.94165e-06
369.512	0.000378418	0.0097229
369.972	0.51712	3.20435e-06
370.472	0.517242	6.43921e-06
370.952	-0.00017395	0.00356567
371.412	0.51825	-5.0354e-06
371.912	0.516815	8.54492e-06
372.412	0.51709	0.00137177
372.852	0.517731	7.01904e-07
373.352	0.517242	4.48608e-06
373.852	0.517975	6.73218e-05
374.312	-0.697906	-0.0143158
374.792	0.516724	7.04956e-06
375.292	0.517975	1.98669e-05
375.752	-0.698914	-0.00786438
376.232	0.517242	1.28174e-06
376.732	0.518036	7.96509e-06
377.212	0.000311279	0.00975037
377.672	0.517151	2.83813e-06
378.172	0.516937	1.19629e-05
378.652	0.00100403	0.00364227
379.112	0.518097	-2.92969e-06
379.612	0.517151	7.47681e-06
380.112	0.518127	0.00151764
380.552	0.518066	-3.66211e-06
381.052	0.518066	0
381.552	0.517609	6.97632e-05
382.012	-0.698151	-0.014447
382.492	0.51825	-1.61743e-06
382.992	0.518219	1.87683e-05
383.452	-0.698395	-0.00795288
383.932	0.518158	-2.2583e-06
384.432	0.518005	7.72095e-06
384.912	-0.000912476	0.00978699
385.372	0.517334	2.28882e-06
385.872	0.51712	9.0332e-06
386.352	0.000863647	0.00372681
386.812	0.518127	-1.2207e-06
387.312	0.518219	-1.09863e-06
387.812	0.517731	0.00170471
388.252	0.517548	7.62939e-07
388.752	0.51825	-1.67847e-06
389.252	0.518188	6.96106e-05
389.712	-0.697876	-0.0145844
390.192	0.516785	8.14819e-06
390.692	0.518097	1.92566e-05
391.152	-0.698578	-0.00803528
391.632	0.518036	-2.13623e-06
392.132	0.517059	1.31531e-05
392.612	-0.000289917	0.00982361
393.072	0.518188	-3.50952e-06
393.572	0.518066	4.15039e-06
394.052	0.000857544	0.00380798
394.512	0.517731	-1.28174e-06
395.012	0.517151	5.82886e-06
395.512	0.51828	0.00191498
395.952	0.517853	-2.22778e-06
396.452	0.516907	7.47681e-06
396.952	0.51767	7.39441e-05
397.412	-0.699127	-0.0147034
397.892	0.517914	8.23975e-07
398.392	0.517944	2.12402e-05
398.852	-0.698456	-0.00812988
399.332	0.518127	-2.80762e-06
399.832	0.516785	1.66931e-05
400.312	0.000216675	0.00982971
400.772	0.517059	4.48608e-06
401.272	0.517426	7.90405e-06
401.752	0.000509644	0.0038858
402.212	0.516968	4.73022e-06
402.712	0.516968	7.44629e-06
403.212	0.517883	0.00218109
403.652	0.517242	2.74658e-06
404.152	0.518066	-2.04468e-06
404.652	0.516876	8.0719e-05
405.112	-0.698181	-0.0148315
405.592	0.517059	5.24902e-06
406.092	0.517822	2.24609e-05
406.552	-0.698547	-0.00821838
407.032	0.517517	1.2207e-06
407.532	0.517273	1.22681e-05
408.012	-0.00017395	0.00985718
408.472	0.517792	-6.40869e-07
408.972	0.516907	1.12915e-05
409.452	0.000332642	0.00395569
409.912	0.517426	1.34277e-06
410.412	0.517395	6.50024e-06
410.912	0.518066	0.00250305
411.352	0.518188	-3.08228e-06
411.852	0.516876	7.35474e-06
412.352	0.517639	7.77283e-05
412.812	-0.698059	-0.0149536
413.292	0.517944	-6.10352e-07
413.792	0.518036	2.09045e-05
414.252	-0.699463	-0.00829468
414.732	0.518005	4.27246e-07
415.232	0.51712	1.47095e-05
415.712	-0.000549316	0.0098877
416.172	0.51767	-1.52588e-07
416.672	0.516907	1.15356e-05
417.152	-0.000338745	0.00403076
417.612	0.518127	-4.21143e-06
418.112	0.516937	6.5918e-06
418.612	0.517578	0.00293243
419.052	0.517517	0
419.552	0.516846	7.62939e-06
420.052	0.518127	7.82471e-05
420.512	-0.699249	-0.0150696
420.992	0.517029	5.21851e-06
421.492	0.517761	2.58484e-05
421.952	-0.699554	-0.00837708
422.432	0.518036	-1.46484e-06
422.932	0.517548	1.24207e-05
423.412	-0.000656128	0.00989685
423.872	0.516907	4.79126e-06
424.372	0.516968	1.05591e-05
424.852	-0.000384521	0.00409515
425.312	0.518066	-2.83813e-06
425.812	0.517822	3.38745e-06
426.312	0.517944	0.00346252
426.752	0.517517	1.89209e-06
427.252	0.5177	2.86865e-06
427.752	0.518127	8.00476e-05
428.212	-0.699219	-0.0151794
428.692	0.518066	3.66211e-07
429.192	0.516876	3.02734e-05
429.652	-0.698242	-0.00846558
430.132	0.517731	-7.62939e-07
430.632	0.518005	9.765625E-06
431.112	0.000140381	0.00990906
431.572	0.516998	3.66211e-06
432.072	0.516998	1.01929e-05
432.552	-0.000375366	0.00415955
433.012	0.517273	1.77002e-06
433.512	0.516968	9.79614e-06
434.012	0.518372	0.00412598
434.452	0.517242	2.83813e-06
434.952	0.518097	-9.46045e-07
435.452	0.517853	8.29468e-05
435.912	-0.698669	-0.0152954
436.392	0.516876	7.38525e-06
436.892	0.517059	2.948e-05
437.352	-0.699036	-0.00854797
437.832	0.517303	3.08228e-06
438.332	0.518066	8.66699e-06
438.812	0.00038147	0.00993042
439.272	0.518219	-2.74658e-06
439.772	0.518005	4.88281e-06
440.252	0.000753784	0.00421051
440.712	0.517487	-6.10352e-07
441.212	0.516876	9.64355e-06
441.712	0.51712	0.00486664
442.152	0.517883	-2.50244e-06
442.652	0.518219	-3.66211e-07
443.152	0.518127	8.49304e-05
443.612	-0.698181	-0.0154053
444.092	0.517303	1.52588e-06
444.592	0.516937	3.14331e-05
445.052	-0.69928	-0.00863647
445.532	0.517792	1.46484e-06
446.032	0.517914	9.70459e-06
446.512	0.000354004	0.00994873
446.972	0.517914	-1.2207e-07
447.472	0.518066	3.63159e-06
447.952	0.000454712	0.00426849
448.412	0.517639	-1.06812e-06
448.912	0.518127	2.10571e-06
449.412	0.516937	0.00556152
449.852	0.516907	5.31006e-06
450.352	0.517944	2.56348e-06
450.852	0.517761	8.92944e-05
451.312	-0.698914	-0.0155151
451.792	0.518097	-6.40869e-07
452.292	0.5177	2.64587e-05
452.752	-0.698639	-0.00871582
453.232	0.517151	5.70679e-06
453.732	0.517975	1.18408e-05
454.212	0.000335693	0.00996094
454.672	0.517334	-1.83105e-07
455.172	0.517609	7.53784e-06
455.652	0.000805664	0.0043219
456.112	0.51712	3.66211e-06
456.612	0.516937	8.94165e-06
457.112	0.517487	0.00610565
457.552	0.51712	2.28882e-06
458.052	0.516998	7.93457e-06
458.552	0.51712	9.4635e-05
459.012	-0.698029	-0.0156311
459.492	0.516937	7.23267e-06
459.992	0.516998	3.3783e-05
460.452	-0.699097	-0.00878906
460.932	0.517456	3.14331e-06
461.432	0.518036	1.14136e-05
461.912	0.000372314	0.00996704
462.372	0.516907	6.04248e-06
462.872	0.516846	1.34888e-05
463.352	0.000820923	0.00437378
463.812	0.516876	3.72314e-06
464.312	0.517731	3.17383e-06
464.812	0.517548	0.00652161
465.252	0.51828	-3.38745e-06
465.752	0.517822	1.77002e-06
466.252	0.518036	9.10645e-05
466.712	-0.698456	-0.0157288
467.192	0.517303	3.479e-06
467.692	0.517944	2.6886e-05
468.152	-0.699341	-0.00887146
468.632	0.516937	7.41577e-06
469.132	0.516907	2.01721e-05
469.612	0.000320435	0.0099823
470.072	0.516937	6.01196e-06
470.572	0.517639	1.03455e-05
471.052	5.79834e-05	0.00443085
471.512	0.518158	-2.44141e-06
472.012	0.516846	1.15967e-05
472.512	0.518158	0.00687164
472.952	0.516785	5.37109e-06
473.452	0.516876	8.05664e-06
473.952	0.516724	0.000102386
474.412	-0.697754	-0.0158386
474.892	0.517242	4.36401e-06
475.392	0.517456	3.12195e-05
475.852	-0.699585	-0.0089447
476.332	0.517426	3.57056e-06
476.832	0.518188	1.10474e-05
477.312	0.00027771	0.0099884
477.772	0.517639	7.93457e-07
478.272	0.5177	7.04956e-06
478.752	0.000234985	0.00447693
479.212	0.517975	6.71387e-07
479.712	0.516876	1.07422e-05
480.212	0.5177	0.00716003
480.652	0.516785	5.37109e-06
481.152	0.517639	6.2561e-06
481.652	0.517853	9.7229e-05
482.112	-0.697693	-0.0159363
482.592	0.517548	2.92969e-06
483.092	0.517181	3.49121e-05
483.552	-0.698639	-0.009021
484.032	0.518097	-9.76562e-07
484.532	0.517639	1.44348e-05
485.012	0.000360107	0.00999146
485.472	0.516937	4.85229e-06
485.972	0.516754	1.52893e-05
486.452	0.00072937	0.00451752
486.912	0.518005	-1.83105e-06
487.412	0.517426	6.37817e-06
487.912	0.517456	0.00743134
488.352	0.518097	-1.46484e-06
488.852	0.517456	5.09644e-06
489.352	0.51825	9.79309e-05
489.812	-0.698669	-0.0160339
490.292	0.517761	2.10571e-06
490.792	0.516815	3.74756e-05
491.252	-0.699097	-0.00909119
491.732	0.51825	-2.74658e-07
492.232	0.517151	2.05078e-05
492.712	-0.000488281	0.00999756
493.172	0.517242	3.23486e-06
493.672	0.517365	1.18408e-05
494.152	-0.000479126	0.00456696
494.612	0.517517	7.93457e-07
495.112	0.517975	5.85937e-06
495.612	0.517151	0.00766296
496.052	0.518188	-2.04468e-06
496.552	0.517151	6.83594e-06
497.052	0.518158	0.000102173
497.512	-0.699005	-0.0161255
497.992	0.51709	6.83594e-06
498.492	0.516846	3.68042e-05
498.952	-0.699158	-0.00916748
499.432	0.518219	-7.32422e-07
499.932	0.518158	1.22375e-05
500.412	-0.00083313	0.0100159
500.872	0.516876	4.94385e-06
501.372	0.518097	6.89697e-06
501.852	-0.000424194	0.00460785
502.312	0.517822	-3.54004e-06
502.812	0.518158	4.5166e-06
503.312	0.516602	0.00788879
503.752	0.517029	5.34058e-06
504.253	0.517975	3.57056e-06
504.753	0.51712	0.000109863
505.213	-0.697998	-0.0162109
505.693	0.51709	9.58252e-06
506.193	0.516876	3.66821e-05
506.653	-0.699554	-0.00924377
507.133	0.517426	3.60107e-06
507.633	0.517517	1.94092e-05
508.113	-0.000909424	0.0100098
508.573	0.516937	6.5918e-06
509.073	0.517578	1.19019e-05
509.553	-0.000219727	0.0046463
510.013	0.517883	-5.49316e-07
510.513	0.516846	1.28784e-05
511.013	0.517853	0.00808716
511.453	0.517273	1.7395e-06
511.953	0.516846	9.42993e-06
512.453	0.517212	0.000112762
512.913	-0.699097	-0.0163055
513.393	0.518219	-4.57764e-07
513.893	0.516785	3.79028e-05
514.353	-0.698242	-0.00932922
514.833	0.516754	7.84302e-06
515.333	0.518036	1.51367e-05
515.813	-0.000732422	0.0100159
516.273	0.518341	-2.19727e-06
516.773	0.516785	1.65405e-05
517.253	-0.000128174	0.00467499
517.713	0.516846	7.01904e-06
518.213	0.517151	1.08643e-05
518.713	0.517334	0.00826111
519.153	0.516998	5.76782e-06
519.653	0.517853	1.12915e-06
520.153	0.516876	0.000118408
520.613	-0.699127	-0.0163971
521.093	0.516998	7.35474e-06
521.593	0.516876	3.61938e-05
522.053	-0.698334	-0.00937805
522.533	0.517212	5.52368e-06
523.033	0.517487	1.86157e-05
523.513	-0.00017395	0.0100067
523.973	0.516876	6.46973e-06
524.473	0.516937	1.62048e-05
524.953	-0.00038147	0.00471252
525.413	0.51767	8.54492e-07
525.913	0.516907	1.15967e-05
526.413	0.516754	0.00844421
526.853	0.517792	-2.96021e-06
527.353	0.516815	1.02844e-05
527.853	0.518036	0.000114319
528.313	-0.699188	-0.0164795
528.793	0.518311	-1.15967e-06
529.293	0.518127	3.12805e-05
529.753	-0.69931	-0.0094574
530.233	0.517303	6.5918e-06
530.733	0.517609	1.89819e-05
531.213	-0.000418091	0.0100098
531.673	0.516907	5.76782e-06
532.173	0.518372	7.90405e-06
532.653	0.000906372	0.00473816
533.113	0.518219	-2.13623e-06
533.613	0.518036	6.2561e-06
534.113	0.517761	0.00858459
534.553	0.516998	5.82886e-06
535.053	0.516846	1.06812e-05
535.553	0.51825	0.000115326
536.013	-0.697815	-0.0165741
536.493	0.517853	1.67847e-06
536.993	0.517181	3.76892e-05
537.453	-0.699554	-0.00951538
537.933	0.516937	6.56128e-06
538.433	0.518188	1.49841e-05
538.913	0.000442505	0.010022
539.373	0.517456	-4.57764e-07
539.873	0.517212	1.51978e-05
540.353	0.000875854	0.00477417
540.813	0.518219	-1.67847e-06
541.313	0.517029	1.25732e-05
541.813	0.517517	0.00874634
542.253	0.517212	2.71606e-06
542.753	0.517212	1.01929e-05
543.253	0.516968	0.000127136
543.713	-0.699127	-0.0166595
544.193	0.517822	2.41089e-06
544.693	0.517365	3.62854e-05
545.153	-0.698273	-0.00960083
545.633	0.517944	6.40869e-07
546.133	0.517914	1.47095e-05
546.613	-0.000558472	0.0100159
547.073	0.516876	7.23267e-06
547.573	0.516785	1.76086e-05
548.053	0.000454712	0.00480774
548.513	0.516937	7.75146e-06
549.013	0.518005	6.13403e-06
549.513	0.517883	0.00890503
549.953	0.518341	-3.90625e-06
550.453	0.518036	2.7771e-06
550.953	0.518219	0.000122009
551.413	-0.699097	-0.0167419
551.893	0.517212	7.08008e-06
552.393	0.516846	4.1687e-05
552.853	-0.699585	-0.00965271
553.333	0.517242	3.87573e-06
553.833	0.516937	2.3407e-05
554.313	-0.000402832	0.0100342
554.773	0.517212	5.24902e-06
555.273	0.518158	7.93457e-06
555.753	0.000338745	0.00484711
556.213	0.51709	4.97437e-06
556.713	0.51709	1.10168e-05
557.213	0.517059	0.00905457
557.653	0.517334	2.16675e-06
558.153	0.517303	8.54492e-06
558.653	0.517487	0.000133148
559.113	-0.699188	-0.0168304
559.593	0.516815	1.0498e-05
560.093	0.516815	4.30298e-05
560.553	-0.698486	-0.00972595
561.033	0.51825	-8.54492e-07
561.533	0.518219	1.48621e-05
562.013	-0.000927734	0.010025
562.473	0.516937	8.63647e-06
562.973	0.516785	1.80359e-05
563.453	-9.15527e-06	0.00487823
563.913	0.51828	-1.95313e-06
564.413	0.517303	1.00403e-05
564.913	0.51767	0.00918274
565.353	0.517334	1.34277e-06
565.853	0.518005	5.27954e-06
566.353	0.51825	0.000128265
566.813	-0.697937	-0.016925
567.293	0.518219	1.49536e-06
567.793	0.517548	4.02527e-05
568.253	-0.698151	-0.00979309
568.733	0.518036	1.89209e-06
569.233	0.516663	2.56348e-05
569.713	-0.000350952	0.0100311
570.173	0.517029	6.46973e-06
570.673	0.517792	1.17493e-05
571.153	0.000152588	0.00490387
571.613	0.517731	7.01904e-07
572.113	0.517792	8.05664e-06
572.613	0.516968	0.00932617
573.053	0.51828	-2.31934e-06
573.553	0.517456	6.5918e-06
574.053	0.517761	0.000138031
574.513	-0.698486	-0.0170044
574.993	0.517487	7.26318e-06
575.493	0.51712	4.29688e-05
575.953	-0.69812	-0.00986023
576.433	0.518127	-7.62939e-07
576.933	0.517883	1.85852e-05
577.413	-4.27246e-05	0.010022
577.873	0.517639	2.22778e-06
578.373	0.518219	9.82666e-06
578.853	0.000241089	0.0049295
579.313	0.518127	-1.64795e-06
579.813	0.517456	8.88062e-06
580.313	0.517731	0.00944519
580.753	0.516907	6.7749e-06
581.253	0.517181	9.09424e-06
581.753	0.517914	0.000140869
582.213	-0.698761	-0.0170746
582.693	0.517365	5.85937e-06
583.193	0.516968	4.47998e-05
583.653	-0.698669	-0.00993652
584.133	0.518005	1.25122e-06
584.633	0.516937	2.62756e-05
585.113	0.000292969	0.0100128
585.573	0.517761	2.44141e-06
586.073	0.516846	1.80664e-05
586.553	-7.32422e-05	0.00496063
587.013	0.518158	-2.13623e-06
587.513	0.516876	1.36108e-05
588.013	0.516846	0.00957336
588.453	0.518036	-1.2207e-06
588.953	0.516998	1.12915e-05
589.453	0.517029	0.000148804
589.913	-0.698425	-0.0171631
590.393	0.51712	7.87354e-06
590.893	0.5177	4.09851e-05
591.353	-0.698883	-0.0100037
591.833	0.517303	5.46265e-06
592.333	0.516754	2.71912e-05
592.813	0.000393677	0.0100067
593.273	0.5177	1.52588e-06
593.773	0.517151	1.6449e-05
594.253	-0.000469971	0.00498871
594.713	0.51767	2.2583e-06
595.213	0.516937	1.28784e-05
595.713	0.517822	0.00968323
596.153	0.518066	1.52588e-06
596.653	0.51709	8.36182e-06
597.153	0.516876	0.000153442
597.613	-0.698914	-0.0172302
598.093	0.51828	2.01416e-06
598.593	0.51712	4.65088e-05
599.053	-0.698456	-0.0100494
599.533	0.518158	3.96729e-07
600.033	0.516785	2.78015e-05
600.513	-6.40869e-05	0.0100098
600.973	0.517548	4.3335e-06
601.473	0.517517	1.171875E-05
601.953	-2.44141e-05	0.00501526
602.413	0.518097	-1.64795e-06
602.913	0.516876	1.4801e-05
603.413	0.517853	0.0098114
603.853	0.517181	5.88989e-06
604.353	0.517792	6.28662e-06
604.853	0.516785	0.000157471
605.313	-0.698578	-0.0173157
605.793	0.517059	8.39233e-06
606.293	0.517029	4.73328e-05
606.753	-0.69812	-0.0101288
607.233	0.518188	3.35693e-07
607.733	0.51825	1.89209e-05
608.213	-0.000582886	0.0100098
608.673	0.516815	9.70459e-06
609.173	0.516937	1.92566e-05
609.653	-0.000357056	0.00503967
610.113	0.517456	4.05884e-06
610.613	0.518158	5.76782e-06
611.113	0.517242	0.00993958
611.553	0.517944	-4.27246e-07
612.053	0.518005	7.59888e-06
612.553	0.517578	0.000154358
613.013	-0.699097	-0.017392
613.493	0.518188	1.80054e-06
613.993	0.517181	4.62646e-05
614.453	-0.699493	-0.0101898
614.933	0.516846	9.82666e-06
615.433	0.516846	2.99683e-05
615.913	-0.00045166	0.00999756
616.373	0.516785	8.57544e-06
616.873	0.517212	1.75171e-05
617.353	-0.000436401	0.00506165
617.813	0.517761	4.27246e-07
618.313	0.518188	7.78198e-06
618.813	0.517853	0.0100342
619.253	0.517944	2.34985e-06
619.753	0.516815	1.28479e-05
620.253	0.517365	0.000159393
620.713	-0.697723	-0.0174713
621.193	0.516815	9.765625E-06
621.693	0.517059	4.75159e-05
622.153	-0.699127	-0.0102356
622.633	0.516937	6.95801e-06
623.133	0.51709	2.70386e-05
623.613	3.66211e-05	0.0099884
624.073	0.518097	-6.10352e-08
624.573	0.517242	1.69067e-05
625.053	0.000509644	0.00508179
625.513	0.517792	2.44141e-06
626.013	0.517303	1.22375e-05
626.513	0.516571	0.010144
626.953	0.517029	7.2937e-06
627.453	0.517212	1.09863e-05
627.953	0.516968	0.000166473
628.413	-0.698059	-0.0175415
628.893	0.517792	4.3335e-06
629.393	0.516907	5.05066e-05
629.853	-0.699341	-0.0103058
630.333	0.517334	5.98145e-06
630.833	0.516968	2.88696e-05
631.313	-0.000341797	0.00997009
631.773	0.518036	-1.12915e-06
632.273	0.517487	1.78223e-05
632.753	0.000665283	0.00509735
633.213	0.517822	4.27246e-07
633.713	0.51709	1.24207e-05
634.213	0.516937	0.0102539
634.653	0.51712	5.5542e-06
635.153	0.517914	7.78198e-06
635.653	0.516876	0.000171204
636.113	-0.6987	-0.0176056
636.593	0.518158	1.2207e-06
637.093	0.51709	4.84314e-05
637.553	-0.698395	-0.0103668
638.033	0.516968	8.42285e-06
638.533	0.518127	2.07214e-05
639.013	-0.000265503	0.00996094
639.473	0.517548	3.60107e-06
639.973	0.518127	1.30005e-05
640.453	0.000817871	0.00511597
640.913	0.516876	6.37817e-06
641.413	0.516815	1.64185e-05
641.913	0.516693	0.0103455
642.353	0.517548	3.84521e-06
642.853	0.517578	8.57544e-06
643.353	0.518219	0.000166931
643.813	-0.697662	-0.0176849
644.293	0.518097	4.05884e-06
644.793	0.517914	4.40063e-05
645.253	-0.698151	-0.010434
645.733	0.516876	9.00269e-06
646.233	0.518158	2.12402e-05
646.713	-0.000854492	0.00996704
647.173	0.517914	1.2207e-06
647.673	0.517487	1.80969e-05
648.153	-0.000180054	0.00514618
648.613	0.517395	4.57764e-06
649.113	0.51825	7.38525e-06
649.613	0.51651	0.0104523
650.053	0.517731	3.35693e-07
650.553	0.517303	1.12e-05
651.053	0.518188	0.0001698
651.513	-0.699066	-0.017746
651.993	0.51712	9.8877e-06
652.493	0.518097	4.3457e-05
652.953	-0.698242	-0.0104889
653.433	0.516754	9.52148e-06
653.933	0.517181	2.77405e-05
654.413	8.54492e-05	0.00994568
654.873	0.516876	8.39233e-06
655.373	0.517212	1.72729e-05
655.853	0.000119019	0.00515656
656.313	0.516785	8.05664e-06
656.813	0.516815	1.82495e-05
657.313	0.516449	0.0105408
657.753	0.517181	5.15747e-06
658.253	0.518219	4.60815e-06
658.753	0.517731	0.000178955
659.213	-0.699036	-0.0178192
659.693	0.517273	9.765625E-06
660.193	0.518341	4.40979e-05
660.653	-0.699432	-0.0105408
661.133	0.517212	7.8125e-06
661.633	0.5177	2.48718e-05
662.113	-0.000900269	0.00994873
662.573	0.516846	9.765625E-06
663.073	0.518005	1.27869e-05
663.553	0.000460815	0.00517731
664.013	0.517517	5.64575e-06
664.513	0.517578	1.11694e-05
665.013	0.516846	0.0106415
665.453	0.517578	2.38037e-06
665.953	0.516754	1.41907e-05
666.453	0.518219	0.000179321
666.913	-0.6987	-0.0179047
667.393	0.518066	3.50952e-06
667.893	0.517059	5.44739e-05
668.353	-0.699127	-0.0105957
668.833	0.516846	1.0376e-05
669.333	0.516998	2.8656e-05
669.813	0.000131226	0.00994263
670.273	0.517639	3.41797e-06
670.773	0.517456	1.69373e-05
671.253	0.000808716	0.00518616
671.713	0.516815	8.45337e-06
672.213	0.517334	1.28479e-05
672.713	0.517761	0.0107117
673.153	0.517029	7.41577e-06
673.653	0.517792	8.02612e-06
674.153	0.518066	0.000186676
674.613	-0.698242	-0.0179504
675.093	0.518005	3.57056e-06
675.593	0.51712	5.49927e-05
676.053	-0.69809	-0.0106659
676.533	0.518066	-3.05176e-08
677.033	0.518188	2.31323e-05
677.513	-0.00015564	0.00991516
677.973	0.517151	7.01904e-06
678.473	0.518036	1.27869e-05
678.953	0.000967407	0.00520447
679.413	0.517426	4.91333e-06
679.913	0.517914	9.27734e-06
680.413	0.51651	0.0108154
680.853	0.517975	7.93457e-07
681.353	0.516724	1.40991e-05
681.853	0.517578	0.000192047
682.313	-0.699066	-0.0180298
682.793	0.518036	3.69263e-06
683.293	0.51767	5.13306e-05
683.753	-0.698364	-0.0107147
684.233	0.517548	4.3335e-06
684.733	0.517151	2.84424e-05
685.213	-0.000689697	0.00991516
685.673	0.517609	6.46973e-06
686.173	0.518158	1.32751e-05
686.653	-0.000491333	0.00522888
687.113	0.517792	2.01416e-06
687.613	0.517181	1.3031e-05
688.113	0.517059	0.0109039
688.553	0.518158	-1.46484e-06
689.053	0.517273	1.06506e-05
689.553	0.516846	0.000205505
690.013	-0.69812	-0.0180878
690.493	0.517639	6.34766e-06
690.993	0.51828	5.01404e-05
691.453	-0.698151	-0.0107788
691.933	0.517487	5.34058e-06
692.433	0.516876	3.19214e-05
692.913	-0.000445557	0.00991821
693.373	0.517151	7.99561e-06
693.873	0.517853	1.51978e-05
694.353	0.000231934	0.00523804
694.813	0.517151	7.93457e-06
695.313	0.518005	1.00403e-05
695.813	0.516479	0.0109863
696.253	0.517517	2.96021e-06
696.753	0.517853	6.22559e-06
697.253	0.517883	0.00020343
697.713	-0.699066	-0.0181549
698.193	0.516937	1.15967e-05
698.693	0.518158	5.15747e-05
699.153	-0.699432	-0.0108246
699.633	0.516815	1.06506e-05
700.133	0.517578	3.02734e-05
700.613	-0.000305176	0.00990295
701.073	0.517975	2.22778e-06
701.573	0.517273	1.9928e-05
702.053	0.000637817	0.00524658
702.513	0.518097	2.16675e-06
703.013	0.518158	8.39233e-06
703.513	0.516296	0.0110504
703.953	0.516815	8.69751e-06
704.453	0.51767	9.67407e-06
704.953	0.518158	0.000205994
705.413	-0.698181	-0.0182098
705.893	0.516815	1.23291e-05
706.393	0.517975	5.31006e-05
706.853	-0.699371	-0.0108887
707.333	0.51712	5.92041e-06
707.833	0.517822	2.92664e-05
708.313	0.000222778	0.00987549
708.773	0.517212	7.72095e-06
709.273	0.51709	1.93787e-05
709.753	-0.000552368	0.00527008
710.213	0.518127	1.25122e-06
710.713	0.518127	8.23975e-06
711.213	0.51709	0.0111298
711.653	0.517883	1.40381e-06
712.153	0.517181	1.19019e-05
712.653	0.517242	0.000216675
713.113	-0.698517	-0.0182831
713.593	0.517151	1.04065e-05
714.093	0.517426	5.86243e-05
714.553	-0.698151	-0.0109406
715.033	0.517853	4.05884e-06
715.533	0.51828	2.54517e-05
716.013	0.000308228	0.00986938
716.473	0.517883	4.27246e-06
716.973	0.518158	1.50146e-05
717.453	0.000317383	0.00527588
717.913	0.517822	3.14331e-06
718.413	0.51767	1.38245e-05
718.913	0.516449	0.0112213
719.353	0.516907	9.09424e-06
719.853	0.516876	1.40991e-05
720.353	0.517395	0.000221985
720.813	-0.697601	-0.0183563
721.293	0.517151	1.02539e-05
721.793	0.516876	6.28357e-05
722.253	-0.698883	-0.0109894
722.733	0.518219	2.01416e-06
723.233	0.517731	2.91443e-05
723.713	-0.000891113	0.00986328
724.173	0.516998	7.93457e-06
724.673	0.517487	1.90125e-05
725.153	0.000387573	0.0052887
725.613	0.516815	1.04065e-05
726.113	0.516907	1.85242e-05
726.613	0.516998	0.0112976
727.053	0.516998	7.96509e-06
727.553	0.518158	6.04248e-06
728.053	0.517731	0.000223755
728.513	-0.698944	-0.0184143
728.993	0.518188	3.44849e-06
729.493	0.518036	5.47791e-05
729.953	-0.699493	-0.0110443
730.433	0.516907	9.8877e-06
730.933	0.51828	2.58484e-05
731.413	-0.000891113	0.00985413
731.873	0.516937	9.12476e-06
732.373	0.5177	1.94092e-05
732.853	-2.74658e-05	0.00530945
733.313	0.516907	8.91113e-06
733.813	0.516907	1.92871e-05
734.313	0.516785	0.011377
734.753	0.516663	9.552e-06
735.253	0.516815	1.5686e-05
735.753	0.51709	0.000233612
736.213	-0.698212	-0.0184784
736.693	0.516815	1.36719e-05
737.193	0.517792	5.87158e-05
737.653	-0.69873	-0.0111084
738.133	0.516907	9.42993e-06
738.633	0.516846	3.57666e-05
739.113	-2.74658e-05	0.00983276
739.573	0.517151	8.36182e-06
740.073	0.517303	2.24304e-05
740.553	0.000259399	0.00532227
741.013	0.516937	8.14819e-06
741.513	0.5177	1.4801e-05
742.013	0.516602	0.011441
742.453	0.517273	5.15747e-06
742.953	0.51767	1.04065e-05
743.453	0.518188	0.000232147
743.913	-0.698547	-0.0185272
744.393	0.517548	7.38525e-06
744.893	0.51712	6.28357e-05
745.353	-0.699188	-0.0111511
745.833	0.518097	2.13623e-06
746.333	0.5177	3.00293e-05
746.813	-0.000888062	0.00982361
747.273	0.518219	-1.52588e-07
747.773	0.51767	1.87378e-05
748.253	0.000137329	0.00532776
748.713	0.516846	8.08716e-06
749.213	0.518311	1.0437e-05
749.713	0.51767	0.0115082
750.153	0.517792	2.0752e-06
750.653	0.516785	1.62659e-05
751.153	0.516846	0.000246307
751.613	-0.698608	-0.0185883
752.093	0.51712	1.14441e-05
752.593	0.517822	5.80444e-05
753.053	-0.699371	-0.0112091
753.533	0.518188	2.13623e-06
754.033	0.516815	3.7323e-05
754.513	-0.000161743	0.0098175
754.973	0.516785	1.0437e-05
755.473	0.517822	1.93481e-05
755.953	-0.000512695	0.0053476
756.413	0.51767	5.88989e-06
756.913	0.516815	1.91956e-05
757.413	0.517548	0.0115906
757.853	0.517914	2.86865e-06
758.353	0.516754	1.94397e-05
758.853	0.516876	0.000251373
759.313	-0.698456	-0.0186615
759.793	0.516815	1.52588e-05
760.293	0.516785	6.63757e-05
760.753	-0.699463	-0.0112579
761.233	0.517609	7.47681e-06
761.733	0.516754	3.78723e-05
762.213	-0.000125122	0.0098114
762.673	0.516998	9.30786e-06
763.173	0.517975	1.87988e-05
763.653	-0.000302124	0.00535675
764.113	0.516907	8.17871e-06
764.613	0.517944	1.15662e-05
765.113	0.516418	0.0116577
765.553	0.517853	7.32422e-07
766.053	0.51712	1.297e-05
766.553	0.517639	0.000253296
767.013	-0.699005	-0.0187134
767.493	0.516846	1.21155e-05
767.993	0.517761	6.21948e-05
768.453	-0.698761	-0.011322
768.933	0.517548	7.44629e-06
769.433	0.517303	3.40271e-05
769.913	0.000537109	0.00979004
770.373	0.516754	1.10168e-05
770.873	0.51825	1.68762e-05
771.353	0.000143433	0.00536591
771.813	0.517426	3.8147e-06
772.313	0.516846	1.90735e-05
772.813	0.516449	0.011731
773.253	0.517914	2.01416e-06
773.753	0.518127	8.54492e-06
774.253	0.517853	0.000256958
774.713	-0.698212	-0.0187744
775.193	0.518005	6.2561e-06
775.693	0.517883	6.1615e-05
776.153	-0.699249	-0.0113739
776.633	0.517609	9.52148e-06
777.133	0.518097	3.0365e-05
777.613	-0.000482178	0.00976868
778.073	0.517822	3.66211e-06
778.573	0.518158	1.74866e-05
779.053	4.57764e-05	0.00537811
779.513	0.518036	1.0376e-06
780.013	0.516754	1.9928e-05
780.513	0.516327	0.0118011
780.953	0.518036	2.74658e-07
781.453	0.517334	1.13525e-05
781.953	0.51828	0.000261414
782.413	-0.697968	-0.0188324
782.893	0.516785	1.43738e-05
783.393	0.517792	6.45447e-05
783.853	-0.699341	-0.0114166
784.333	0.517548	8.66699e-06
784.833	0.51709	3.76892e-05
785.313	-0.000616455	0.009765625
785.773	0.517883	3.90625e-06
786.273	0.517792	2.18201e-05
786.753	0.000326538	0.00538055
787.213	0.517609	3.2959e-06
787.713	0.517853	1.41907e-05
788.213	0.517731	0.0118561
788.653	0.517181	6.83594e-06
789.153	0.516754	1.46484e-05
789.653	0.517609	0.000271759
790.113	-0.699066	-0.0188904
790.593	0.517975	6.10352e-06
791.093	0.516754	7.07092e-05
791.553	-0.699036	-0.0114655
792.033	0.517517	6.22559e-06
792.533	0.516815	3.93677e-05
793.013	0.000463867	0.00974426
793.473	0.516937	1.10474e-05
793.973	0.517059	2.37427e-05
794.453	-0.000497437	0.005401
794.913	0.517181	8.91113e-06
795.413	0.517639	1.43127e-05
795.913	0.517548	0.0119202
796.353	0.517395	4.45557e-06
796.853	0.516785	1.77002e-05
797.353	0.51825	0.000274384
797.813	-0.699066	-0.0189423
798.293	0.517487	1.2085e-05
798.793	0.517944	6.44836e-05
799.253	-0.698151	-0.0115295
799.733	0.517242	9.82666e-06
800.233	0.517334	3.78723e-05
800.713	-0.000888062	0.00973511
801.173	0.516876	1.15051e-05
801.673	0.517944	1.88904e-05
802.153	0.000836182	0.0054007
802.613	0.517456	6.53076e-06
803.113	0.518158	1.16882e-05
803.613	0.517853	0.0119843
804.053	0.517944	3.66211e-07
804.553	0.517059	1.64185e-05
805.053	0.518188	0.000281982
805.513	-0.698364	-0.0190094
805.993	0.518158	5.88989e-06
806.493	0.516754	7.44629e-05
806.953	-0.698608	-0.0115662
807.433	0.518341	3.14331e-06
807.933	0.518219	2.98157e-05
808.413	-0.000167847	0.0097168
808.873	0.517761	5.40161e-06
809.373	0.516846	2.57568e-05
809.853	0.000985718	0.00541077
810.313	0.518066	2.22778e-06
810.813	0.517029	1.98059e-05
811.313	0.51651	0.0120544
811.753	0.517487	3.50952e-06
812.253	0.517029	1.75171e-05
812.753	0.517578	0.000289368
813.213	-0.698914	-0.0190521
813.693	0.517822	8.72803e-06
814.193	0.517914	6.67419e-05
814.653	-0.698578	-0.0116302
815.133	0.518066	3.60107e-06
815.633	0.517059	3.96729e-05
816.113	0.0003479	0.00970764
816.573	0.517151	7.69043e-06
817.073	0.517273	2.53601e-05
817.553	-0.000421143	0.00542664
818.013	0.516907	9.06372e-06
818.513	0.517883	1.26343e-05
819.013	0.516632	0.0121124
819.453	0.516846	8.63647e-06
819.953	0.517883	8.60596e-06
820.453	0.517609	0.000297577
820.913	-0.697601	-0.0191193
821.393	0.517151	1.19629e-05
821.893	0.516632	7.67517e-05
822.353	-0.698914	-0.0116699
822.833	0.516693	1.33972e-05
823.333	0.517761	3.60718e-05
823.813	-0.000521851	0.00970154
824.273	0.516846	1.19019e-05
824.773	0.518219	1.90735e-05
825.253	-0.000558472	0.00543579
825.713	0.517883	2.16675e-06
826.213	0.517853	1.3916e-05
826.713	0.516327	0.0121826
827.153	0.51712	6.98853e-06
827.653	0.518188	1.0437e-05
828.153	0.518311	0.000302368
828.613	-0.699036	-0.0191772
829.093	0.518188	5.82886e-06
829.593	0.516907	7.53174e-05
830.053	-0.698395	-0.0117371
830.533	0.518066	3.90625e-06
831.033	0.517487	3.51257e-05
831.513	0.000311279	0.00967407
831.973	0.51712	8.94165e-06
832.473	0.517334	2.58179e-05
832.953	-0.000106812	0.00543945
833.413	0.517456	6.68335e-06
833.913	0.516968	2.10266e-05
834.413	0.516388	0.0122437
834.853	0.517426	6.22559e-06
835.353	0.517029	1.5564e-05
835.853	0.516907	0.000319092
836.313	-0.699005	-0.0192261
836.793	0.517914	1.09558e-05
837.293	0.517853	7.07397e-05
837.753	-0.698029	-0.0117828
838.233	0.518097	3.23486e-06
838.733	0.516846	4.05884e-05
839.213	-0.000686646	0.00965271
839.673	0.517578	5.64575e-06
840.173	0.517853	2.18201e-05
840.653	-0.000469971	0.00544922
841.113	0.516907	1.01624e-05
841.613	0.517761	1.56555e-05
842.113	0.516937	0.0122864
842.553	0.517212	7.04956e-06
843.053	0.516907	1.64185e-05
843.553	0.518219	0.000317108
844.013	-0.697968	-0.0192841
844.493	0.516785	1.44348e-05
844.993	0.517212	7.60193e-05
845.453	-0.699219	-0.0118225
845.933	0.516968	1.0498e-05
846.433	0.517029	4.13208e-05
846.913	-8.8501e-05	0.00964966
847.373	0.518066	2.7771e-06
847.873	0.5177	2.51465e-05
848.353	-0.000357056	0.0054538
848.813	0.516785	1.00403e-05
849.313	0.516815	2.28882e-05
849.813	0.517761	0.0123474
850.253	0.516815	9.765625E-06
850.753	0.516815	1.81274e-05
851.253	0.516876	0.000334137
851.713	-0.697601	-0.019342
852.193	0.517212	1.27258e-05
852.693	0.517853	7.31201e-05
853.153	-0.698853	-0.0118805
853.633	0.516876	1.49536e-05
854.133	0.517822	3.63464e-05
854.613	-0.000567627	0.00964355
855.073	0.517853	5.18799e-06
855.573	0.518219	2.11182e-05
856.053	0.000402832	0.00546234
856.513	0.516815	1.08337e-05
857.013	0.517853	1.88293e-05
857.513	0.516846	0.0124023
857.953	0.517212	6.86646e-06
858.453	0.517242	1.55945e-05
858.953	0.516998	0.000343414
859.413	-0.698273	-0.0193817
859.893	0.518127	6.56128e-06
860.393	0.517029	7.92847e-05
860.853	-0.698853	-0.0119293
861.333	0.516724	1.297e-05
861.833	0.518036	3.57666e-05
862.313	-6.40869e-05	0.0096283
862.773	0.51825	1.00708e-06
863.273	0.517883	2.27356e-05
863.753	-0.000375366	0.00546783
864.213	0.516968	1.06506e-05
864.713	0.517365	1.75476e-05
865.213	0.51767	0.0124634
865.653	0.518188	7.32422e-07
866.153	0.517365	1.53809e-05
866.654	0.517578	0.000347198
867.114	-0.698975	-0.0194275
867.594	0.518188	6.92749e-06
868.094	0.51825	7.37915e-05
868.554	-0.69812	-0.011969
869.034	0.516724	1.37634e-05
869.534	0.517944	3.92456e-05
870.014	-0.000857544	0.00961914
870.474	0.516846	1.15051e-05
870.974	0.517517	2.48413e-05
871.454	0.000860596	0.00546631
871.914	0.518127	3.05176e-06
872.414	0.51767	1.71814e-05
872.914	0.516266	0.0125
873.354	0.516846	9.42993e-06
873.854	0.517639	1.52588e-05
874.354	0.518311	0.000348236
874.814	-0.697601	-0.0194916
875.294	0.517853	8.75854e-06
875.794	0.518158	7.41882e-05
876.254	-0.699249	-0.0119995
876.734	0.516876	1.36414e-05
877.234	0.518158	3.50342e-05
877.714	-2.44141e-05	0.00959167
878.174	0.517883	4.73022e-06
878.674	0.516754	3.19214e-05
879.154	0.000857544	0.0054715
879.614	0.517273	6.22559e-06
880.114	0.516754	2.35901e-05
880.614	0.51767	0.0125458
881.054	0.518097	1.0376e-06
881.554	0.517548	1.48926e-05
881.774	0.516754	1.03149e-05