File: Edgar/20240531/20240531/electrodeposition_pulsed_potential_20240531_B/pulses_5000_to_6000.txt
Time (s)	WE(1).Potential (V)	WE(1).Current (A)
3744.06	-0.698578	-0.0240967
3744.54	0.517578	3.03345e-05
3745.04	0.517853	0.00821838
3745.5	-0.698761	-0.0192841
3745.98	0.518036	2.47498e-05
3746.48	0.516937	0.000924988
3746.96	0.000424194	0.00446625
3747.42	0.517944	1.93787e-05
3747.92	0.517273	0.000203156
3748.4	-0.000158691	0.00313049
3748.86	0.518005	1.80969e-05
3749.36	0.516998	9.19495e-05
3749.86	0.51709	0.0155884
3750.3	0.516846	2.38647e-05
3750.8	0.517334	5.41992e-05
3751.3	0.517548	0.0118591
3751.76	-0.698181	-0.024173
3752.24	0.517731	3.69568e-05
3752.74	0.517212	0.00835571
3753.2	-0.698303	-0.0192749
3753.68	0.516815	3.6499e-05
3754.18	0.516907	0.000973816
3754.66	0.000552368	0.00447815
3755.12	0.516907	2.84424e-05
3755.62	0.516846	0.000209167
3756.1	0.000473022	0.00313843
3756.56	0.516785	2.56042e-05
3757.06	0.517609	8.84705e-05
3757.56	0.517334	0.0155975
3758	0.517181	2.00806e-05
3758.5	0.518066	4.94385e-05
3759	0.517303	0.0118744
3759.46	-0.697174	-0.0241821
3759.94	0.516785	4.21143e-05
3760.44	0.516602	0.00838013
3760.9	-0.698456	-0.0192871
3761.38	0.516907	3.45459e-05
3761.88	0.517578	0.000986328
3762.36	0.000204468	0.00448364
3762.82	0.518097	2.15759e-05
3763.32	0.517456	0.000205658
3763.8	-0.000415039	0.0031485
3764.26	0.517578	2.10266e-05
3764.76	0.518158	8.39233e-05
3765.26	0.516479	0.0156097
3765.7	0.517456	2.005e-05
3766.2	0.517975	5.09033e-05
3766.7	0.517059	0.0118835
3767.16	-0.698456	-0.0241821
3767.64	0.517883	3.67737e-05
3768.14	0.517151	0.00839539
3768.6	-0.698669	-0.019278
3769.08	0.518097	2.82593e-05
3769.58	0.5177	0.00100037
3770.06	-0.000476074	0.00447937
3770.52	0.516998	2.66724e-05
3771.02	0.51825	0.000203491
3771.5	0.00065918	0.0031366
3771.96	0.517151	2.29187e-05
3772.46	0.517212	9.17358e-05
3772.96	0.516113	0.0156036
3773.4	0.51825	1.41602e-05
3773.9	0.518127	4.94995e-05
3774.4	0.517059	0.0118713
3774.86	-0.698547	-0.0241882
3775.34	0.517609	4.01001e-05
3775.84	0.51712	0.00840759
3776.3	-0.69754	-0.0192993
3776.78	0.517487	3.04565e-05
3777.28	0.517303	0.00101715
3777.76	-0.000283813	0.00447357
3778.22	0.517059	2.82593e-05
3778.72	0.517273	0.0002109375
3779.2	0.000665283	0.00313171
3779.66	0.517212	2.47803e-05
3780.16	0.517426	9.09729e-05
3780.66	0.516144	0.0156128
3781.1	0.517426	1.90125e-05
3781.6	0.517395	5.45959e-05
3782.1	0.517242	0.0118896
3782.56	-0.697327	-0.0241974
3783.04	0.517212	4.02832e-05
3783.54	0.517822	0.0084137
3784	-0.698853	-0.0193024
3784.48	0.517975	2.84424e-05
3784.98	0.516785	0.00102997
3785.46	0.000714111	0.00445953
3785.92	0.51712	2.67334e-05
3786.42	0.516724	0.000216125
3786.9	-0.000402832	0.00313782
3787.36	0.517578	2.00195e-05
3787.86	0.517822	8.81042e-05
3788.36	0.517273	0.0156189
3788.8	0.517059	2.02332e-05
3789.3	0.517517	5.39856e-05
3789.8	0.51767	0.0118805
3790.26	-0.697449	-0.0242004
3790.74	0.518158	3.57056e-05
3791.24	0.51767	0.0084198
3791.7	-0.697693	-0.0193115
3792.18	0.517639	2.89612e-05
3792.68	0.516754	0.00103943
3793.16	0.000350952	0.00445801
3793.62	0.517059	2.74353e-05
3794.12	0.517609	0.000213165
3794.6	0.000732422	0.00312531
3795.06	0.516785	2.56958e-05
3795.56	0.518127	8.74939e-05
3796.06	0.516693	0.0156128
3796.5	0.51767	1.7334e-05
3797	0.516937	5.98755e-05
3797.5	0.517273	0.0118958
3797.96	-0.69754	-0.0242004
3798.44	0.518127	3.54919e-05
3798.94	0.516479	0.00842285
3799.4	-0.698761	-0.0193115
3799.88	0.517761	2.97546e-05
3800.38	0.517639	0.00104553
3800.86	-0.000479126	0.00445465
3801.32	0.516754	3.05481e-05
3801.82	0.51712	0.000217621
3802.3	0.000234985	0.00311981
3802.76	0.516876	2.58484e-05
3803.26	0.518127	8.65173e-05
3803.76	0.516174	0.0156128
3804.2	0.518066	1.42822e-05
3804.7	0.518158	5.09338e-05
3805.2	0.516541	0.011908
3805.66	-0.697266	-0.0242096
3806.14	0.517609	3.76282e-05
3806.64	0.517792	0.00843811
3807.1	-0.697937	-0.0193176
3807.58	0.518097	2.80457e-05
3808.08	0.517273	0.00105988
3808.56	0.000524902	0.00444641
3809.02	0.516815	2.92969e-05
3809.52	0.517639	0.000214935
3810	0.000653076	0.00311829
3810.46	0.516937	2.50854e-05
3810.96	0.516907	9.47876e-05
3811.46	0.517181	0.0156128
3811.9	0.517181	2.0874e-05
3812.4	0.517517	5.56641e-05
3812.9	0.517181	0.0118927
3813.36	-0.697296	-0.02421875
3813.84	0.517609	3.86047e-05
3814.34	0.517853	0.00844727
3814.8	-0.698242	-0.0193176
3815.28	0.518127	2.72217e-05
3815.78	0.518005	0.0010672
3816.26	0.000561523	0.0044342
3816.72	0.517944	2.35596e-05
3817.22	0.516846	0.000221954
3817.7	-0.000445557	0.0031189
3818.16	0.517883	1.87683e-05
3818.66	0.517883	9.05457e-05
3819.16	0.516815	0.0156128
3819.6	0.517151	1.98669e-05
3820.1	0.517609	5.31311e-05
3820.6	0.517487	0.0119019
3821.06	-0.697266	-0.0242096
3821.54	0.518005	3.61023e-05
3822.04	0.517792	0.00845947
3822.5	-0.698792	-0.0193359
3822.98	0.517731	3.125E-05
3823.48	0.517944	0.00107513
3823.96	0.000100708	0.00442841
3824.42	0.517151	2.79236e-05
3824.92	0.517853	0.000216553
3825.4	0.000744629	0.00310669
3825.86	0.51712	2.47803e-05
3826.36	0.518036	8.90503e-05
3826.86	0.51709	0.0156097
3827.3	0.518036	1.62659e-05
3827.8	0.51712	5.70679e-05
3828.3	0.517334	0.0119019
3828.76	-0.698578	-0.0242035
3829.24	0.517883	3.6499e-05
3829.74	0.517609	0.00845947
3830.2	-0.698669	-0.019342
3830.68	0.517914	2.79236e-05
3831.18	0.517914	0.00108337
3831.66	0.000378418	0.00442108
3832.12	0.516876	3.10669e-05
3832.62	0.517944	0.000217316
3833.1	0.000588989	0.00310547
3833.56	0.518036	1.81274e-05
3834.06	0.51709	9.40247e-05
3834.56	0.516083	0.0156158
3835	0.518188	1.37634e-05
3835.5	0.516937	5.79834e-05
3836	0.517059	0.0119141
3836.46	-0.698547	-0.0242065
3836.94	0.518219	3.63464e-05
3837.44	0.516541	0.00848083
3837.9	-0.698303	-0.019342
3838.38	0.517487	3.23181e-05
3838.88	0.517212	0.00109619
3839.36	-0.000494385	0.00442352
3839.82	0.51709	2.73132e-05
3840.32	0.518219	0.000218781
3840.8	0.000613403	0.00310242
3841.26	0.516937	2.51465e-05
3841.76	0.517883	9.00574e-05
3842.26	0.516083	0.0156158
3842.7	0.517273	1.76697e-05
3843.2	0.516907	5.97839e-05
3843.7	0.517487	0.0119049
3844.16	-0.698486	-0.0242249
3844.64	0.516785	4.37317e-05
3845.14	0.517517	0.00848083
3845.6	-0.69754	-0.0193573
3846.08	0.518158	2.71301e-05
3846.58	0.517303	0.00110382
3847.06	-0.000497437	0.00441895
3847.52	0.516815	3.10974e-05
3848.02	0.518066	0.000219116
3848.5	-0.000338745	0.00310242
3848.96	0.516907	2.4231e-05
3849.46	0.517822	9.07898e-05
3849.96	0.516998	0.0156036
3850.4	0.516998	2.2644e-05
3850.9	0.517609	5.51147e-05
3851.4	0.517578	0.011911
3851.86	-0.698486	-0.0242218
3852.34	0.518219	3.50342e-05
3852.84	0.517334	0.00848083
3853.3	-0.698669	-0.0193573
3853.78	0.517487	2.99988e-05
3854.28	0.516876	0.00111267
3854.76	3.96729e-05	0.00441132
3855.22	0.517578	2.64587e-05
3855.72	0.516846	0.000227356
3856.2	-0.00043335	0.00309631
3856.66	0.517151	2.35901e-05
3857.16	0.516876	9.70764e-05
3857.66	0.517029	0.0156067
3858.1	0.517883	1.55029e-05
3858.6	0.517609	5.41687e-05
3859.1	0.516357	0.0119171
3859.56	-0.698608	-0.0242065
3860.04	0.517029	4.12292e-05
3860.54	0.517059	0.0085022
3861	-0.698151	-0.0193573
3861.48	0.518066	2.70081e-05
3861.98	0.518188	0.00111023
3862.46	-0.00043335	0.00440918
3862.92	0.516998	2.90833e-05
3863.42	0.516907	0.000227844
3863.9	-4.27246e-05	0.00309174
3864.36	0.517578	2.0874e-05
3864.86	0.51712	9.61304e-05
3865.36	0.51712	0.0156006
3865.8	0.516754	2.3407e-05
3866.3	0.517944	5.18494e-05
3866.8	0.517578	0.0119232
3867.26	-0.698456	-0.0242126
3867.74	0.517395	4.13818e-05
3868.24	0.516602	0.00849609
3868.7	-0.698914	-0.0193481
3869.18	0.516998	3.44238e-05
3869.68	0.517365	0.00112518
3870.16	0.000708008	0.00439148
3870.62	0.518127	2.12708e-05
3871.12	0.518097	0.000224121
3871.6	-0.000335693	0.00309052
3872.06	0.517487	2.29492e-05
3872.56	0.518127	8.99353e-05
3873.06	0.516418	0.0156219
3873.5	0.517975	1.67847e-05
3874	0.518036	5.25208e-05
3874.5	0.516327	0.0119232
3874.96	-0.697906	-0.02421875
3875.44	0.517059	4.36707e-05
3875.94	0.517273	0.00849915
3876.4	-0.699005	-0.0193604
3876.88	0.518158	2.73132e-05
3877.38	0.51767	0.00113068
3877.86	0.00062561	0.00439331
3878.32	0.516876	2.95105e-05
3878.82	0.51712	0.000231995
3879.3	0.000689697	0.00308075
3879.76	0.517944	1.89819e-05
3880.26	0.517395	9.55505e-05
3880.76	0.516846	0.0156036
3881.2	0.517731	1.74561e-05
3881.7	0.517487	5.41687e-05
3882.2	0.517517	0.0119232
3882.66	-0.697235	-0.0242279
3883.14	0.517273	4.10461e-05
3883.64	0.517914	0.0085083
3884.1	-0.698639	-0.0193695
3884.58	0.518158	2.72217e-05
3885.08	0.516815	0.00113739
3885.56	9.46045e-05	0.00439209
3886.02	0.517456	2.27356e-05
3886.52	0.518066	0.0002258
3887	-4.88281e-05	0.00308075
3887.46	0.516968	2.57874e-05
3887.96	0.51709	9.70459e-05
3888.46	0.516449	0.0156158
3888.9	0.518188	1.57471e-05
3889.4	0.516998	5.8136e-05
3889.9	0.5177	0.0119202
3890.36	-0.697754	-0.0242249
3890.84	0.517883	3.63159e-05
3891.34	0.517426	0.0085083
3891.8	-0.697632	-0.0193726
3892.28	0.516785	3.55835e-05
3892.78	0.517822	0.00113403
3893.26	-0.000482178	0.00438873
3893.72	0.51709	2.97241e-05
3894.22	0.518036	0.000226196
3894.7	0.000793457	0.00307159
3895.16	0.516876	2.67334e-05
3895.66	0.517151	9.66492e-05
3896.16	0.517181	0.0155975
3896.6	0.518188	1.48315e-05
3897.1	0.518097	5.27649e-05
3897.6	0.517303	0.0119263
3898.06	-0.698669	-0.0242126
3898.54	0.517517	4.04358e-05
3899.04	0.517609	0.00851135
3899.5	-0.698456	-0.0193756
3899.98	0.518158	2.66113e-05
3900.48	0.516907	0.00114838
3900.96	-0.000561523	0.00438141
3901.42	0.516815	3.02734e-05
3901.92	0.516815	0.000236755
3902.4	0.000524902	0.00306763
3902.86	0.517212	2.25525e-05
3903.36	0.516907	9.96704e-05
3903.86	0.516968	0.0156036
3904.3	0.516846	2.38037e-05
3904.8	0.518158	5.16663e-05
3905.3	0.517609	0.0119232
3905.76	-0.698456	-0.0242096
3906.24	0.518158	3.5675e-05
3906.74	0.517548	0.00852051
3907.2	-0.697601	-0.0193787
3907.68	0.517975	2.70386e-05
3908.18	0.516785	0.00115692
3908.66	0.000305176	0.00436707
3909.12	0.516876	3.07617e-05
3909.62	0.51828	0.000228516
3910.1	0.000921631	0.00306
3910.56	0.517242	2.38342e-05
3911.06	0.51767	9.45129e-05
3911.56	0.516876	0.0155975
3912	0.516907	2.41394e-05
3912.5	0.516846	6.06689e-05
3913	0.517548	0.0119263
3913.46	-0.698486	-0.0242157
3913.94	0.518158	3.44849e-05
3914.44	0.517151	0.00852661
3914.9	-0.698883	-0.0193756
3915.38	0.516907	3.49731e-05
3915.88	0.518158	0.00115723
3916.36	-0.000509644	0.00436707
3916.82	0.517212	2.77405e-05
3917.32	0.517303	0.000235199
3917.8	0.00055542	0.00305634
3918.26	0.517944	1.63269e-05
3918.76	0.518127	9.23767e-05
3919.26	0.516693	0.0155975
3919.7	0.516785	2.32544e-05
3920.2	0.517853	5.59387e-05
3920.7	0.516846	0.0119354
3921.16	-0.698547	-0.02421875
3921.64	0.51767	3.7262e-05
3922.14	0.517609	0.00854187
3922.6	-0.698212	-0.0193848
3923.08	0.517883	2.88391e-05
3923.58	0.518127	0.00117004
3924.06	0.000576782	0.00435028
3924.52	0.516846	3.05176e-05
3925.02	0.518219	0.000231903
3925.5	0.00093689	0.00304779
3925.96	0.516846	2.63977e-05
3926.46	0.516815	0.000101654
3926.96	0.516174	0.0156036
3927.4	0.517548	1.84021e-05
3927.9	0.517578	5.75256e-05
3928.4	0.516296	0.0119385
3928.86	-0.698547	-0.0242249
3929.34	0.516754	4.55017e-05
3929.84	0.517761	0.00854187
3930.3	-0.698029	-0.0194
3930.78	0.517792	2.97241e-05
3931.28	0.518158	0.00118378
3931.76	-4.88281e-05	0.00434937
3932.22	0.5177	2.49634e-05
3932.72	0.516876	0.000244293
3933.2	0.000814819	0.00304199
3933.66	0.518158	1.71204e-05
3934.16	0.517029	0.000101166
3934.66	0.516205	0.0156036
3935.1	0.517212	2.1698e-05
3935.6	0.518158	5.18494e-05
3936.1	0.516541	0.0119415
3936.56	-0.698517	-0.02421875
3937.04	0.517883	3.72925e-05
3937.54	0.517792	0.00855408
3938	-0.698883	-0.0193939
3938.48	0.518127	2.70081e-05
3938.98	0.518127	0.00119263
3939.46	0.000210571	0.0043335
3939.92	0.516846	3.06091e-05
3940.42	0.516815	0.000245178
3940.9	-2.74658e-05	0.00303589
3941.36	0.51712	2.49329e-05
3941.86	0.518127	9.40857e-05
3942.36	0.516052	0.0155975
3942.8	0.518219	1.41296e-05
3943.3	0.518097	5.36194e-05
3943.8	0.516418	0.0119446
3944.26	-0.698578	-0.0242249
3944.74	0.516876	4.53491e-05
3945.24	0.517792	0.00855103
3945.7	-0.697876	-0.0194153
3946.18	0.516907	3.43628e-05
3946.68	0.517639	0.00120209
3947.16	0.000506592	0.00432678
3947.62	0.516846	2.94495e-05
3948.12	0.518188	0.000237762
3948.6	-0.000112915	0.00303802
3949.06	0.517883	1.78833e-05
3949.56	0.517975	9.60388e-05
3950.06	0.51651	0.0155975
3950.5	0.516846	2.30713e-05
3951	0.518219	5.29175e-05
3951.5	0.517517	0.0119385
3951.96	-0.697327	-0.0242493
3952.44	0.517975	3.67432e-05
3952.94	0.516998	0.00856323
3953.4	-0.698395	-0.0194244
3953.88	0.51712	3.29895e-05
3954.38	0.518158	0.0012085
3954.86	-0.000314331	0.00433441
3955.32	0.517181	2.65808e-05
3955.82	0.517029	0.000247284
3956.3	-0.00012207	0.00303925
3956.76	0.517456	2.33765e-05
3957.26	0.516937	0.000104187
3957.76	0.516968	0.0155945
3958.2	0.516846	2.35596e-05
3958.7	0.517395	5.82581e-05
3959.2	0.517548	0.0119415
3959.66	-0.698547	-0.0242401
3960.14	0.518219	3.62244e-05
3960.64	0.517242	0.00856323
3961.1	-0.698242	-0.0194336
3961.58	0.516846	3.6499e-05
3962.08	0.516968	0.00122864
3962.56	0.000836182	0.00431915
3963.02	0.517853	2.40479e-05
3963.52	0.516846	0.000249207
3964	0.000601196	0.00302795
3964.46	0.517639	1.88599e-05
3964.96	0.518188	9.66492e-05
3965.46	0.516235	0.0156067
3965.9	0.517731	1.76086e-05
3966.4	0.518188	5.52979e-05
3966.9	0.516327	0.0119476
3967.36	-0.698059	-0.0242401
3967.84	0.518066	3.69873e-05
3968.34	0.51712	0.00856934
3968.8	-0.698151	-0.0194336
3969.28	0.518127	2.67029e-05
3969.78	0.517792	0.0012323
3970.26	-0.0003479	0.00431763
3970.72	0.516968	2.71301e-05
3971.22	0.517456	0.000246521
3971.7	0.000714111	0.00302094
3972.16	0.516846	2.63062e-05
3972.66	0.518158	9.54895e-05
3973.16	0.516327	0.0156036
3973.6	0.518097	1.49231e-05
3974.1	0.518005	5.4657e-05
3974.6	0.516266	0.0119537
3975.06	-0.697296	-0.0242523
3975.54	0.517029	4.29077e-05
3976.04	0.516479	0.0085907
3976.5	-0.69754	-0.0194366
3976.98	0.51712	3.42102e-05
3977.48	0.516968	0.00124847
3977.96	-0.000604248	0.00431
3978.42	0.517029	2.85034e-05
3978.92	0.516815	0.000252899
3979.4	0.000796509	0.00301453
3979.86	0.516846	2.62146e-05
3980.36	0.517212	0.000102356
3980.86	0.516357	0.0155914
3981.3	0.518036	1.62964e-05
3981.8	0.516846	6.30188e-05
3982.3	0.517487	0.0119476
3982.76	-0.697937	-0.0242432
3983.24	0.517242	4.26941e-05
3983.74	0.517059	0.00858154
3984.2	-0.698425	-0.0194397
3984.68	0.518188	2.86865e-05
3985.18	0.517212	0.0012561
3985.66	-0.000335693	0.0043045
3986.12	0.518188	2.3407e-05
3986.62	0.518188	0.000245087
3987.1	0.000701904	0.00301025
3987.56	0.517242	2.40479e-05
3988.06	0.51709	0.000101776
3988.56	0.516144	0.0156006
3989	0.518066	1.53809e-05
3989.5	0.516937	6.17065e-05
3990	0.51767	0.0119507
3990.46	-0.698547	-0.0242493
3990.94	0.517822	3.83301e-05
3991.44	0.517822	0.00858765
3991.9	-0.698547	-0.0194489
3992.38	0.516724	3.53394e-05
3992.88	0.517181	0.00126373
3993.36	0.000552368	0.00428162
3993.82	0.518127	2.23999e-05
3994.32	0.518036	0.000248566
3994.8	0.000332642	0.00300598
3995.26	0.517395	2.24304e-05
3995.76	0.517609	0.00010025
3996.26	0.516937	0.0155853
3996.7	0.518188	1.45874e-05
3997.2	0.518005	5.56335e-05
3997.7	0.516846	0.0119629
3998.16	-0.698639	-0.0242554
3998.64	0.516815	4.599e-05
3999.14	0.51651	0.00861206
3999.6	-0.698608	-0.019458
4000.08	0.518127	2.80151e-05
4000.58	0.517883	0.00127014
4001.06	0.000698853	0.00427734
4001.52	0.517181	2.97852e-05
4002.02	0.517578	0.00025116
4002.5	-2.74658e-05	0.00300079
4002.96	0.516937	2.59705e-05
4003.46	0.516815	0.000105743
4003.96	0.516541	0.0156067
4004.4	0.517944	1.51062e-05
4004.9	0.517456	5.95398e-05
4005.4	0.517181	0.011969
4005.86	-0.697876	-0.0242676
4006.34	0.516998	4.38843e-05
4006.84	0.517181	0.00861816
4007.3	-0.698151	-0.0194611
4007.78	0.517487	3.05786e-05
4008.28	0.516815	0.00128967
4008.76	-0.000405884	0.00427582
4009.22	0.51709	2.81372e-05
4009.72	0.516815	0.000255737
4010.2	-0.000256348	0.00299591
4010.66	0.516785	2.64282e-05
4011.16	0.517792	0.000101318
4011.66	0.516937	0.0155884
4012.1	0.51825	1.42822e-05
4012.6	0.516907	6.30493e-05
4013.1	0.517578	0.011969
4013.56	-0.698334	-0.0242584
4014.04	0.517487	3.94287e-05
4014.54	0.517334	0.00861511
4015	-0.698669	-0.0194641
4015.48	0.517242	3.54614e-05
4015.98	0.517181	0.00129608
4016.46	-0.000256348	0.00426941
4016.92	0.518005	2.34985e-05
4017.42	0.517548	0.000253113
4017.9	-0.000131226	0.00299591
4018.36	0.517822	2.02026e-05
4018.86	0.517181	0.000105316
4019.36	0.517395	0.0155914
4019.8	0.517029	2.27661e-05
4020.3	0.516876	6.38123e-05
4020.8	0.517181	0.011972
4021.26	-0.698212	-0.0242706
4021.74	0.518158	3.64685e-05
4022.24	0.516785	0.00862732
4022.7	-0.697601	-0.0194885
4023.18	0.517151	3.40271e-05
4023.68	0.516968	0.00130798
4024.16	-0.000262451	0.00426361
4024.62	0.517853	2.53906e-05
4025.12	0.51828	0.000251251
4025.6	-0.000436401	0.00299042
4026.06	0.517853	2.05383e-05
4026.56	0.518066	9.83887e-05
4027.06	0.516418	0.0155914
4027.5	0.517029	2.45972e-05
4028	0.51712	6.11877e-05
4028.5	0.516327	0.011972
4028.96	-0.697937	-0.0242767
4029.44	0.516998	4.67529e-05
4029.94	0.51767	0.00862732
4030.4	-0.698303	-0.0194824
4030.88	0.517151	3.3783e-05
4031.38	0.516968	0.00131744
4031.86	0.000674438	0.00424652
4032.32	0.518066	2.27661e-05
4032.82	0.516968	0.000263123
4033.3	-0.000241089	0.00298431
4033.76	0.516876	2.73132e-05
4034.26	0.517853	0.000101257
4034.76	0.517303	0.0155823
4035.2	0.517456	1.87988e-05
4035.7	0.516968	6.34155e-05
4036.2	0.51651	0.011972
4036.66	-0.697968	-0.0242706
4037.14	0.517853	3.75977e-05
4037.64	0.516541	0.00864258
4038.1	-0.697632	-0.0194977
4038.58	0.518066	2.92664e-05
4039.08	0.516907	0.00133514
4039.56	0.000454712	0.00423737
4040.02	0.516846	3.07617e-05
4040.52	0.518188	0.000256042
4041	-7.32422e-05	0.00296936
4041.46	0.518127	1.85547e-05
4041.96	0.517212	0.000106171
4042.46	0.516876	0.0155792
4042.9	0.516968	2.44141e-05
4043.4	0.518036	5.65796e-05
4043.9	0.517181	0.0119629
4044.36	-0.697418	-0.0242828
4044.84	0.517181	4.2572e-05
4045.34	0.517212	0.00865173
4045.8	-0.698242	-0.0194916
4046.28	0.516846	3.6438e-05
4046.78	0.517212	0.00134949
4047.26	-0.000482178	0.00423584
4047.72	0.518219	2.20947e-05
4048.22	0.517029	0.000266602
4048.7	-0.000479126	0.00297272
4049.16	0.517914	2.19116e-05
4049.66	0.516754	0.000108582
4050.16	0.516144	0.0155914
4050.6	0.517426	1.90125e-05
4051.1	0.518219	5.59998e-05
4051.6	0.517181	0.0119659
4052.06	-0.69812	-0.0242798
4052.54	0.516754	4.61426e-05
4053.04	0.517059	0.00866089
4053.5	-0.698425	-0.0195007
4053.98	0.517914	2.90527e-05
4054.48	0.517151	0.00135742
4054.96	0.000506592	0.00422699
4055.42	0.517609	2.56348e-05
4055.92	0.517029	0.000266968
4056.4	-0.000561523	0.00296783
4056.86	0.517029	2.72217e-05
4057.36	0.518097	0.000101929
4057.86	0.517548	0.0155762
4058.3	0.517517	2.05994e-05
4058.8	0.516815	6.3446e-05
4059.3	0.517487	0.011972
4059.76	-0.698364	-0.0242828
4060.24	0.517578	3.9093e-05
4060.74	0.517273	0.00865479
4061.2	-0.698944	-0.0195129
4061.68	0.516907	3.70483e-05
4062.18	0.516663	0.00136719
4062.66	0.00017395	0.00421906
4063.12	0.516937	3.01819e-05
4063.62	0.517029	0.000269714
4064.1	-0.000485229	0.00296539
4064.56	0.517303	2.5116e-05
4065.06	0.516754	0.000110168
4065.56	0.517059	0.0155731
4066	0.517914	1.6449e-05
4066.5	0.51709	6.40259e-05
4067	0.516327	0.0119843
4067.46	-0.697968	-0.0242859
4067.94	0.517853	3.9032e-05
4068.44	0.51651	0.00866699
4068.9	-0.698425	-0.0195221
4069.38	0.516876	3.65906e-05
4069.88	0.518127	0.0013736
4070.36	4.57764e-05	0.00421692
4070.82	0.518219	2.1698e-05
4071.32	0.516968	0.000271393
4071.8	0.000231934	0.00295044
4072.26	0.518127	1.80359e-05
4072.76	0.517181	0.000107025
4073.26	0.516022	0.0155823
4073.7	0.518097	1.62659e-05
4074.2	0.518158	5.5542e-05
4074.7	0.517609	0.0119781
4075.16	-0.697266	-0.024292
4075.64	0.517822	4.01001e-05
4076.14	0.516632	0.0086731
4076.6	-0.69751	-0.019516
4077.08	0.516907	3.61023e-05
4077.58	0.517365	0.00138092
4078.06	0.000717163	0.00420654
4078.52	0.517212	2.7771e-05
4079.02	0.516846	0.000273193
4079.5	0.000680542	0.0029483
4079.96	0.517914	1.77612e-05
4080.46	0.518158	0.000103027
4080.96	0.517334	0.0155731
4081.4	0.517944	1.75476e-05
4081.9	0.516693	6.61316e-05
4082.4	0.516296	0.0119812
4082.86	-0.697784	-0.024292
4083.34	0.516815	4.63867e-05
4083.84	0.51651	0.00868225
4084.3	-0.698822	-0.0195282
4084.78	0.517395	3.22571e-05
4085.28	0.516907	0.00139984
4085.76	-0.000421143	0.00420776
4086.22	0.518127	2.26135e-05
4086.72	0.516968	0.000275177
4087.2	0.000653076	0.00294769
4087.66	0.517822	2.04163e-05
4088.16	0.516846	0.000112335
4088.66	0.516602	0.015567
4089.1	0.516846	2.40784e-05
4089.6	0.516876	6.50635e-05
4090.1	0.517517	0.0119843
4090.56	-0.697906	-0.024292
4091.04	0.517456	4.12903e-05
4091.54	0.516724	0.00869446
4092	-0.697571	-0.0195343
4092.48	0.518036	2.80457e-05
4092.98	0.51825	0.00141083
4093.46	0.00062561	0.0041925
4093.92	0.517639	2.43225e-05
4094.42	0.516968	0.000278168
4094.9	0.000115967	0.00294373
4095.36	0.51825	1.74255e-05
4095.86	0.518127	0.000104492
4096.36	0.516418	0.0155731
4096.8	0.516785	2.35291e-05
4097.3	0.516968	6.57349e-05
4097.8	0.517395	0.0119812
4098.26	-0.697876	-0.0242981
4098.74	0.516815	4.61426e-05
4099.24	0.516754	0.00869751
4099.7	-0.698761	-0.0195343
4100.18	0.517303	3.2959e-05
4100.68	0.517639	0.00142059
4101.16	-0.000360107	0.0041925
4101.62	0.517029	2.94189e-05
4102.12	0.516785	0.000280518
4102.6	-0.000576782	0.00293945
4103.06	0.518188	1.84326e-05
4103.56	0.516907	0.000113647
4104.06	0.516418	0.0155792
4104.5	0.516754	2.5238e-05
4105	0.516785	6.56738e-05
4105.5	0.517548	0.0119873
4105.96	-0.697815	-0.0243042
4106.44	0.517456	4.50745e-05
4106.94	0.517639	0.00869446
4107.4	-0.698547	-0.0195465
4107.88	0.516815	3.67432e-05
4108.38	0.518097	0.0014325
4108.86	0.000158691	0.00417969
4109.32	0.517975	2.32849e-05
4109.82	0.518005	0.000274048
4110.3	0.000244141	0.00293365
4110.76	0.516876	2.50244e-05
4111.26	0.516815	0.000114899
4111.76	0.517181	0.0155762
4112.2	0.517181	2.23083e-05
4112.7	0.516998	6.427e-05
4113.2	0.516357	0.0119965
4113.66	-0.698547	-0.0242889
4114.14	0.518066	3.96118e-05
4114.64	0.516418	0.00870667
4115.1	-0.697601	-0.0195496
4115.58	0.516785	3.62244e-05
4116.08	0.517578	0.0014444
4116.56	-0.000524902	0.00417938
4117.02	0.517609	2.42004e-05
4117.52	0.517303	0.000281311
4118	0.000872803	0.00292328
4118.46	0.517212	2.47498e-05
4118.96	0.517761	0.000108368
4119.46	0.517487	0.0155701
4119.9	0.517883	1.79138e-05
4120.4	0.516876	6.56433e-05
4120.9	0.51767	0.0119934
4121.36	-0.697357	-0.024295
4121.84	0.516846	4.84924e-05
4122.34	0.517822	0.00870972
4122.8	-0.698853	-0.0195526
4123.28	0.517548	3.302e-05
4123.78	0.517822	0.0014563
4124.26	-0.000454712	0.00417389
4124.72	0.516815	3.01819e-05
4125.22	0.517578	0.000281219
4125.7	6.10352e-05	0.00292389
4126.16	0.518127	1.98059e-05
4126.66	0.516815	0.000114685
4127.16	0.517426	0.0155609
4127.6	0.517151	2.2583e-05
4128.1	0.517761	5.85632e-05
4128.6	0.517059	0.0119934
4129.06	-0.698334	-0.0242889
4129.54	0.517365	4.38843e-05
4130.04	0.516785	0.00871887
4130.5	-0.698822	-0.0195618
4130.98	0.516998	3.51257e-05
4131.48	0.516937	0.00148163
4131.96	0.000643921	0.00415466
4132.42	0.516815	3.19214e-05
4132.92	0.517853	0.000281464
4133.4	-0.000509644	0.00291595
4133.86	0.516937	2.58789e-05
4134.36	0.517853	0.000109161
4134.86	0.517303	0.0155701
4135.3	0.517609	2.03552e-05
4135.8	0.517548	6.40259e-05
4136.3	0.517487	0.0119965
4136.76	-0.697296	-0.0243103
4137.24	0.516998	4.76074e-05
4137.74	0.517487	0.00873108
4138.2	-0.698059	-0.019574
4138.68	0.517426	3.23792e-05
4139.18	0.517181	0.00148651
4139.66	0.000787354	0.00414734
4140.12	0.516815	3.14941e-05
4140.62	0.517334	0.000286804
4141.1	0.000643921	0.00290527
4141.56	0.516815	2.5116e-05
4142.06	0.518036	0.000108551
4142.56	0.516693	0.0155731
4143	0.517639	1.93481e-05
4143.5	0.516815	6.46973e-05
4144	0.516357	0.0120087
4144.46	-0.697662	-0.0243073
4144.94	0.518097	3.92456e-05
4145.44	0.516479	0.00873718
4145.9	-0.697937	-0.0195648
4146.38	0.516907	3.80554e-05
4146.88	0.517334	0.00149414
4147.36	0.000332642	0.00414551
4147.82	0.516815	3.17078e-05
4148.32	0.516846	0.000290527
4148.8	-0.000521851	0.00290924
4149.26	0.517212	2.39258e-05
4149.76	0.517853	0.000110809
4150.26	0.516052	0.0155701
4150.7	0.517303	1.88293e-05
4151.2	0.518127	5.859375E-05
4151.7	0.516785	0.0120087
4152.16	-0.69751	-0.0243073
4152.64	0.517212	4.37927e-05
4153.14	0.51651	0.00874023
4153.6	-0.698273	-0.0195587
4154.08	0.518036	2.93579e-05
4154.58	0.518036	0.0014975
4155.06	-0.00020752	0.00414856
4155.52	0.517426	2.6886e-05
4156.02	0.518036	0.000284149
4156.5	0	0.00290588
4156.96	0.516785	2.71301e-05
4157.46	0.517426	0.00011438
4157.96	0.516174	0.0155762
4158.4	0.518066	1.5686e-05
4158.9	0.517914	6.25305e-05
4159.4	0.517609	0.0120056
4159.86	-0.697266	-0.024295
4160.34	0.518188	3.91541e-05
4160.84	0.517548	0.00874329
4161.3	-0.698273	-0.0195648
4161.78	0.516815	3.77197e-05
4162.28	0.516968	0.00150665
4162.76	0.000759888	0.00413422
4163.22	0.516754	3.03345e-05
4163.72	0.518036	0.000285675
4164.2	-0.000335693	0.00290253
4164.66	0.516846	2.58789e-05
4165.16	0.516876	0.00011731
4165.66	0.517151	0.015567
4166.1	0.517975	1.72119e-05
4166.6	0.517059	6.56128e-05
4167.1	0.517609	0.0120056
4167.56	-0.698425	-0.0242828
4168.04	0.516907	4.76379e-05
4168.54	0.517181	0.00874939
4169	-0.697876	-0.019577
4169.48	0.516815	3.77808e-05
4169.98	0.517517	0.00151123
4170.46	0.000698853	0.0041272
4170.92	0.51712	2.9541e-05
4171.42	0.517578	0.000289185
4171.9	-0.000204468	0.00290131
4172.36	0.518219	1.94092e-05
4172.86	0.516846	0.000118347
4173.36	0.51712	0.0155609
4173.8	0.517059	2.23694e-05
4174.3	0.518219	5.84106e-05
4174.8	0.517029	0.0120178
4175.26	-0.697327	-0.0242981
4175.74	0.516815	4.78516e-05
4176.24	0.517365	0.00875244
4176.7	-0.698517	-0.0195709
4177.18	0.517273	3.46985e-05
4177.68	0.517426	0.00152924
4178.16	-0.000119019	0.00412933
4178.62	0.51709	2.7832e-05
4179.12	0.517761	0.000289642
4179.6	0.000418091	0.00289124
4180.06	0.51767	2.1759e-05
4180.56	0.517242	0.000113495
4181.06	0.517395	0.0155579
4181.5	0.516907	2.36206e-05
4182	0.517853	6.23474e-05
4182.5	0.517426	0.0120148
4182.96	-0.697327	-0.0243073
4183.44	0.517273	4.35486e-05
4183.94	0.51651	0.0087616
4184.4	-0.697632	-0.019577
4184.88	0.517609	3.24402e-05
4185.38	0.517853	0.00153625
4185.86	0.00027771	0.00411316
4186.32	0.517487	2.6062e-05
4186.82	0.51712	0.000295319
4187.3	-0.00020752	0.00288666
4187.76	0.517914	1.97144e-05
4188.26	0.517242	0.000114838
4188.76	0.516693	0.015567
4189.2	0.517456	2.05688e-05
4189.7	0.51825	5.86853e-05
4190.2	0.517273	0.0120178
4190.66	-0.698059	-0.024292
4191.14	0.516998	4.67529e-05
4191.64	0.517883	0.00875549
4192.1	-0.697601	-0.0195892
4192.58	0.516876	3.72314e-05
4193.08	0.516785	0.00155609
4193.56	0.000106812	0.00411652
4194.02	0.517609	2.48108e-05
4194.52	0.518097	0.000291992
4195	0.000723267	0.0028772
4195.46	0.518127	1.98364e-05
4195.96	0.517853	0.000115112
4196.46	0.517395	0.0155579
4196.9	0.517761	1.75476e-05
4197.4	0.518036	6.04248e-05
4197.9	0.517548	0.0120148
4198.36	-0.697815	-0.0242981
4198.84	0.517548	4.23584e-05
4199.34	0.517761	0.0087616
4199.8	-0.698792	-0.0195984
4200.28	0.5177	3.08533e-05
4200.78	0.517853	0.00156189
4201.26	4.27246e-05	0.00411072
4201.72	0.5177	2.53601e-05
4202.22	0.518066	0.000294189
4202.7	-0.0003479	0.00288177
4203.16	0.517151	2.49023e-05
4203.66	0.517395	0.000117035
4204.16	0.51709	0.0155518
4204.6	0.516998	2.31018e-05
4205.1	0.517792	6.14929e-05
4205.6	0.517639	0.0120148
4206.06	-0.698425	-0.0243103
4206.54	0.516876	4.73633e-05
4207.04	0.516479	0.00877991
4207.5	-0.698853	-0.0195892
4207.98	0.516876	3.75671e-05
4208.48	0.516846	0.00158203
4208.96	0.000546265	0.00409576
4209.42	0.517609	2.45972e-05
4209.92	0.518005	0.000297455
4210.4	-0.000335693	0.00287537
4210.86	0.518188	1.84631e-05
4211.36	0.518219	0.000113434
4211.86	0.516388	0.0155609
4212.3	0.517914	1.76086e-05
4212.8	0.518005	5.98145e-05
4213.3	0.517334	0.0120117
4213.76	-0.697357	-0.0243103
4214.24	0.5177	4.16565e-05
4214.74	0.516602	0.00878601
4215.2	-0.698395	-0.0196014
4215.68	0.518127	2.98157e-05
4216.18	0.517609	0.00160431
4216.66	-0.000439453	0.00408844
4217.12	0.517975	2.38647e-05
4217.62	0.517914	0.000300873
4218.1	-8.23975e-05	0.00286407
4218.56	0.517395	2.41699e-05
4219.06	0.517059	0.000120728
4219.56	0.517456	0.0155518
4220	0.516937	2.37122e-05
4220.5	0.516815	6.93665e-05
4221	0.516602	0.0120239
4221.46	-0.697266	-0.0243256
4221.94	0.517578	4.35181e-05
4222.44	0.517517	0.00878296
4222.9	-0.698303	-0.0196136
4223.38	0.517395	3.45459e-05
4223.88	0.518097	0.00162018
4224.36	-0.000262451	0.00408386
4224.82	0.516724	3.21045e-05
4225.32	0.518005	0.000302765
4225.8	-0.000466919	0.00286163
4226.26	0.517487	2.3468e-05
4226.76	0.516693	0.000122742
4227.26	0.516357	0.0155487
4227.7	0.516815	2.38037e-05
4228.2	0.518188	6.13708e-05
4228.7	0.517456	0.0120178
4229.16	-0.697998	-0.0243195
4229.64	0.518097	3.96423e-05
4230.14	0.516754	0.00879822
4230.6	-0.69751	-0.0196198
4231.08	0.517059	3.44543e-05
4231.58	0.516846	0.00163391
4232.06	0.000112915	0.00407288
4232.52	0.517029	2.98462e-05
4233.02	0.516998	0.000310486
4233.5	-0.000222778	0.00285828
4233.96	0.517639	2.33765e-05
4234.46	0.517731	0.000117523
4234.96	0.517395	0.0155457
4235.4	0.517639	1.953125E-05
4235.9	0.517853	6.16455e-05
4236.4	0.516357	0.0120239
4236.86	-0.698456	-0.0243042
4237.34	0.516846	4.84009e-05
4237.84	0.517181	0.00878601
4238.3	-0.698517	-0.0196289
4238.78	0.5177	3.14331e-05
4239.28	0.517761	0.00163635
4239.76	0.00072937	0.00406433
4240.22	0.517212	2.82593e-05
4240.72	0.516815	0.000313812
4241.2	-0.000436401	0.00285431
4241.66	0.518097	1.88904e-05
4242.16	0.516754	0.000124481
4242.66	0.516663	0.0155457
4243.1	0.518097	1.49231e-05
4243.6	0.517792	6.31714e-05
4244.1	0.517242	0.0120209
4244.56	-0.697449	-0.0243134
4245.04	0.518158	3.98865e-05
4245.54	0.516632	0.00881042
4246	-0.698578	-0.0196136
4246.48	0.516785	3.82996e-05
4246.98	0.516968	0.00165131
4247.46	-0.000387573	0.0040686
4247.92	0.518066	2.33154e-05
4248.42	0.517487	0.000309814
4248.9	0.000405884	0.00284363
4249.36	0.516846	2.75269e-05
4249.86	0.516815	0.000124268
4250.36	0.517395	0.0155426
4250.8	0.51767	1.86157e-05
4251.3	0.517914	6.13403e-05
4251.8	0.516632	0.0120331
4252.26	-0.698303	-0.0243042
4252.74	0.517822	4.19617e-05
4253.24	0.516571	0.00881348
4253.7	-0.698822	-0.0196136
4254.18	0.516876	3.77197e-05
4254.68	0.517487	0.00166138
4255.16	0.000198364	0.00405731
4255.62	0.516663	3.10974e-05
4256.12	0.517456	0.000312988
4256.6	0.000582886	0.00283905
4257.06	0.517548	2.26746e-05
4257.56	0.517059	0.000124969
4258.06	0.517273	0.0155457
4258.5	0.516846	2.47192e-05
4259	0.518097	6.13098e-05
4259.5	0.517334	0.0120209
4259.96	-0.698029	-0.0243164
4260.44	0.5177	4.22363e-05
4260.94	0.517456	0.00880432
4261.4	-0.697449	-0.0196289
4261.88	0.516754	3.77502e-05
4262.38	0.517639	0.00167664
4262.86	0.0006073	0.00404297
4263.32	0.518066	2.23999e-05
4263.82	0.517395	0.00031604
4264.3	0.00083313	0.00282898
4264.76	0.516937	2.6001e-05
4265.26	0.517853	0.000119507
4265.76	0.516693	0.0155487
4266.2	0.517395	2.04773e-05
4266.7	0.517609	6.46057e-05
4267.2	0.516266	0.0120331
4267.66	-0.698364	-0.0243225
4268.14	0.517181	4.70581e-05
4268.64	0.517517	0.00881653
4269.1	-0.698853	-0.019635
4269.58	0.518127	2.93884e-05
4270.08	0.516876	0.00170105
4270.56	0.000772095	0.00403778
4271.02	0.518097	2.49939e-05
4271.52	0.516785	0.000320801
4272	0.000738525	0.00282562
4272.46	0.518066	1.97449e-05
4272.96	0.516785	0.000127014
4273.46	0.516266	0.0155518
4273.9	0.517548	2.02637e-05
4274.4	0.518005	6.26831e-05
4274.9	0.517487	0.012027
4275.36	-0.698486	-0.0243195
4275.84	0.518127	4.01611e-05
4276.34	0.516449	0.00882568
4276.8	-0.69812	-0.0196472
4277.28	0.518188	2.96326e-05
4277.78	0.517181	0.00171265
4278.26	1.83105e-05	0.004039
4278.72	0.516785	3.14941e-05
4279.22	0.518158	0.000314178
4279.7	0.000747681	0.00281952
4280.16	0.517303	2.32849e-05
4280.66	0.516907	0.000127106
4281.16	0.517273	0.0155396
4281.6	0.516937	2.39258e-05
4282.1	0.516876	7.1167e-05
4282.6	0.517365	0.0120331
4283.06	-0.69812	-0.0243256
4283.54	0.516998	4.69971e-05
4284.04	0.51651	0.00883179
4284.5	-0.697723	-0.0196472
4284.98	0.518188	2.88391e-05
4285.48	0.518127	0.00171326
4285.96	-0.000128174	0.00403198
4286.42	0.517181	3.02124e-05
4286.92	0.518036	0.000316376
4287.4	0.000299072	0.00282043
4287.86	0.516876	2.79846e-05
4288.36	0.516754	0.00012793
4288.86	0.516876	0.0155365
4289.3	0.518097	1.67236e-05
4289.8	0.517975	6.37512e-05
4290.3	0.516602	0.012027
4290.76	-0.69809	-0.0243256
4291.24	0.516998	4.82788e-05
4291.74	0.516418	0.00883179
4292.2	-0.698914	-0.0196442
4292.68	0.517944	3.21655e-05
4293.18	0.518036	0.00172211
4293.66	-0.00055542	0.0040271
4294.12	0.518097	2.29492e-05
4294.62	0.518066	0.000317322
4295.1	-0.00038147	0.00281982
4295.56	0.517273	2.33765e-05
4296.06	0.518036	0.000118042
4296.56	0.516785	0.0155426
4297	0.517334	2.13928e-05
4297.5	0.518036	6.30188e-05
4298	0.517578	0.0120392
4298.46	-0.698608	-0.0243195
4298.94	0.517517	4.39453e-05
4299.44	0.517639	0.00884399
4299.9	-0.69754	-0.0196533
4300.38	0.518005	3.07922e-05
4300.88	0.517181	0.00173553
4301.36	0.000747681	0.00401672
4301.82	0.517151	2.82593e-05
4302.32	0.517609	0.000321655
4302.8	0.000595093	0.00281281
4303.26	0.517212	2.5177e-05
4303.76	0.517426	0.000126282
4304.26	0.516174	0.0155426
4304.7	0.51767	1.95923e-05
4305.2	0.517822	6.70471e-05
4305.7	0.516785	0.0120331
4306.16	-0.698395	-0.0243195
4306.64	0.516998	4.86145e-05
4307.14	0.516479	0.00884399
4307.6	-0.697388	-0.0196594
4308.08	0.516815	3.79639e-05
4308.58	0.518127	0.00174469
4309.06	-0.000585937	0.00401855
4309.52	0.517059	3.00598e-05
4310.02	0.518188	0.000320526
4310.5	0.000262451	0.00281219
4310.96	0.516907	2.70691e-05
4311.46	0.517975	0.000121185
4311.96	0.517365	0.0155365
4312.4	0.516815	2.47192e-05
4312.9	0.516754	7.30286e-05
4313.4	0.517487	0.0120422
4313.86	-0.697235	-0.0243225
4314.34	0.517944	4.15955e-05
4314.84	0.516907	0.00884094
4315.3	-0.698364	-0.0196533
4315.78	0.51709	3.71399e-05
4316.28	0.517639	0.00175507
4316.76	0.000296021	0.00400421
4317.22	0.518158	2.42004e-05
4317.72	0.517914	0.000323608
4318.2	-0.000442505	0.00280945
4318.66	0.517242	2.40479e-05
4319.16	0.517822	0.000120667
4319.66	0.516907	0.0155426
4320.1	0.518188	1.62354e-05
4320.6	0.517761	6.52161e-05
4321.1	0.516357	0.0120392
4321.56	-0.698425	-0.0243225
4322.04	0.517609	4.39453e-05
4322.54	0.517487	0.00884094
4323	-0.697784	-0.0196716
4323.48	0.516785	3.87878e-05
4323.98	0.51767	0.00177246
4324.46	0.000549316	0.00400085
4324.92	0.516907	3.21655e-05
4325.42	0.516785	0.000333069
4325.9	-0.000476074	0.00280396
4326.36	0.517273	2.27661e-05
4326.86	0.517029	0.000129333
4327.36	0.517212	0.0155334
4327.8	0.516815	2.41699e-05
4328.3	0.517853	6.64978e-05
4328.8	0.5177	0.0120392
4329.26	-0.697296	-0.0243347
4329.74	0.51712	4.86755e-05
4330.24	0.516876	0.00884705
4330.7	-0.698883	-0.0196594
4331.18	0.516968	3.88184e-05
4331.68	0.517944	0.00178162
4332.16	0.000469971	0.0039917
4332.62	0.517181	3.17993e-05
4333.12	0.516785	0.000336334
4333.6	0.000772095	0.00279022
4334.06	0.517456	2.38953e-05
4334.56	0.517731	0.000126923
4335.06	0.516937	0.0155273
4335.5	0.517609	1.90125e-05
4336	0.517029	7.05566e-05
4336.5	0.51767	0.0120483
4336.96	-0.69812	-0.0243286
4337.44	0.517914	4.36401e-05
4337.94	0.51767	0.00885925
4338.4	-0.698944	-0.0196686
4338.88	0.517578	3.29895e-05
4339.38	0.516815	0.00180878
4339.86	0.000271606	0.0039917
4340.32	0.518005	2.56348e-05
4340.82	0.516876	0.000336578
4341.3	0.000512695	0.00278595
4341.76	0.516724	2.73132e-05
4342.26	0.518158	0.000122101
4342.76	0.517181	0.0155334
4343.2	0.517426	2.13928e-05
4343.7	0.517487	6.92749e-05
4344.2	0.516327	0.0120483
4344.66	-0.69754	-0.0243286
4345.14	0.517426	4.66003e-05
4345.64	0.517273	0.0088623
4346.1	-0.697601	-0.0196838
4346.58	0.516876	3.88184e-05
4347.08	0.518127	0.00180969
4347.56	0.000558472	0.00398102
4348.02	0.518158	2.28271e-05
4348.52	0.517883	0.000332581
4349	9.46045e-05	0.00278778
4349.46	0.517517	2.21252e-05
4349.96	0.518005	0.000122437
4350.46	0.517395	0.0155273
4350.9	0.516815	2.45361e-05
4351.4	0.518005	6.5033e-05
4351.9	0.51767	0.0120483
4352.36	-0.698608	-0.0243256
4352.84	0.517181	4.75464e-05
4353.34	0.516602	0.00888062
4353.8	-0.698853	-0.0196747
4354.28	0.517578	3.44849e-05
4354.78	0.518097	0.00182434
4355.26	-0.000439453	0.00397552
4355.72	0.517883	2.49634e-05
4356.22	0.517853	0.000334686
4356.7	0.000143433	0.00278198
4357.16	0.517395	2.58484e-05
4357.66	0.51709	0.000129822
4358.16	0.516724	0.0155243
4358.6	0.517395	2.10571e-05
4359.1	0.516876	7.40967e-05
4359.6	0.516266	0.0120575
4360.06	-0.698334	-0.0243225
4360.54	0.517303	4.68445e-05
4361.04	0.516388	0.00888977
4361.5	-0.697571	-0.0196838
4361.98	0.516785	3.87268e-05
4362.48	0.517853	0.00184204
4362.96	-0.000323486	0.00396759
4363.42	0.517975	2.32544e-05
4363.92	0.516846	0.000342255
4364.4	0.000820923	0.00277008
4364.86	0.517487	2.39868e-05
4365.36	0.518158	0.000124084
4365.86	0.516266	0.0155304
4366.3	0.516876	2.49939e-05
4366.8	0.518005	6.54602e-05
4367.3	0.517578	0.0120483
4367.76	-0.697693	-0.0243317
4368.24	0.516815	5.06287e-05
4368.74	0.517578	0.00888062
4369.2	-0.698853	-0.0196777
4369.68	0.516876	3.78418e-05
4370.18	0.516815	0.0018573
4370.66	0.000689697	0.00396271
4371.12	0.51712	3.00293e-05
4371.62	0.518188	0.000336273
4372.1	0.000238037	0.002771
4372.56	0.517548	2.38342e-05
4373.06	0.517059	0.000132019
4373.56	0.516968	0.0155212
4374	0.516785	2.50244e-05
4374.5	0.517487	6.87866e-05
4375	0.516296	0.0120544
4375.46	-0.697845	-0.0243286
4375.94	0.516907	4.91333e-05
4376.44	0.51709	0.00889587
4376.9	-0.697693	-0.019693
4377.38	0.518188	3.00903e-05
4377.88	0.517944	0.00185638
4378.36	-0.000543213	0.00396179
4378.82	0.51828	2.28271e-05
4379.32	0.517151	0.000344238
4379.8	0.000588989	0.00276794
4380.26	0.516876	2.80151e-05
4380.76	0.516907	0.000134003
4381.26	0.516266	0.0155273
4381.7	0.517975	1.78223e-05
4382.2	0.517975	6.56738e-05
4382.7	0.516968	0.0120636
4383.16	-0.697296	-0.0243317
4383.64	0.518097	4.18701e-05
4384.14	0.517731	0.00888672
4384.6	-0.698975	-0.019693
4385.08	0.517059	3.6377e-05
4385.58	0.517303	0.00186981
4386.06	-0.000628662	0.00396423
4386.52	0.517639	2.7832e-05
4387.02	0.518097	0.000338806
4387.5	0.000427246	0.00276337
4387.96	0.517212	2.45972e-05
4388.46	0.517944	0.000126007
4388.96	0.517426	0.0155212
4389.4	0.516815	2.37122e-05
4389.9	0.517029	7.46155e-05
4390.4	0.516266	0.0120667
4390.86	-0.697632	-0.02435
4391.34	0.51767	4.32434e-05
4391.84	0.516571	0.00890503
4392.3	-0.698761	-0.0196899
4392.78	0.516754	3.98254e-05
4393.28	0.517242	0.00187836
4393.76	0.000772095	0.00395416
4394.22	0.517883	2.76794e-05
4394.72	0.516846	0.000348633
4395.2	0.00083313	0.00275909
4395.66	0.516937	2.76184e-05
4396.16	0.517456	0.00013092
4396.66	0.517365	0.0155212
4397.1	0.516968	2.31628e-05
4397.6	0.516907	7.34558e-05
4398.1	0.516296	0.0120605
4398.56	-0.697266	-0.0243439
4399.04	0.518158	4.26025e-05
4399.54	0.516541	0.00889587
4400	-0.698303	-0.019696
4400.48	0.517944	3.20129e-05
4400.98	0.516998	0.00189026
4401.46	0.000402832	0.00394714
4401.92	0.517761	2.59399e-05
4402.42	0.518097	0.000342651
4402.9	-6.40869e-05	0.0027597
4403.36	0.518066	2.13318e-05
4403.86	0.516937	0.000134796
4404.36	0.516052	0.0155304
4404.8	0.516907	2.40173e-05
4405.3	0.517944	6.604e-05
4405.8	0.517639	0.0120544
4406.26	-0.697449	-0.02435
4406.74	0.517059	4.91638e-05
4407.24	0.517242	0.00890808
4407.7	-0.698547	-0.0197021
4408.18	0.517334	3.61328e-05
4408.68	0.51709	0.00190155
4409.16	0.000738525	0.00394257
4409.62	0.518158	2.30103e-05
4410.12	0.518036	0.000345612
4410.6	0.000756836	0.00275024
4411.06	0.516846	2.76794e-05
4411.56	0.516998	0.000135498
4412.06	0.516815	0.0155273
4412.5	0.517303	2.11182e-05
4413	0.517273	7.36084e-05
4413.5	0.517609	0.0120544
4413.96	-0.697784	-0.0243469
4414.44	0.517944	4.54712e-05
4414.94	0.516479	0.00891724
4415.4	-0.698151	-0.0197083
4415.88	0.518005	3.08228e-05
4416.38	0.51767	0.00191437
4416.86	0.000527954	0.00393402
4417.32	0.516785	3.27759e-05
4417.82	0.518127	0.000345795
4418.3	-0.00043335	0.00275635
4418.76	0.517639	2.02942e-05
4419.26	0.516968	0.000134644
4419.76	0.517334	0.015509
4420.2	0.517731	1.80054e-05
4420.7	0.51712	7.3822e-05
4421.2	0.516205	0.0120636
4421.66	-0.698364	-0.0243378
4422.14	0.517944	4.28772e-05
4422.64	0.517548	0.00890808
4423.1	-0.697601	-0.0197266
4423.58	0.516846	3.83301e-05
4424.08	0.518127	0.00193451
4424.56	-0.000137329	0.00393402
4425.02	0.518066	2.35291e-05
4425.52	0.517975	0.000349854
4426	0.00055542	0.00274567
4426.46	0.516815	2.83203e-05
4426.96	0.518036	0.000130646
4427.46	0.516632	0.015509
4427.9	0.517365	2.21558e-05
4428.4	0.517212	7.09839e-05
4428.9	0.517395	0.0120605
4429.36	-0.698486	-0.0243561
4429.84	0.517273	4.599e-05
4430.34	0.51709	0.00891724
4430.8	-0.698761	-0.0197235
4431.28	0.516846	3.89404e-05
4431.78	0.518005	0.0019574
4432.26	-0.000488281	0.00392975
4432.72	0.516907	3.08533e-05
4433.22	0.518127	0.000351959
4433.7	0.000231934	0.00274323
4434.16	0.518158	1.73035e-05
4434.66	0.517365	0.00013678
4435.16	0.517395	0.015509
4435.6	0.517365	1.99585e-05
4436.1	0.516907	7.43408e-05
4436.6	0.516418	0.0120636
4437.06	-0.69751	-0.0243591
4437.54	0.518066	4.29993e-05
4438.04	0.51651	0.00892334
4438.5	-0.698059	-0.0197327
4438.98	0.518066	2.92053e-05
4439.48	0.516968	0.00197296
4439.96	-0.000219727	0.00392365
4440.42	0.516785	3.24402e-05
4440.92	0.517181	0.00036026
4441.4	-0.000323486	0.00274231
4441.86	0.517792	2.02942e-05
4442.36	0.517517	0.000134827
4442.86	0.517181	0.0155121
4443.3	0.51709	2.15454e-05
4443.8	0.517609	7.2113e-05
4444.02	0.516846	2.3468e-05