File: Edgar/20230626/20230626/electrodeposition_prussian_blue/electrodeposition_sample_D/CP_data_2
Time (s)	WE(1).Potential (V)	WE(1).Current (A)
71.2827	0.793152	8.04443e-05
71.3827	0.793152	7.95593e-05
71.4827	0.793457	7.95898e-05
71.5827	0.793457	7.97119e-05
71.6827	0.793762	7.97119e-05
71.7827	0.793762	7.95593e-05
71.8827	0.794067	7.95593e-05
71.9827	0.794067	8.03223e-05
72.0827	0.794067	8.02612e-05
72.1827	0.794373	8.03528e-05
72.2827	0.794373	8.03833e-05
72.3827	0.794678	8.04443e-05
72.4827	0.794678	8.02002e-05
72.5827	0.794678	8.01086e-05
72.6827	0.794983	7.97424e-05
72.7827	0.794983	7.96814e-05
72.8827	0.794983	7.99561e-05
72.9827	0.795288	7.95593e-05
73.0827	0.795288	7.95593e-05
73.1827	0.795288	7.95288e-05
73.2827	0.795593	8.00171e-05
73.3827	0.795593	7.97119e-05
73.4827	0.795593	8.02307e-05
73.5827	0.795898	8.02612e-05
73.6827	0.795898	8.02917e-05
73.7827	0.795898	8.02917e-05
73.8827	0.796204	8.03223e-05
73.9827	0.796204	8.02612e-05
74.0827	0.796204	7.9834e-05
74.1827	0.796509	8.02002e-05
74.2827	0.796509	8.02917e-05
74.3827	0.796509	7.9895e-05
74.4827	0.796814	7.99255e-05
74.5827	0.796814	7.99561e-05
74.6827	0.796814	7.95593e-05
74.7827	0.797119	7.96814e-05
74.8827	0.797119	7.97424e-05
74.9827	0.797119	7.96204e-05
75.0827	0.797424	7.97424e-05
75.1827	0.797424	8.03528e-05
75.2827	0.797424	7.95898e-05
75.3827	0.797424	7.95898e-05
75.4827	0.797729	7.95593e-05
75.5827	0.797729	7.95898e-05
75.6827	0.797729	7.99866e-05
75.7827	0.798035	8.00781e-05
75.8827	0.798035	7.95898e-05
75.9827	0.798035	7.95288e-05
76.0827	0.79834	7.95898e-05
76.1827	0.79834	7.95593e-05
76.2827	0.79834	7.96509e-05
76.3827	0.79834	7.96204e-05
76.4827	0.798645	7.95898e-05
76.5827	0.798645	7.95898e-05
76.6827	0.798645	7.95898e-05
76.7827	0.79895	7.96814e-05
76.8827	0.79895	7.95898e-05
76.9827	0.79895	7.97119e-05
77.0827	0.799255	7.95898e-05
77.1827	0.799255	7.96814e-05
77.2827	0.799255	7.96509e-05
77.3827	0.799255	7.97729e-05
77.4827	0.799561	7.96509e-05
77.5827	0.799561	7.95898e-05
77.6827	0.799561	7.96814e-05
77.7827	0.799561	7.97119e-05
77.8827	0.799866	8.01086e-05
77.9827	0.799866	7.95288e-05
78.0827	0.799866	7.96204e-05
78.1827	0.800171	7.99255e-05
78.2827	0.800171	8.01392e-05
78.3827	0.800171	8.02917e-05
78.4827	0.800171	7.96204e-05
78.5827	0.800476	7.95288e-05
78.6827	0.800476	7.9834e-05
78.7827	0.800476	8.03833e-05
78.8827	0.800781	8.03528e-05
78.9827	0.800781	8.02917e-05
79.0827	0.800781	7.94678e-05
79.1827	0.800781	7.98035e-05
79.2827	0.801086	8.03528e-05
79.3827	0.801086	8.02307e-05
79.4827	0.801392	7.98035e-05
79.5827	0.801392	7.97119e-05
79.6827	0.801392	7.97119e-05
79.7827	0.801392	8.03223e-05
79.8827	0.801392	7.96814e-05
79.9827	0.801697	7.96204e-05
80.0827	0.801697	7.97729e-05
80.1827	0.801697	8.04749e-05
80.2827	0.801697	8.00781e-05
80.3827	0.801697	7.96204e-05
80.4827	0.802002	7.96814e-05
80.5827	0.802002	8.02917e-05
80.6827	0.802002	8.02917e-05
80.7827	0.802307	8.04138e-05
80.8827	0.802307	7.95593e-05
80.9827	0.802307	7.97729e-05
81.0827	0.802307	8.03528e-05
81.1827	0.802612	8.02917e-05
81.2827	0.802612	8.02612e-05
81.3827	0.802612	7.98035e-05
81.4827	0.802917	7.96814e-05
81.5827	0.802612	8.03223e-05
81.6827	0.802917	8.03833e-05
81.7827	0.802917	7.95593e-05
81.8827	0.802917	8.01086e-05
81.9827	0.802917	8.00476e-05
82.0827	0.802917	8.03223e-05
82.1827	0.803223	8.03833e-05
82.2827	0.803223	7.99255e-05
82.3827	0.803223	7.98645e-05
82.4827	0.803223	8.03528e-05
82.5827	0.803833	8.03833e-05
82.6827	0.803833	8.03833e-05
82.7827	0.803223	8.00171e-05
82.8827	0.803528	7.94983e-05
82.9827	0.803833	7.94983e-05
83.0827	0.803223	8.03833e-05
83.1827	0.803528	8.03833e-05
83.2827	0.803833	8.02307e-05
83.3827	0.803223	7.97729e-05
83.4827	0.803528	8.01392e-05
83.5827	0.803833	8.02612e-05
83.6827	0.803528	8.02612e-05
83.7827	0.803833	8.02307e-05
83.8827	0.804138	7.97729e-05
83.9827	0.803833	7.94983e-05
84.0827	0.804138	8.02917e-05
84.1827	0.804138	8.00781e-05
84.2827	0.804138	8.02307e-05
84.3827	0.804443	8.02917e-05
84.4827	0.804443	7.97119e-05
84.5827	0.804443	8.00171e-05
84.6827	0.804443	8.04138e-05
84.7827	0.804749	8.02612e-05
84.8827	0.804749	8.01392e-05
84.9827	0.804749	7.98035e-05
85.0827	0.805054	7.95593e-05
85.1827	0.805054	8.03223e-05
85.2827	0.805054	7.96814e-05
85.3827	0.805054	7.99255e-05
85.4827	0.805054	8.00476e-05
85.5827	0.805054	7.96204e-05
85.6827	0.805359	7.98035e-05
85.7827	0.805359	7.9834e-05
85.8827	0.805359	7.96814e-05
85.9827	0.805664	7.98645e-05
86.0827	0.805664	7.99255e-05
86.1827	0.805664	7.97424e-05
86.2827	0.805664	7.96204e-05
86.3827	0.805664	7.96509e-05
86.4827	0.805664	7.96204e-05
86.5827	0.805969	7.97119e-05
86.6827	0.805969	7.97729e-05
86.7827	0.805969	7.95288e-05
86.8827	0.806274	7.95898e-05
86.9827	0.805969	7.97424e-05
87.0827	0.805969	8.02612e-05
87.1827	0.806274	7.99561e-05
87.2827	0.806274	7.96814e-05
87.3827	0.80658	7.95898e-05
87.4827	0.80658	8.00171e-05
87.5827	0.805969	7.97119e-05
87.6827	0.806274	7.9834e-05
87.7827	0.80658	7.99866e-05
87.8827	0.805664	7.94678e-05
87.9827	0.806274	7.96509e-05
88.0827	0.805969	8.00476e-05
88.1827	0.805969	7.9895e-05
88.2827	0.806274	8.02612e-05
88.3827	0.80658	8.02002e-05
88.4827	0.806274	7.9834e-05
88.5827	0.804138	8.03528e-05
88.6827	0.805969	8.02612e-05
88.7827	0.803528	8.04138e-05
88.8827	0.805664	8.02917e-05
88.9827	0.804138	8.02917e-05
89.0827	0.805664	7.95898e-05
89.1827	0.802917	8.03833e-05
89.2827	0.805664	8.03223e-05
89.3827	0.804138	8.03223e-05
89.4827	0.805359	8.03833e-05
89.5827	0.805969	7.95898e-05
89.6827	0.805054	7.95288e-05
89.7827	0.805359	8.01697e-05
89.8827	0.806274	8.02612e-05
89.9827	0.805664	8.02612e-05
90.0827	0.801697	7.99866e-05
90.1827	0.805054	7.98035e-05
90.2827	0.801697	8.02612e-05
90.3827	0.803833	8.01697e-05
90.4827	0.804749	8.03223e-05
90.5827	0.803833	8.03223e-05
90.6827	0.804138	8.00781e-05
90.7827	0.805054	8.00476e-05
90.8827	0.804749	8.03528e-05
90.9827	0.805359	8.02612e-05
91.0827	0.804749	8.03223e-05
91.1827	0.805664	8.03223e-05
91.2827	0.804138	8.00781e-05
91.3827	0.805969	8.02612e-05
91.4827	0.804138	8.03833e-05
91.5827	0.805054	8.02612e-05
91.6827	0.804749	8.03223e-05
91.7827	0.805664	8.02307e-05
91.8827	0.804138	7.99561e-05
91.9827	0.804749	8.03833e-05
92.0827	0.805359	8.03223e-05
92.1827	0.804749	8.02612e-05
92.2827	0.805054	8.02917e-05
92.3827	0.805054	7.95288e-05
92.4827	0.805664	7.95288e-05
92.5827	0.803528	8.03833e-05
92.6827	0.805664	8.02612e-05
92.7827	0.803833	8.03223e-05
92.8827	0.805969	8.02612e-05
92.9827	0.803833	7.99561e-05
93.0827	0.805969	8.03528e-05
93.1827	0.804749	8.03223e-05
93.2827	0.805969	8.03528e-05
93.3827	0.805359	8.03528e-05
93.4827	0.805664	7.99255e-05
93.5827	0.806274	8.03528e-05
93.6827	0.805969	8.02307e-05
93.7827	0.80658	8.03223e-05
93.8827	0.805054	8.03223e-05
93.9827	0.80658	8.03223e-05
94.0827	0.805054	8.00476e-05
94.1827	0.805054	7.99561e-05
94.2827	0.806274	8.03223e-05
94.3827	0.803528	8.03833e-05
94.4827	0.806274	8.04138e-05
94.5827	0.802307	8.03833e-05
94.6827	0.805664	7.95593e-05
94.7827	0.804749	7.98645e-05
94.8827	0.805969	8.03528e-05
94.9827	0.802917	8.04138e-05
95.0827	0.805054	8.03528e-05
95.1827	0.806274	7.94983e-05
95.2827	0.802612	7.94983e-05
95.3827	0.80658	7.98035e-05
95.4827	0.803528	8.04443e-05
95.5827	0.805969	8.03528e-05
95.6827	0.803833	8.03223e-05
95.7827	0.805054	7.94983e-05
95.8827	0.802612	7.9895e-05
95.9827	0.802917	8.04138e-05
96.0827	0.805359	8.04138e-05
96.1827	0.801392	8.02612e-05
96.2827	0.805664	7.94373e-05
96.3827	0.801086	7.94678e-05
96.4827	0.805359	8.02612e-05
96.5827	0.800781	8.03833e-05
96.6827	0.805359	8.03528e-05
96.7827	0.801086	8.03528e-05
96.8827	0.803528	7.9895e-05
96.9827	0.804138	7.96509e-05
97.0827	0.799255	8.01392e-05
97.1827	0.805359	8.03223e-05
97.2827	0.800171	8.03223e-05
97.3827	0.805664	8.00476e-05
97.4827	0.800476	8.03833e-05
97.5827	0.804443	7.9834e-05
97.6827	0.803528	8.03223e-05
97.7827	0.802917	8.03223e-05
97.8827	0.805664	8.02917e-05
97.9827	0.801392	8.03223e-05
98.0827	0.804749	7.96814e-05
98.1827	0.805359	7.9895e-05
98.2827	0.803528	8.04138e-05
98.3827	0.806274	8.03833e-05
98.4827	0.803223	8.03223e-05
98.5827	0.805664	8.03223e-05
98.6827	0.801697	7.96204e-05
98.7827	0.803528	7.9895e-05
98.8827	0.805359	8.03833e-05
98.9827	0.803528	8.03833e-05
99.0827	0.806274	7.97729e-05
99.1827	0.802917	7.95288e-05
99.2827	0.805664	7.95288e-05
99.3827	0.801392	7.96204e-05
99.4827	0.803528	8.01697e-05
99.5827	0.806274	8.03833e-05
99.6827	0.800781	7.94983e-05
99.7827	0.805054	7.94983e-05
99.8827	0.797729	7.96814e-05
99.9827	0.805054	7.9834e-05
100.083	0.799255	8.03528e-05
100.183	0.804138	7.98035e-05
100.283	0.803223	7.9895e-05
100.383	0.799561	7.94983e-05
100.483	0.805054	7.95288e-05
100.583	0.801392	8.00476e-05
100.683	0.804749	8.03528e-05
100.783	0.804138	7.9895e-05
100.883	0.803223	7.95593e-05
100.983	0.805664	7.94983e-05
101.083	0.803833	7.96509e-05
101.183	0.805969	7.99561e-05
101.283	0.802002	8.03833e-05
101.383	0.805969	8.04443e-05
101.483	0.802002	7.95898e-05
101.583	0.804443	7.95288e-05
101.683	0.806274	7.95593e-05
101.783	0.802917	7.9834e-05
101.883	0.805359	7.96509e-05
101.983	0.803833	7.9834e-05
102.083	0.800476	7.97424e-05
102.183	0.805054	7.94983e-05
102.283	0.803833	7.95288e-05
102.383	0.802917	7.98035e-05
102.483	0.805969	7.95288e-05
102.583	0.801697	7.98035e-05
102.683	0.805359	7.99866e-05
102.783	0.804749	7.95288e-05
102.883	0.804749	7.95593e-05
102.983	0.806274	7.99866e-05
103.083	0.804749	8.02002e-05
103.183	0.806274	8.00476e-05
103.283	0.804749	7.97729e-05
103.383	0.806274	7.95593e-05
103.483	0.803528	7.96814e-05
103.583	0.805359	8.04443e-05
103.683	0.80719	7.95898e-05
103.783	0.804443	7.96814e-05
103.883	0.806274	7.97119e-05
103.983	0.80658	7.95593e-05
104.083	0.806274	8.03833e-05
104.183	0.806274	8.05054e-05
104.283	0.806885	7.9834e-05
104.383	0.805664	7.98035e-05
104.483	0.806885	7.95593e-05
104.583	0.805664	7.94983e-05
104.683	0.80719	8.04443e-05
104.783	0.805969	7.97729e-05
104.883	0.805359	8.01697e-05
104.983	0.8078	8.02002e-05
105.083	0.806274	7.9895e-05
105.183	0.80719	7.95593e-05
105.283	0.806885	7.95898e-05
105.383	0.805664	8.03528e-05
105.483	0.807495	8.02917e-05
105.583	0.807495	8.03223e-05
105.683	0.805969	8.00781e-05
105.783	0.807495	7.95288e-05
105.883	0.806885	8.02917e-05
105.983	0.8078	8.04138e-05
106.083	0.807495	8.02917e-05
106.183	0.808105	8.03833e-05
106.283	0.808105	8.02002e-05
106.383	0.807495	8.03223e-05
106.483	0.808411	8.04138e-05
106.583	0.807495	8.04138e-05
106.683	0.808411	8.04138e-05
106.783	0.8078	8.03833e-05
106.883	0.808411	7.96509e-05
106.983	0.808716	8.00476e-05
107.083	0.80719	8.01086e-05
107.183	0.809021	7.9834e-05
107.283	0.80719	7.99255e-05
107.383	0.808716	8.02612e-05
107.483	0.808105	7.95288e-05
107.583	0.80658	7.96509e-05
107.683	0.809326	7.97119e-05
107.783	0.80719	7.97119e-05
107.883	0.808411	7.96509e-05
107.983	0.80719	7.9895e-05
108.083	0.80719	7.94983e-05
108.183	0.809021	7.96204e-05
108.283	0.8078	7.96509e-05
108.383	0.803223	7.95288e-05
108.483	0.808716	7.96204e-05
108.583	0.80658	8.03223e-05
108.683	0.804749	7.94983e-05
108.783	0.809631	7.96814e-05
108.883	0.804138	7.95898e-05
108.983	0.8078	7.95593e-05
109.083	0.807495	8.00781e-05
109.183	0.806274	8.03833e-05
109.283	0.809021	7.94983e-05
109.383	0.80719	7.95593e-05
109.483	0.808411	7.95593e-05
109.583	0.805664	7.95288e-05
109.683	0.8078	7.94983e-05
109.783	0.809326	7.98035e-05
109.883	0.808411	7.95288e-05
109.983	0.808411	7.95288e-05
110.083	0.809326	7.94678e-05
110.183	0.807495	7.95288e-05
110.283	0.809021	7.95898e-05
110.383	0.809021	8.02307e-05
110.483	0.806274	7.96204e-05
110.583	0.809631	7.97729e-05
110.683	0.808716	7.99255e-05
110.783	0.807495	8.04749e-05
110.883	0.809937	8.04749e-05
110.983	0.80658	8.04138e-05
111.083	0.809631	8.01697e-05
111.183	0.8078	7.98645e-05
111.283	0.807495	7.97119e-05
111.383	0.809937	8.00171e-05
111.483	0.808105	8.04443e-05
111.583	0.80719	8.03223e-05
111.683	0.810242	8.02917e-05
111.783	0.80719	8.00476e-05
111.883	0.806885	7.97729e-05
111.983	0.809021	7.96509e-05
112.083	0.804443	8.04138e-05
112.183	0.8078	8.03223e-05
112.283	0.806274	7.99561e-05
112.383	0.802612	8.00171e-05
112.483	0.808105	7.96814e-05
112.583	0.805664	8.01086e-05
112.683	0.802002	8.04138e-05
112.783	0.808105	8.02307e-05
112.883	0.804443	7.9834e-05
112.983	0.803223	7.95593e-05
113.083	0.809326	7.94983e-05
113.183	0.806274	8.03833e-05
113.283	0.805054	8.03528e-05
113.383	0.809021	7.99866e-05
113.483	0.804443	8.01086e-05
113.583	0.805664	7.95898e-05
113.683	0.809021	8.02917e-05
113.783	0.804443	8.03528e-05
113.883	0.805359	8.02612e-05
113.983	0.806274	8.02002e-05
114.083	0.799561	7.95288e-05
114.183	0.806274	8.01086e-05
114.283	0.804749	8.02612e-05
114.383	0.798645	8.04443e-05
114.483	0.807495	8.00171e-05
114.583	0.804443	7.97424e-05
114.683	0.804749	8.04138e-05
114.783	0.808105	8.02307e-05
114.883	0.803528	8.04138e-05
114.983	0.804749	8.04443e-05
115.083	0.804749	8.01392e-05
115.183	0.801086	7.97119e-05
115.283	0.805664	8.04443e-05
115.383	0.804138	8.00476e-05
115.483	0.795288	8.03528e-05
115.583	0.806274	8.04749e-05
115.683	0.802917	8.01086e-05
115.783	0.802917	7.97729e-05
115.883	0.807495	7.96204e-05
115.983	0.804138	7.9895e-05
116.083	0.802612	8.02307e-05
116.183	0.806885	8.02612e-05
116.283	0.798645	8.00171e-05
116.383	0.803833	7.94983e-05
116.483	0.803528	7.99561e-05
116.583	0.796509	8.02307e-05
116.683	0.805054	8.03223e-05
116.783	0.801392	8.02917e-05
116.883	0.796204	7.94373e-05
116.983	0.805969	7.96509e-05
117.083	0.803223	7.97119e-05
117.183	0.798645	8.00476e-05
117.283	0.806274	8.04138e-05
117.383	0.799255	8.04138e-05
117.483	0.803528	8.02307e-05
117.583	0.802917	7.95898e-05
117.683	0.797119	7.96204e-05
117.783	0.804443	7.96509e-05
117.883	0.801392	8.03833e-05
117.983	0.799866	8.03528e-05
118.083	0.80658	8.04443e-05
118.183	0.803223	7.94983e-05
118.283	0.804138	7.95288e-05
118.383	0.802917	7.96814e-05
118.483	0.802917	8.01697e-05
118.583	0.805969	7.97729e-05
118.683	0.804138	7.95288e-05
118.783	0.805359	7.95288e-05
118.883	0.804443	7.95593e-05
118.983	0.803223	7.99255e-05
119.083	0.804749	8.03528e-05
119.183	0.803528	7.94983e-05
119.283	0.797729	7.95288e-05
119.383	0.805359	7.95593e-05
119.483	0.802307	7.95288e-05
119.583	0.795593	7.95898e-05
119.683	0.804749	7.97119e-05
119.783	0.800781	7.95288e-05
119.883	0.801697	7.94983e-05
119.983	0.806274	7.95288e-05
120.083	0.798645	7.95898e-05
120.183	0.801392	7.9834e-05
120.283	0.804443	8.02917e-05
120.383	0.791931	7.95288e-05
120.483	0.803528	7.95898e-05
120.583	0.801697	7.95593e-05
120.683	0.796204	7.96509e-05
120.783	0.803528	8.04138e-05
120.883	0.800781	8.04443e-05
120.983	0.803833	7.95898e-05
121.083	0.802307	7.95288e-05
121.183	0.804443	7.94983e-05
121.283	0.800171	7.9834e-05
121.383	0.800781	8.03528e-05
121.483	0.803833	7.95288e-05
121.583	0.800171	7.95288e-05
121.683	0.79895	7.95593e-05
121.783	0.804443	7.95898e-05
121.883	0.800476	8.04138e-05
121.983	0.797119	8.03528e-05
122.083	0.804443	7.94983e-05
122.183	0.79895	7.95288e-05
122.283	0.794678	7.95593e-05
122.383	0.804443	7.96204e-05
122.483	0.798645	7.96814e-05
122.583	0.799866	7.94678e-05
122.683	0.805664	7.95593e-05
122.783	0.799561	7.96814e-05
122.883	0.801086	7.95593e-05
122.983	0.802612	7.96509e-05
123.083	0.793457	7.95593e-05
123.183	0.802307	7.96509e-05
123.283	0.801392	7.96814e-05
123.383	0.801086	7.97729e-05
123.483	0.803528	7.97424e-05
123.583	0.802307	8.03528e-05
123.683	0.802002	8.03528e-05
123.783	0.803528	7.99561e-05
123.883	0.795288	8.02307e-05
123.983	0.800171	8.02917e-05
124.083	0.801697	7.9834e-05
124.183	0.794678	8.05054e-05
124.283	0.801392	8.03223e-05
124.383	0.797119	8.03833e-05
124.483	0.788269	8.03833e-05
124.583	0.802307	8.03833e-05
124.683	0.79834	7.94678e-05
124.783	0.799866	7.98035e-05
124.883	0.802917	8.03223e-05
124.983	0.798645	8.00781e-05
125.083	0.800781	8.02612e-05
125.183	0.803528	8.03833e-05
125.283	0.797729	7.95593e-05
125.383	0.799561	8.01392e-05
125.483	0.802612	7.96814e-05
125.583	0.795898	7.97424e-05
125.683	0.801392	7.97119e-05
125.783	0.799866	8.03223e-05
125.883	0.796204	7.99866e-05
125.983	0.801392	7.99561e-05
126.083	0.802612	7.97424e-05
126.183	0.799866	7.96509e-05
126.283	0.802307	7.97424e-05
126.383	0.802917	8.04443e-05
126.483	0.79895	7.95898e-05
126.583	0.802002	7.96814e-05
126.683	0.802307	7.95288e-05
126.783	0.802917	7.94983e-05
126.883	0.801086	8.05969e-05
126.983	0.803528	8.04443e-05
127.083	0.804138	7.95288e-05
127.183	0.799561	7.95593e-05
127.283	0.803528	7.95288e-05
127.383	0.803528	7.95593e-05
127.483	0.800781	7.94678e-05
127.583	0.802917	7.95593e-05
127.683	0.804138	7.95288e-05
127.783	0.799255	7.95898e-05
127.883	0.800476	7.95288e-05
127.983	0.803833	7.96204e-05
128.083	0.79834	7.95898e-05
128.183	0.802612	7.95593e-05
128.283	0.803833	7.95593e-05
128.383	0.799561	7.95288e-05
128.483	0.802917	7.94983e-05
128.583	0.804749	8.04749e-05
128.683	0.797729	8.04443e-05
128.783	0.802612	7.94373e-05
128.883	0.802307	7.94678e-05
128.983	0.799255	7.95593e-05
129.083	0.803833	7.93457e-05
129.183	0.799866	8.0719e-05
129.283	0.801086	7.92542e-05
129.383	0.804443	7.91931e-05
129.483	0.801086	7.9071e-05
129.583	0.802307	7.91321e-05
129.683	0.804443	7.93762e-05
129.783	0.800171	8.01086e-05
129.883	0.802307	7.92236e-05
129.983	0.804749	7.91931e-05
130.083	0.797729	7.91016e-05
130.183	0.803223	7.91931e-05
130.283	0.803223	7.91626e-05
130.383	0.799255	7.97424e-05
130.483	0.802917	7.91321e-05
130.583	0.804138	7.91931e-05
130.683	0.796509	7.95593e-05
130.783	0.802917	7.90405e-05
130.883	0.79834	7.90405e-05
130.983	0.797424	8.05359e-05
131.083	0.804443	8.02917e-05
131.183	0.79834	8.01697e-05
131.283	0.801086	8.03223e-05
131.383	0.804443	8.0719e-05
131.483	0.800476	8.08716e-05
131.583	0.801392	8.08716e-05
131.683	0.803223	8.08411e-05
131.783	0.79895	8.09326e-05
131.883	0.802307	8.06274e-05
131.983	0.801086	8.10547e-05
132.083	0.798035	8.05969e-05
132.183	0.802612	8.09326e-05
132.283	0.802307	8.0719e-05
132.383	0.797424	8.07495e-05
132.483	0.803223	7.901e-05
132.583	0.802612	7.9071e-05
132.683	0.797729	7.99255e-05
132.783	0.803528	8.00781e-05
132.883	0.803528	8.01086e-05
132.983	0.79834	8.03833e-05
133.083	0.803223	7.91931e-05
133.183	0.802612	7.89795e-05
133.283	0.798645	7.91626e-05
133.383	0.801697	7.94983e-05
133.483	0.803223	7.91321e-05
133.583	0.801086	8.09937e-05
133.683	0.801697	8.08716e-05
133.783	0.803833	7.8949e-05
133.883	0.803528	7.901e-05
133.983	0.801086	7.91931e-05
134.083	0.803223	7.92542e-05
134.183	0.803223	8.12378e-05
134.283	0.801697	8.04443e-05
134.383	0.802307	7.89795e-05
134.483	0.804138	7.87964e-05
134.583	0.800171	7.88574e-05
134.683	0.802002	7.92542e-05
134.783	0.804443	7.93762e-05
134.883	0.798035	8.05359e-05
134.983	0.800476	7.93457e-05
135.083	0.803833	7.87964e-05
135.183	0.799866	7.87354e-05
135.283	0.801086	7.86743e-05
135.383	0.804138	8.09937e-05
135.483	0.802307	7.98645e-05
135.583	0.800171	7.88269e-05
135.683	0.804138	7.87354e-05
135.783	0.803223	7.88879e-05
135.883	0.799255	7.87659e-05
135.983	0.803833	8.11462e-05
136.083	0.800171	8.00781e-05
136.183	0.79895	7.88879e-05
136.283	0.804138	7.89185e-05
136.383	0.800171	7.87659e-05
136.483	0.79895	8.11157e-05
136.583	0.803833	8.09021e-05
136.683	0.79834	7.91016e-05
136.783	0.79895	7.87659e-05
136.883	0.804138	7.87964e-05
136.983	0.798645	7.97424e-05
137.083	0.799866	8.11462e-05
137.183	0.804138	7.98035e-05
137.283	0.799866	7.87659e-05
137.383	0.799866	7.87048e-05
137.483	0.804443	7.9895e-05
137.583	0.797729	8.09631e-05
137.683	0.798645	8.05359e-05
137.783	0.803833	7.89185e-05
137.883	0.796509	7.86438e-05
137.983	0.799866	7.901e-05
138.083	0.803833	8.078e-05
138.183	0.798645	8.10242e-05
138.283	0.800476	7.95288e-05
138.383	0.804138	7.87354e-05
138.483	0.798035	7.87354e-05
138.583	0.802612	8.08716e-05
138.683	0.803223	8.11768e-05
138.783	0.79895	8.08716e-05
138.883	0.802612	7.96204e-05
138.983	0.803528	7.86743e-05
139.083	0.797729	7.90405e-05
139.183	0.802917	8.13293e-05
139.283	0.803833	8.09326e-05
139.383	0.797119	8.04749e-05
139.483	0.801392	7.9071e-05
139.583	0.803833	7.87659e-05
139.683	0.796509	8.12073e-05
139.783	0.800476	8.02917e-05
139.883	0.803528	8.10547e-05
139.983	0.797729	8.09631e-05
140.083	0.800171	7.91016e-05
140.183	0.803528	7.87048e-05
140.283	0.802612	7.92542e-05
140.383	0.800171	8.12073e-05
140.483	0.803528	8.12683e-05
140.583	0.803833	8.10547e-05
140.683	0.798645	8.01392e-05
140.783	0.802917	7.86133e-05
140.883	0.801392	7.90405e-05
140.983	0.79895	8.08105e-05
141.083	0.803223	8.05054e-05
141.183	0.79834	8.12683e-05
141.283	0.798035	8.10242e-05
141.383	0.802612	7.96509e-05
141.483	0.802307	7.94067e-05
141.583	0.796814	7.99561e-05
141.683	0.803223	8.01697e-05
141.783	0.801697	8.12988e-05
141.883	0.797119	8.09021e-05
141.983	0.802917	8.13904e-05
142.083	0.802612	7.87048e-05
142.183	0.797119	7.87354e-05
142.283	0.800781	7.91626e-05
142.383	0.803223	8.12073e-05
142.483	0.796814	8.16956e-05
142.583	0.799561	7.86743e-05
142.683	0.803528	7.86133e-05
142.783	0.796509	7.85828e-05
142.883	0.800781	7.88879e-05
142.983	0.804138	8.10242e-05
143.083	0.796814	7.89185e-05
143.183	0.800171	7.91321e-05
143.283	0.803833	7.98035e-05
143.383	0.797729	7.88574e-05
143.483	0.799255	7.86743e-05
143.583	0.803528	7.87354e-05
143.683	0.795593	7.88574e-05
143.783	0.797119	7.94067e-05
143.883	0.803223	7.95898e-05
143.983	0.796509	7.91321e-05
144.083	0.797729	7.87964e-05
144.183	0.803223	8.09937e-05
144.283	0.794678	8.06885e-05
144.383	0.797424	8.09021e-05
144.483	0.803528	8.0658e-05
144.583	0.796509	7.93457e-05
144.683	0.798035	8.1604e-05
144.783	0.803528	8.15735e-05
144.883	0.796814	8.078e-05
144.983	0.797729	8.09937e-05
145.083	0.802612	8.04138e-05
145.183	0.796814	7.94678e-05
145.283	0.79834	7.97119e-05
145.383	0.802612	8.09631e-05
145.483	0.797119	8.10547e-05
145.583	0.798645	8.13293e-05
145.683	0.802612	8.09021e-05
145.783	0.796509	7.86438e-05
145.883	0.79895	7.87659e-05
145.983	0.801697	8.12683e-05
146.083	0.800781	8.12988e-05
146.183	0.798645	8.13293e-05
146.283	0.802612	8.11157e-05
146.383	0.801697	8.03223e-05
146.483	0.799866	8.13293e-05
146.583	0.802307	8.10547e-05
146.683	0.802612	8.08716e-05
146.783	0.799866	8.02002e-05
146.883	0.801086	8.13599e-05
146.983	0.803223	8.14514e-05
147.083	0.79895	7.94678e-05
147.183	0.800781	7.91016e-05
147.283	0.803223	7.89185e-05
147.383	0.798035	7.93457e-05
147.483	0.799561	7.91931e-05
147.583	0.802917	7.87964e-05
147.683	0.801697	7.86743e-05
147.783	0.799866	7.85522e-05
147.883	0.803528	7.85828e-05
147.983	0.803223	8.00171e-05
148.083	0.799561	7.94678e-05
148.183	0.802917	7.88269e-05
148.283	0.803528	7.88269e-05
148.383	0.799561	7.86438e-05
148.483	0.801392	7.86743e-05
148.583	0.803833	7.94373e-05
148.683	0.79834	7.87659e-05
148.783	0.800171	7.87048e-05
148.883	0.803528	7.90405e-05
148.983	0.798035	8.04749e-05
149.083	0.800171	7.90405e-05
149.183	0.804138	8.14209e-05
149.283	0.797729	8.02002e-05
149.383	0.800476	7.97729e-05
149.483	0.804443	8.05054e-05
149.583	0.797119	8.12378e-05
149.683	0.801697	7.85217e-05
149.783	0.802917	7.96204e-05
149.883	0.79834	8.12988e-05
149.983	0.802612	8.13293e-05
150.083	0.799255	8.12683e-05
150.183	0.798645	8.13904e-05
150.283	0.802917	7.87354e-05
150.383	0.800476	8.13293e-05
150.483	0.797729	8.13599e-05
150.583	0.803833	8.13293e-05
150.683	0.799255	8.12683e-05
150.783	0.796509	8.06885e-05
150.883	0.803223	7.94373e-05
150.983	0.795288	8.08411e-05
151.083	0.797729	8.12988e-05
151.183	0.803223	8.0719e-05
151.283	0.796509	8.10242e-05
151.383	0.798035	8.10852e-05
151.483	0.803223	7.86438e-05
151.583	0.801086	8.01086e-05
151.683	0.796204	7.97424e-05
151.783	0.802612	7.91626e-05
151.883	0.796814	8.11157e-05
151.983	0.796814	8.14819e-05
152.083	0.802917	7.87354e-05
152.183	0.796204	7.87964e-05
152.283	0.79834	7.901e-05
152.383	0.803223	7.88879e-05
152.483	0.797119	7.88574e-05
152.583	0.797119	7.98645e-05
152.683	0.803223	7.87964e-05
152.783	0.796509	7.86438e-05
152.883	0.799866	7.86743e-05
152.983	0.802917	7.87964e-05
153.083	0.796509	7.86438e-05
153.183	0.801392	8.0719e-05
153.283	0.799561	7.90405e-05
153.383	0.795898	7.87354e-05
153.483	0.801697	7.87964e-05
153.583	0.79895	8.04443e-05
153.683	0.794983	8.13599e-05
153.783	0.802002	8.10852e-05
153.883	0.795593	7.98035e-05
153.983	0.795288	7.91321e-05
154.083	0.802917	7.87659e-05
154.183	0.795898	8.14514e-05
154.283	0.799866	8.12073e-05
154.383	0.801392	7.99561e-05
154.483	0.797424	7.8949e-05
154.583	0.800171	7.89795e-05
154.683	0.802002	8.05359e-05
154.783	0.795288	7.95593e-05
154.883	0.801086	8.11462e-05
154.983	0.801697	7.97424e-05
155.083	0.794983	7.901e-05
155.183	0.801086	7.901e-05
155.283	0.801697	7.96814e-05
155.383	0.795593	8.09631e-05
155.483	0.801697	8.11768e-05
155.583	0.798645	8.08411e-05
155.683	0.795593	7.96814e-05
155.783	0.801697	7.91016e-05
155.883	0.797729	7.87354e-05
155.983	0.794983	8.10852e-05
156.083	0.802002	8.10547e-05
156.183	0.795593	8.00476e-05
156.283	0.796509	7.92847e-05
156.383	0.802307	7.87354e-05
156.483	0.795593	8.04138e-05
156.583	0.797424	8.09631e-05
156.683	0.802612	8.09937e-05
156.783	0.795898	8.04138e-05
156.883	0.799255	7.92542e-05
156.983	0.802307	8.05664e-05
157.083	0.794373	7.95898e-05
157.183	0.799866	7.99866e-05
157.283	0.800781	8.08105e-05
157.383	0.794067	8.08105e-05
157.483	0.800781	8.05054e-05
157.583	0.800781	7.90405e-05
157.683	0.794373	7.91626e-05
157.783	0.800781	8.02307e-05
157.883	0.799866	8.09326e-05
157.983	0.793457	8.06885e-05
158.083	0.800171	8.10852e-05
158.183	0.796204	7.89185e-05
158.283	0.792542	7.88879e-05
158.383	0.801086	7.93152e-05
158.483	0.795288	8.00476e-05
158.583	0.795288	7.95898e-05
158.683	0.801086	7.92847e-05
158.783	0.796509	7.93762e-05
158.883	0.794678	7.8949e-05
158.983	0.801086	7.94373e-05
159.083	0.799255	8.02002e-05
159.183	0.794678	7.89185e-05
159.283	0.800476	8.0719e-05
159.383	0.800171	8.03528e-05
159.483	0.795593	7.93152e-05
159.583	0.799866	7.90405e-05
159.683	0.800781	7.90405e-05
159.783	0.794678	8.09326e-05
159.883	0.798035	8.09937e-05
159.983	0.800781	8.09021e-05
160.083	0.794373	7.95898e-05
160.183	0.799866	7.88574e-05
160.283	0.79895	8.02002e-05
160.383	0.796204	8.09631e-05
160.483	0.800476	8.10852e-05
160.583	0.797729	8.10242e-05
160.683	0.794373	8.00171e-05
160.783	0.801086	8.12988e-05
160.883	0.795593	8.08105e-05
160.983	0.796814	8.06885e-05
161.083	0.801086	8.05969e-05
161.183	0.797119	8.11462e-05
161.283	0.79834	8.01392e-05
161.383	0.800781	8.08105e-05
161.483	0.798645	7.99561e-05
161.583	0.79895	8.01392e-05
161.683	0.800781	8.10547e-05
161.783	0.798645	8.11768e-05
161.883	0.799866	7.88879e-05
161.983	0.800171	7.9071e-05
162.083	0.800171	8.02002e-05
162.183	0.799866	8.05054e-05
162.283	0.801697	8.13293e-05
162.383	0.798035	8.12683e-05
162.483	0.800476	7.85217e-05
162.583	0.801392	7.93457e-05
162.683	0.79834	7.89795e-05
162.783	0.799866	7.8949e-05
162.883	0.802002	8.09631e-05
162.983	0.797729	7.8949e-05
163.083	0.79895	7.9895e-05
163.183	0.802307	7.90405e-05
163.283	0.79834	7.91016e-05
163.383	0.79895	8.02002e-05
163.483	0.802002	8.13599e-05
163.583	0.800781	7.9895e-05
163.683	0.79834	7.88574e-05
163.783	0.800171	7.86438e-05
163.883	0.801697	7.87354e-05
163.983	0.797424	7.9834e-05
164.083	0.799561	8.11462e-05
164.183	0.802002	8.13293e-05
164.283	0.799255	7.87048e-05
164.383	0.799255	7.85522e-05
164.483	0.802002	7.87048e-05
164.583	0.801086	7.9895e-05
164.683	0.799561	8.09021e-05
164.783	0.801086	7.85828e-05
164.883	0.802002	7.86438e-05
164.983	0.79895	7.86133e-05
165.083	0.800476	7.86438e-05
165.183	0.802307	7.92847e-05
165.283	0.79895	7.84607e-05
165.383	0.800476	7.85522e-05
165.483	0.802307	7.86133e-05
165.583	0.798645	7.84302e-05
165.683	0.801697	7.86133e-05
165.783	0.802307	8.00476e-05
165.883	0.79895	7.91321e-05
165.983	0.800476	7.86743e-05
166.083	0.802612	7.85217e-05
166.183	0.799561	7.85522e-05
166.283	0.799561	7.901e-05
166.383	0.802612	7.89185e-05
166.483	0.797424	7.86743e-05
166.583	0.79895	7.86438e-05
166.683	0.802917	7.86133e-05
166.783	0.796204	7.84912e-05
166.883	0.800171	8.15125e-05
166.983	0.802917	8.11462e-05
167.083	0.798035	7.85217e-05
167.183	0.801697	7.87659e-05
167.283	0.800476	7.91626e-05
167.383	0.798645	7.85522e-05
167.483	0.802612	8.16956e-05
167.583	0.79895	7.87354e-05
167.683	0.800476	7.86743e-05
167.783	0.802917	7.95288e-05
167.883	0.79895	8.12073e-05
167.983	0.802002	7.85828e-05
168.083	0.800171	8.16345e-05
168.183	0.802002	7.86438e-05
168.283	0.800476	7.85522e-05
168.383	0.800476	7.85828e-05
168.483	0.802002	7.86438e-05
168.583	0.799866	8.04443e-05
168.683	0.801697	7.87964e-05
168.783	0.802917	7.87964e-05
168.883	0.800171	7.86743e-05
168.983	0.802307	7.85217e-05
169.083	0.802307	7.89795e-05
169.183	0.79895	8.07495e-05
169.283	0.802612	7.84607e-05
169.383	0.796814	7.83997e-05
169.483	0.800781	7.83997e-05
169.583	0.802612	7.85522e-05
169.683	0.798035	7.84607e-05
169.783	0.802002	7.84912e-05
169.883	0.797729	7.85828e-05
169.983	0.801697	7.84912e-05
170.083	0.802612	7.85522e-05
170.183	0.798645	7.88879e-05
170.283	0.801086	7.84302e-05
170.383	0.802612	7.85217e-05
170.483	0.800171	7.86133e-05
170.583	0.800476	7.84912e-05
170.683	0.802307	7.87048e-05
170.783	0.800781	7.91626e-05
170.883	0.800781	7.901e-05
170.983	0.802612	7.89185e-05
171.083	0.79834	7.88574e-05
171.183	0.802002	7.87964e-05
171.283	0.803223	7.88269e-05
171.383	0.796814	7.96814e-05
171.483	0.802612	7.88269e-05
171.583	0.79834	7.87048e-05
171.683	0.798645	7.88879e-05
171.783	0.802307	7.86438e-05
171.883	0.798645	8.15735e-05
171.983	0.797119	8.06274e-05
172.083	0.803528	7.87354e-05
172.183	0.796204	7.87048e-05
172.283	0.801392	7.87964e-05
172.383	0.799255	7.86743e-05
172.483	0.798035	8.14209e-05
172.583	0.802612	7.96204e-05
172.683	0.79834	7.88879e-05
172.783	0.800781	8.02612e-05
172.883	0.801392	7.91626e-05
172.983	0.79895	7.89185e-05
173.083	0.801392	8.03833e-05
173.183	0.800781	7.90405e-05
173.283	0.796814	7.96509e-05
173.383	0.802002	7.9071e-05
173.483	0.797424	7.87048e-05
173.583	0.796814	7.84912e-05
173.683	0.802917	7.8949e-05
173.783	0.795593	7.9071e-05
173.883	0.79834	7.99561e-05
173.983	0.802307	7.95288e-05
174.083	0.79895	7.83997e-05
174.183	0.798645	7.84912e-05
174.283	0.802917	8.06274e-05
174.383	0.797424	8.13293e-05
174.483	0.800171	8.13599e-05
174.583	0.802917	8.08105e-05
174.683	0.796509	8.078e-05
174.783	0.801697	8.11157e-05
174.883	0.802002	8.13599e-05
174.983	0.797119	8.12683e-05
175.083	0.802002	8.10852e-05
175.183	0.797729	7.90405e-05
175.283	0.797119	8.11462e-05
175.383	0.802002	8.1543e-05
175.483	0.796509	8.13904e-05
175.583	0.798645	8.1543e-05
175.683	0.803223	8.14819e-05
175.783	0.795288	8.15125e-05
175.883	0.799561	8.13599e-05
175.983	0.802307	8.15735e-05
176.083	0.796509	8.15125e-05
176.183	0.800781	8.15735e-05
176.283	0.801697	7.99561e-05
176.383	0.796204	8.04138e-05
176.483	0.800171	8.14209e-05
176.583	0.800171	8.078e-05
176.683	0.794983	8.11157e-05
176.783	0.801697	8.14819e-05
176.883	0.79895	7.82776e-05
176.983	0.795593	7.83691e-05
177.083	0.801697	8.01697e-05
177.183	0.796204	7.90405e-05
177.283	0.793152	8.14819e-05
177.383	0.802002	8.14209e-05
177.483	0.792847	7.82471e-05
177.583	0.791016	7.88269e-05
177.683	0.802002	7.91016e-05
177.783	0.787354	7.91626e-05
177.883	0.796814	8.13599e-05
177.983	0.796509	7.99866e-05
178.083	0.788269	8.10547e-05
178.183	0.79834	7.84607e-05
178.283	0.794678	7.85522e-05
178.383	0.798645	7.86133e-05
178.483	0.786743	8.09631e-05
178.583	0.798035	7.91321e-05
178.683	0.794678	7.88269e-05
178.783	0.793152	7.92542e-05
178.883	0.796204	7.85217e-05
178.983	0.786133	7.87048e-05
179.083	0.798035	8.09937e-05
179.183	0.774536	7.83691e-05
179.283	0.796814	8.04138e-05
179.383	0.786133	7.9895e-05
179.483	0.794373	7.87354e-05
179.583	0.787048	7.84607e-05
179.683	0.788269	8.15125e-05
179.783	0.791931	8.1604e-05
179.883	0.786438	8.1604e-05
179.983	0.796509	8.13293e-05
180.083	0.779114	8.08105e-05
180.183	0.794678	7.9071e-05
180.283	0.795593	7.82471e-05
180.383	0.785828	7.90405e-05
180.483	0.794373	7.91016e-05
180.583	0.787354	7.97119e-05
180.683	0.791931	8.0658e-05
180.783	0.794983	8.1665e-05
180.883	0.789185	8.1543e-05
180.983	0.791016	7.97729e-05
181.083	0.797424	7.94983e-05
181.183	0.786133	7.83386e-05
181.283	0.793457	7.84302e-05
181.383	0.794067	7.8186e-05
181.483	0.791016	8.11768e-05
181.583	0.796204	8.08716e-05
181.683	0.7901	8.15735e-05
181.783	0.794373	8.15735e-05
181.883	0.796509	8.14819e-05
181.983	0.787354	8.0658e-05
182.083	0.794067	7.84607e-05
182.183	0.794067	7.83386e-05
182.283	0.784302	7.87354e-05
182.383	0.795288	7.86743e-05
182.483	0.787048	7.83081e-05
182.583	0.788269	8.14209e-05
182.683	0.796814	8.09021e-05
182.783	0.789795	8.02612e-05
182.883	0.792542	7.95593e-05
182.983	0.795288	8.09937e-05
183.083	0.787354	8.13904e-05
183.183	0.792542	7.91016e-05
183.283	0.791016	8.09631e-05
183.383	0.782776	8.08716e-05
183.483	0.793762	8.00781e-05
183.583	0.784912	7.89185e-05
183.683	0.779724	7.91016e-05
183.783	0.795288	7.85828e-05
183.883	0.783997	7.85522e-05
183.983	0.78125	7.84912e-05
184.083	0.794067	7.88574e-05
184.183	0.782471	8.17871e-05
184.283	0.788574	8.13599e-05
184.383	0.792236	8.11768e-05
184.483	0.783081	8.11157e-05
184.583	0.79071	8.14209e-05
184.683	0.786438	7.83997e-05
184.783	0.781555	7.85522e-05
184.883	0.794067	7.92542e-05
184.983	0.785522	8.0658e-05
185.083	0.78064	7.89795e-05
185.183	0.794067	7.9071e-05
185.283	0.783691	8.10547e-05
185.383	0.786438	7.90405e-05
185.483	0.792236	7.84607e-05
185.583	0.783386	7.84607e-05
185.683	0.789795	7.86438e-05
185.783	0.786438	7.91016e-05
185.883	0.782166	8.04138e-05
185.983	0.791931	8.14514e-05
186.083	0.782471	8.09326e-05
186.183	0.775452	8.14819e-05
186.283	0.792542	8.15735e-05
186.383	0.78064	7.85522e-05
186.483	0.782776	8.01086e-05
186.583	0.792236	8.08105e-05
186.683	0.78064	7.91931e-05
186.783	0.787354	7.86133e-05
186.883	0.786438	8.09631e-05
186.983	0.776978	8.1665e-05
187.083	0.787048	7.85217e-05
187.183	0.783081	7.84912e-05
187.283	0.778809	7.89185e-05
187.383	0.791016	7.96814e-05
187.483	0.783691	7.86438e-05
187.583	0.784912	8.12988e-05
187.683	0.791321	8.13599e-05
187.783	0.782776	8.1604e-05
187.883	0.780029	8.12988e-05
187.983	0.791016	8.13293e-05
188.083	0.776062	8.00476e-05
188.183	0.782471	8.06274e-05
188.283	0.7901	7.92236e-05
188.383	0.78064	7.87659e-05
188.483	0.781555	7.85217e-05
188.583	0.7901	7.82776e-05
188.683	0.779114	7.85217e-05
188.783	0.779419	7.89185e-05
188.883	0.789795	7.93762e-05
188.983	0.775757	8.00476e-05
189.083	0.778809	7.84912e-05
189.183	0.789185	8.08716e-05
189.283	0.776062	8.12378e-05
189.383	0.779114	8.1604e-05
189.483	0.789185	8.08411e-05
189.583	0.774841	8.14209e-05
189.683	0.782166	8.02917e-05
189.783	0.78949	8.00171e-05
189.883	0.779419	7.91321e-05
189.983	0.78186	7.84912e-05
190.083	0.78949	7.86743e-05
190.183	0.777588	7.88574e-05
190.283	0.785217	7.84302e-05
190.383	0.784302	7.9071e-05
190.483	0.780029	7.95898e-05
190.583	0.786438	8.02307e-05
190.683	0.78186	7.9834e-05
190.783	0.781555	8.17261e-05
190.883	0.788574	8.16345e-05
190.983	0.781555	8.14819e-05
191.083	0.785828	8.11462e-05
191.183	0.787964	8.12683e-05
191.283	0.78125	8.1543e-05
191.383	0.785828	7.83081e-05
191.483	0.782471	7.89795e-05
191.583	0.776978	7.86743e-05
191.683	0.785828	7.87354e-05
191.783	0.78064	7.84302e-05
191.883	0.775452	8.1665e-05
191.983	0.786438	8.14819e-05
192.083	0.779419	8.10242e-05
192.183	0.775757	8.12988e-05
192.283	0.786133	8.14514e-05
192.383	0.779419	8.11768e-05
192.483	0.776672	7.84912e-05
192.583	0.786133	8.00781e-05
192.683	0.778198	7.91016e-05
192.783	0.775146	7.85828e-05
192.883	0.785828	7.91321e-05
192.983	0.775452	8.12073e-05
193.083	0.777588	8.04443e-05
193.183	0.785522	7.91626e-05
193.283	0.783691	8.03833e-05
193.383	0.773926	8.02612e-05
193.483	0.785522	7.97424e-05
193.583	0.775757	7.93762e-05
193.683	0.774536	8.12683e-05
193.783	0.785217	8.09631e-05
193.883	0.773621	7.9895e-05
193.983	0.773926	8.09937e-05
194.083	0.785522	7.99866e-05
194.183	0.769958	8.09937e-05
194.283	0.7724	7.83997e-05
194.383	0.784912	7.91016e-05
194.483	0.771179	7.83997e-05
194.583	0.778503	7.83081e-05
194.683	0.781555	7.93152e-05
194.783	0.772705	8.13599e-05
194.883	0.782776	8.16345e-05
194.983	0.777588	8.1604e-05
195.083	0.774536	8.1665e-05
195.183	0.783386	7.97729e-05
195.283	0.776367	8.14819e-05
195.383	0.780945	7.84302e-05
195.483	0.780945	7.83997e-05
195.583	0.776672	7.86133e-05
195.683	0.78064	7.9071e-05
195.783	0.775452	7.85522e-05
195.883	0.77179	8.09937e-05
195.983	0.782166	8.13599e-05
196.083	0.766602	8.15735e-05
196.183	0.768433	8.04749e-05
196.283	0.782166	7.85522e-05
196.383	0.767212	8.17261e-05
196.483	0.772705	7.8949e-05
196.583	0.78186	7.83997e-05
196.683	0.777283	7.84607e-05
196.783	0.776367	7.90405e-05
196.883	0.780334	7.94678e-05
196.983	0.780334	8.14819e-05
197.083	0.776672	8.1604e-05
197.183	0.780029	8.12378e-05
197.283	0.78125	8.10547e-05
197.383	0.78125	8.10242e-05
197.483	0.778198	7.8125E-05
197.583	0.782471	7.87659e-05
197.683	0.778503	7.82471e-05
197.783	0.774231	7.83691e-05
197.883	0.783691	7.87354e-05
197.983	0.776672	8.18176e-05
198.083	0.78125	8.18176e-05
198.183	0.783386	8.1665e-05
198.283	0.776062	8.18176e-05
198.383	0.78186	8.1665e-05
198.483	0.778503	8.1543e-05
198.583	0.776978	7.90405e-05
198.683	0.783691	7.82471e-05
198.783	0.775757	7.82776e-05
198.883	0.78186	7.84912e-05
198.983	0.771484	7.82471e-05
199.083	0.782166	7.91626e-05
199.183	0.751648	7.80945e-05
199.283	0.780334	8.14819e-05
199.383	0.765381	8.14209e-05
199.483	0.775452	8.17566e-05
199.583	0.779724	8.13293e-05
199.683	0.761414	8.17871e-05
199.783	0.779114	7.83081e-05
199.883	0.772705	7.82776e-05
199.983	0.772705	7.83081e-05
200.083	0.779419	7.84302e-05
200.183	0.77301	7.89795e-05
200.283	0.772095	7.87048e-05
200.383	0.781555	8.1604e-05
200.483	0.77179	8.17566e-05
200.583	0.774841	8.1543e-05
200.683	0.780945	8.16345e-05
200.783	0.769043	7.87964e-05
200.883	0.776978	7.80334e-05
200.983	0.778198	7.83081e-05
201.083	0.768433	7.83386e-05
201.183	0.778198	7.89185e-05
201.283	0.77179	8.05359e-05
201.383	0.774536	8.13904e-05
201.483	0.778503	8.14819e-05
201.583	0.767517	8.16345e-05
201.683	0.777588	8.14514e-05
201.783	0.77301	7.95593e-05
201.883	0.776367	7.8125E-05
201.983	0.774536	7.84607e-05
202.083	0.773621	7.87964e-05
202.183	0.776978	7.91016e-05
202.283	0.776672	8.08411e-05
202.383	0.770264	8.10852e-05
202.483	0.778503	8.1665e-05
202.583	0.774536	8.09631e-05
202.683	0.768738	8.00476e-05
202.783	0.780029	7.88879e-05
202.883	0.770264	7.83691e-05
202.983	0.766602	7.83081e-05
203.083	0.778809	7.86438e-05
203.183	0.768738	8.10242e-05
203.283	0.773621	8.1604e-05
203.383	0.779419	8.14819e-05
203.483	0.769958	8.13599e-05
203.583	0.776978	8.15125e-05
203.683	0.778809	7.84302e-05
203.783	0.771484	7.85828e-05
203.883	0.777893	7.84607e-05
203.983	0.778809	7.94678e-05
204.083	0.769348	8.04443e-05
204.183	0.778503	7.8949e-05
204.283	0.776672	8.11462e-05
204.383	0.771179	8.09326e-05
204.483	0.778198	7.91321e-05
204.583	0.778503	7.84302e-05
204.683	0.770569	8.17566e-05
204.783	0.778503	8.01086e-05
204.883	0.777588	8.04749e-05
204.983	0.771179	8.1543e-05
205.083	0.778198	8.15125e-05
205.183	0.777893	8.15735e-05
205.283	0.770569	7.83997e-05
205.383	0.778503	7.83386e-05
205.483	0.774231	7.85828e-05
205.583	0.768738	7.95593e-05
205.683	0.778503	7.99561e-05
205.783	0.769958	8.14209e-05
205.883	0.768433	8.19702e-05
205.983	0.778198	8.05664e-05
206.083	0.769958	7.84607e-05
206.183	0.770569	7.83081e-05
206.283	0.778809	7.84607e-05
206.383	0.771179	8.13599e-05
206.483	0.770264	8.15735e-05
206.583	0.778809	8.12073e-05
206.683	0.767822	8.09631e-05
206.783	0.770264	7.99255e-05
206.883	0.777588	7.83691e-05
206.983	0.772705	7.84302e-05
207.083	0.772095	7.96204e-05
207.183	0.778809	8.13599e-05
207.283	0.772705	8.14514e-05
207.383	0.771484	8.1604e-05
207.483	0.777588	8.08716e-05
207.583	0.769043	7.84912e-05
207.683	0.77179	7.9071e-05
207.783	0.778503	7.98035e-05
207.883	0.771179	8.01697e-05
207.983	0.769348	8.17566e-05
208.083	0.778503	8.16956e-05
208.183	0.767517	7.85217e-05
208.283	0.768738	7.87964e-05
208.383	0.777893	7.93457e-05
208.483	0.766296	7.89795e-05
208.583	0.767822	8.02917e-05
208.683	0.777588	7.91016e-05
208.783	0.764771	7.83691e-05
208.883	0.774841	7.87964e-05
208.983	0.774841	7.901e-05
209.083	0.767517	7.96509e-05
209.183	0.776367	7.9071e-05
209.283	0.772705	7.85828e-05
209.383	0.773315	7.82471e-05
209.483	0.776978	7.901e-05
209.583	0.771484	7.89795e-05
209.683	0.773621	7.81555e-05
209.783	0.775757	7.8949e-05
209.883	0.769043	7.83691e-05
209.983	0.774536	7.87659e-05
210.083	0.772705	7.91016e-05
210.183	0.763855	8.02917e-05
210.283	0.776367	7.85828e-05
210.383	0.769653	7.84302e-05
210.483	0.766296	7.86133e-05
210.583	0.777283	7.89185e-05
210.683	0.769348	7.8949e-05
210.783	0.768433	7.8186e-05
210.883	0.776672	7.88269e-05
210.983	0.768127	7.83997e-05
211.083	0.770569	7.92542e-05
211.183	0.776672	7.90405e-05
211.283	0.768738	8.0719e-05
211.383	0.769653	7.83691e-05
211.483	0.776672	7.84607e-05
211.583	0.766296	7.87354e-05
211.683	0.770569	7.94373e-05
211.783	0.777283	8.05664e-05
211.883	0.767517	7.82776e-05
211.983	0.774536	7.87048e-05
212.083	0.773315	7.85828e-05
212.183	0.769348	7.92847e-05
212.283	0.774841	7.89185e-05
212.383	0.772095	7.95288e-05
212.483	0.766907	7.84607e-05
212.583	0.776367	7.84912e-05
212.683	0.769348	7.901e-05
212.783	0.770569	8.02307e-05
212.883	0.776978	7.92542e-05
212.983	0.769653	7.92847e-05
213.083	0.772705	7.85828e-05
213.183	0.775146	7.9071e-05
213.283	0.767517	7.92236e-05
213.383	0.775146	8.04443e-05
213.483	0.7724	7.99255e-05
213.583	0.769653	7.84607e-05
213.683	0.776672	7.87659e-05
213.783	0.770874	8.05969e-05
213.883	0.77179	7.94373e-05
213.983	0.776978	7.93152e-05
214.083	0.770569	8.12073e-05
214.183	0.774841	7.91931e-05
214.283	0.773621	7.89185e-05
214.383	0.767822	8.03223e-05
214.483	0.776062	8.00476e-05
214.583	0.770264	8.01697e-05
214.683	0.769348	7.9834e-05
214.783	0.776367	7.84607e-05
214.883	0.769653	7.93762e-05
214.983	0.775146	7.91626e-05
215.083	0.772095	7.87659e-05
215.183	0.771484	8.10852e-05
215.283	0.776367	8.02002e-05
215.383	0.7724	7.84912e-05
215.483	0.774841	7.87964e-05
215.583	0.776978	7.86438e-05
215.683	0.771484	7.87964e-05
215.783	0.774536	8.15125e-05
215.883	0.774536	7.83386e-05
215.983	0.767822	7.82776e-05
216.083	0.776062	7.85217e-05
216.183	0.773315	7.89185e-05
216.283	0.767212	8.19702e-05
216.383	0.776062	8.17261e-05
216.483	0.767517	7.83997e-05
216.583	0.765686	7.87048e-05
216.683	0.775452	7.88269e-05
216.783	0.767822	7.84912e-05
216.883	0.770264	8.19702e-05
216.983	0.776367	7.83081e-05
217.083	0.769653	7.83691e-05
217.183	0.773315	7.88574e-05
217.283	0.775146	7.85828e-05
217.383	0.768127	8.18176e-05
217.483	0.774841	8.19092e-05
217.583	0.772095	7.83691e-05
217.683	0.768433	7.85522e-05
217.783	0.775452	7.85217e-05
217.883	0.770264	7.86133e-05
217.983	0.769043	8.03528e-05
218.083	0.776367	7.87048e-05
218.183	0.769348	7.84302e-05
218.283	0.773315	7.83997e-05
218.383	0.775757	7.83691e-05
218.483	0.769348	7.92847e-05
218.583	0.775146	7.92236e-05
218.683	0.771179	7.86133e-05
218.783	0.768127	7.85522e-05
218.883	0.776062	7.86133e-05
218.983	0.768738	7.83691e-05
219.083	0.773621	7.80945e-05
219.183	0.773926	7.94983e-05
219.283	0.768127	7.82471e-05
219.383	0.775146	7.83386e-05
219.483	0.770569	7.82166e-05
219.583	0.767822	7.8186e-05
219.683	0.776672	7.86133e-05
219.783	0.769043	8.06274e-05
219.883	0.772705	7.8949e-05
219.983	0.775452	7.86743e-05
220.083	0.768433	7.93762e-05
220.183	0.773315	8.12988e-05
220.283	0.770569	8.17566e-05
220.383	0.763245	8.11157e-05
220.483	0.774536	7.91016e-05
220.583	0.766907	7.96814e-05
220.683	0.767212	7.98645e-05
220.783	0.775452	8.19397e-05
220.883	0.768127	8.15125e-05
220.983	0.764465	8.14819e-05
221.083	0.775146	8.13599e-05
221.183	0.762634	8.14514e-05