File: Edgar/20240515/20240515/EC_measurements/Sample_20240502_B/steps/data/pulses_steps_m0p9V_1V.txt
Time (s)	WE(1).Potential (V)	WE(1).Current (A)	External(1).External 2 (V)
61.6563	-0.899048	-0.00252014	3.88428
62.1063	-0.898132	-0.00160767	3.92212
62.5563	-0.898743	-0.00124664	3.88336
63.0063	-0.899048	-0.00101532	3.68378
63.4563	-0.898132	-0.000860291	3.60535
63.9063	-0.897522	-0.000752258	3.41003
64.3563	-0.8984375	-0.000671692	3.29193
64.8063	-0.898743	-0.000609131	3.25317
65.2563	-0.8984375	-0.000559692	3.2724
65.7063	-0.897827	-0.00052063	3.15521
66.1563	-0.897217	-0.000487366	3.07739
66.6063	-0.898132	-0.000486603	3.17474
67.0563	-0.897827	-0.000463043	2.94128
67.5063	-0.8984375	-0.000441559	2.99988
67.9563	-0.897827	-0.000422119	3.03833
68.4063	-0.898132	-0.000405029	2.98035
68.8563	-0.898132	-0.000390228	2.84302
69.3063	-0.898132	-0.00037616	2.92114
69.7563	-0.8984375	-0.000363342	2.84332
70.2063	-0.899048	-0.0003515625	2.88208
70.6563	-0.899353	-0.00034024	2.88208
71.1063	-0.8984375	-0.000330688	2.78503
71.5563	-0.898743	-0.00032135	2.76581
72.0063	-0.8984375	-0.000312592	2.82257
72.4563	-0.897827	-0.000304993	2.80396
72.9063	-0.898132	-0.000297272	2.84271
73.3563	-0.8984375	-0.000290192	2.80365
73.8063	-0.898132	-0.0002836	2.68768
74.2563	-0.898743	-0.000277069	2.76489
74.7063	-0.898743	-0.000270935	2.74597
75.1563	-0.897827	-0.000264923	2.78412
75.6063	-0.8984375	-0.000259827	2.82318
76.0563	-0.897827	-0.000255157	2.57019
76.5063	-0.899048	-0.000249786	2.80334
76.9563	-0.899048	-0.000245209	2.62939
77.4063	-0.898132	-0.000240784	2.70691
77.8563	-0.8984375	-0.000236816	2.72614
78.3063	-0.8984375	-0.000232971	2.68799
78.7563	-0.8984375	-0.000228821	2.80426
79.2063	-0.8984375	-0.000225677	2.72675
79.6563	-0.8984375	-0.000221771	2.7652
80.1063	-0.8984375	-0.000218292	2.70721
80.5563	-0.898132	-0.000215179	2.64801
81.0063	-0.899048	-0.000212463	2.64832
81.4563	-0.898743	-0.000209229	2.66785
81.9063	-0.898132	-0.000206146	2.74567
82.3563	-0.8984375	-0.000203796	2.66785
82.8063	-0.8984375	-0.000200897	2.7066
83.2563	-0.898132	-0.000198547	2.60925
83.7063	-0.899048	-0.000195892	2.76581
84.1563	-0.8984375	-0.00019342	2.64832
84.6063	-0.898743	-0.000191284	2.66754
85.0563	-0.898132	-0.000188995	2.70691
85.5063	-0.8984375	-0.000186859	2.70691
85.9563	-0.898743	-0.000185089	2.68829
86.4063	-0.898132	-0.000182922	2.68738
86.8563	-0.899048	-0.000181183	2.57019
87.3063	-0.8984375	-0.000179352	2.62817
87.7563	-0.898132	-0.000177887	2.60864
88.2063	-0.898132	-0.000175446	2.70691
88.6563	-0.897827	-0.000174011	2.68768
89.1063	-0.898743	-0.000172699	2.60986
89.5563	-0.898132	-0.000170624	2.70721
90.0063	-0.8984375	-0.000169495	2.62909
90.4563	-0.8984375	-0.000167847	2.66785
90.9063	-0.899048	-0.000166901	2.64862
91.3563	-0.897827	-0.000165558	2.5705
91.8063	-0.898743	-0.000163727	2.68738
92.2563	-0.898132	-0.000162537	2.7066
92.7063	-0.898743	-0.000161163	2.68738
93.1563	-0.8984375	-0.000160278	2.55035
93.6063	-0.897827	-0.000158936	2.68829
94.0563	-0.898743	-0.000158173	2.57019
94.5063	-0.897827	-0.000156677	2.74567
94.9563	-0.8984375	-0.000155762	2.58972
95.4063	-0.898743	-0.000154938	2.58911
95.8563	-0.8984375	-0.000153656	2.68738
96.3063	-0.897827	-0.000153015	2.68799
96.7563	-0.899048	-0.000151947	2.58972
97.2063	-0.899048	-0.000151031	2.60925
97.6563	-0.899048	-0.000150146	2.64832
98.1063	-0.899658	-0.000149109	2.66754
98.5563	-0.899048	-0.000148468	2.68768
99.0063	-0.899048	-0.000147919	2.5705
99.4563	-0.898743	-0.000146698	2.66785
99.9063	-0.8984375	-0.00014624	2.64862
100.356	-0.897827	-0.000145172	2.64832
100.806	-0.8984375	-0.000143982	2.66846
101.256	-0.898743	-0.000143799	2.5708
101.706	-0.899048	-0.000143066	2.5708
102.156	-0.898132	-0.000142395	2.60895
102.606	-0.8984375	-0.000141602	2.68738
103.056	-0.898132	-0.000141907	2.59003
103.506	-0.898743	-0.000141022	2.64862
103.956	-0.899048	-0.000140442	2.55096
104.406	-0.897827	-0.000140167	2.50641
104.856	-0.898132	-0.000138947	2.66785
105.306	-0.898132	-0.00013916	2.64801
105.756	-0.8984375	-0.000138794	2.5705
106.206	-0.8984375	-0.000138367	2.60986
106.656	-0.898743	-0.000137817	2.62817
107.106	-0.898743	-0.000137177	2.66754
107.556	-0.899048	-0.000137024	2.62848
108.006	-0.898743	-0.000136414	2.62939
108.456	-0.898132	-0.000135895	2.72675
108.906	-0.897827	-0.000135986	2.60956
109.356	-0.897827	-0.000135254	2.66754
109.806	-0.899048	-0.000134857	2.64832
110.256	-0.899048	-0.000134186	2.72675
110.706	-0.8984375	-0.000134003	2.66754
111.156	-0.898132	-0.000134155	2.62817
111.606	-0.899048	-0.000133789	2.70691
112.056	-0.899048	-0.000133148	2.66754
112.506	-0.8984375	-0.000133453	2.5705
112.956	-0.898132	-0.000133362	2.62909
113.406	-0.899048	-0.000133026	2.60956
113.856	-0.898132	-0.000132446	2.68799
114.306	-0.898743	-0.00013205	2.66754
114.756	-0.899048	-0.000132019	2.60895
115.206	-0.898743	-0.000131409	2.64771
115.656	-0.899048	-0.00013147	2.68768
116.106	-0.898132	-0.000132111	2.64771
116.556	-0.898132	-0.000131805	2.66785
117.006	-0.898743	-0.000131378	2.68738
117.456	-0.898132	-0.000130951	2.72675
117.906	-0.899048	-0.000131134	2.55096
118.356	-0.899048	-0.000130676	2.62878
118.806	-0.898132	-0.000130371	2.66785
119.256	-0.899048	-0.000130402	2.58972
119.706	-0.8984375	-0.000130524	2.58942
120.156	-0.899048	-0.000129761	2.68799
120.606	-0.897827	-0.000130066	2.62878
121.056	-0.8984375	-0.000129425	2.72644
121.506	-0.897522	-0.000129669	2.55127
121.966	1.00037	0.00428284	2.60742
122.416	1.00037	0.00358948	2.82135
122.866	1.00006	0.00300873	2.99774
123.316	1.00098	0.00249146	3.36884
123.766	1.00006	0.00201874	3.62457
124.216	1.00128	0.00156677	3.68286
124.666	1.00067	0.00108795	3.96088
125.116	1.00128	0.000256439	4.01825
125.566	1.00037	0.00012442	3.97888
126.016	1.00067	9.28345e-05	3.94104
126.466	1.00006	7.66907e-05	4.05731
126.916	1.00098	6.52161e-05	3.96027
127.366	1.00067	5.7251e-05	3.94104
127.816	1.00128	5.10864e-05	3.99933
128.266	0.999756	4.62036e-05	4.03809
128.716	1.00128	4.21143e-05	3.9798
129.166	0.999756	3.92456e-05	4.11713
129.616	1.00067	3.5614e-05	3.99933
130.066	1.00037	3.302e-05	3.9212
130.516	1.00098	3.07922e-05	4.03809
130.966	0.999451	2.83813e-05	3.94073
131.416	1.00098	2.6886e-05	3.8623
131.866	1.00128	2.53296e-05	3.9801
132.316	1.00037	2.45972e-05	4.0567
132.766	1.00098	2.29492e-05	4.01886
133.216	1.00037	2.23694e-05	4.11652
133.666	1.00128	2.11487e-05	4.09698
134.116	1.00067	2.005e-05	4.01825
134.566	0.999756	1.89209e-05	3.94073
135.016	1.00098	1.84326e-05	4.03809
135.466	1.00067	1.78528e-05	4.05792
135.916	1.00037	1.67236e-05	4.03809
136.366	1.00037	1.60217e-05	4.05731
136.816	1.00067	1.61133e-05	3.9798
137.266	1.00098	1.55029e-05	4.01886
137.716	0.999756	1.48621e-05	4.01886
138.166	1.00159	1.44653e-05	4.07745
138.616	1.00037	1.43127e-05	4.05792
139.066	1.00128	1.40076e-05	4.03839
139.516	1.00006	1.36108e-05	4.07684
139.966	1.00037	1.33057e-05	3.97919
140.416	1.00098	1.28479e-05	3.9798
140.866	1.00037	1.27563e-05	4.05823
141.316	0.999756	1.24512e-05	4.05762
141.766	1.00128	1.23901e-05	4.07715
142.216	1.00067	1.18103e-05	3.99841
142.666	1.00037	1.17493e-05	3.94073
143.116	1.00037	1.15051e-05	4.07745
143.566	1.00098	1.12e-05	3.9801
144.016	1.00037	1.09253e-05	3.96057
144.466	1.00067	1.07117e-05	3.862
144.916	1.00128	1.11694e-05	4.03778
145.366	1.00006	1.05896e-05	3.94104
145.816	1.00098	1.07117e-05	4.05762
146.266	1.00098	1.06506e-05	4.11652
146.716	1.00006	1.04675e-05	4.09729
147.166	1.00098	9.8877e-06	3.96088
147.616	1.00067	1.02844e-05	4.15527
148.066	1.00037	9.30786e-06	3.86261
148.516	1.00098	1.01013e-05	4.05792
148.966	1.00037	1.04675e-05	4.13635
149.416	1.00037	1.04065e-05	3.9798
149.866	1.00098	1.02539e-05	4.05792
150.316	1.00006	1.01929e-05	4.05731
150.766	1.00128	9.64355e-06	3.97949
151.216	1.00006	9.46045e-06	3.94135
151.666	1.00037	9.42993e-06	4.07745
152.116	1.00128	9.06372e-06	3.99902
152.566	1.00098	9.30786e-06	4.05731
153.016	1.00037	8.36182e-06	3.88153
153.466	1.00067	7.99561e-06	3.92151
153.916	1.00037	8.36182e-06	4.05792
154.366	0.999756	8.36182e-06	4.01855
154.816	0.999451	8.27026e-06	3.94104
155.266	1.00037	8.81958e-06	4.03778
155.716	1.00098	8.17871e-06	3.99933
156.166	1.00098	7.62939e-06	3.99933
156.616	1.00098	8.02612e-06	4.09729
157.066	1.00067	7.78198e-06	4.07745
157.516	1.00037	7.04956e-06	3.94043
157.966	1.00037	7.65991e-06	3.9798
158.416	0.999756	7.90405e-06	4.09637
158.866	1.00006	7.59888e-06	3.9798
159.316	1.00006	7.62939e-06	4.05731
159.766	1.00098	7.35474e-06	3.90106
160.216	1.00128	7.35474e-06	3.97888
160.666	1.00098	7.23267e-06	3.9798
161.116	1.00037	7.20215e-06	3.9801
161.566	1.00006	7.38525e-06	4.01825
162.016	1.00037	7.53784e-06	3.99902
162.466	1.00037	7.50732e-06	4.13544
162.916	1.00098	7.41577e-06	4.11591
163.366	1.00006	7.56836e-06	4.05762
163.816	1.00006	7.75146e-06	4.09668
164.266	1.00098	7.2937e-06	3.99902
164.716	1.00037	7.26318e-06	3.97949
165.166	1.00128	7.38525e-06	4.05701
165.616	1.00067	6.89697e-06	3.94043
166.066	0.999756	6.83594e-06	3.88245
166.516	0.999756	7.17163e-06	4.05792
166.966	1.00006	6.5918e-06	3.92059
167.416	1.00006	7.01904e-06	4.11682
167.866	1.00037	7.04956e-06	4.05731
168.316	1.00067	7.14111e-06	4.11652
168.766	1.00037	6.68335e-06	3.94043
169.216	1.00159	6.86646e-06	3.99902
169.666	1.00098	7.04956e-06	4.03809
170.116	1.00098	7.14111e-06	4.07684
170.566	1.00128	6.98853e-06	3.97919
171.016	1.00067	7.08008e-06	4.05701
171.466	1.00037	7.01904e-06	4.07715
171.916	1.00067	6.89697e-06	3.97949
172.366	1.00037	6.80542e-06	4.01855
172.816	1.00006	7.1106e-06	4.03809
173.266	1.00159	6.28662e-06	3.90106
173.716	1.00098	6.5918e-06	4.07684
174.166	1.00159	6.53076e-06	4.07715
174.616	1.00037	6.53076e-06	3.97919
175.066	1.00037	5.5542e-06	3.84277
175.516	0.999756	5.98145e-06	4.03778
175.966	1.00128	5.49316e-06	3.94104
176.416	1.00067	5.67627e-06	4.03839
176.866	1.00037	5.21851e-06	3.80432
177.316	0.999756	6.2561e-06	4.03839
177.766	1.00067	6.22559e-06	4.01886
178.216	1.00159	6.40869e-06	4.21387
178.666	1.00006	5.85937e-06	3.9798
179.116	1.00159	6.10352e-06	4.05731
179.566	0.999451	6.65283e-06	4.09729
180.016	1.00006	6.10352e-06	3.8623
180.466	1.00037	6.71387e-06	4.09668
180.916	1.00037	6.2561e-06	4.13635
181.366	1.00067	6.2561e-06	4.07715
181.826	-0.898132	-0.00205017	4.05914
182.276	-0.899048	-0.00150177	3.82477
182.726	-0.899048	-0.00118195	3.90259
183.176	-0.898743	-0.000971985	3.74237
183.626	-0.898132	-0.000829468	3.64563
184.076	-0.898743	-0.000727539	3.44879
184.526	-0.899048	-0.00065033	3.38989
184.976	-0.8984375	-0.000592041	3.25287
185.426	-0.897827	-0.000544739	3.21381
185.876	-0.898743	-0.000506592	3.09662
186.326	-0.899658	-0.000501373	3.11676
186.776	-0.898743	-0.00047348	3.03955
187.226	-0.899048	-0.000449585	3.01971
187.676	-0.898132	-0.000428314	2.94067
188.126	-0.8984375	-0.000409088	3.0191
188.576	-0.899353	-0.000392548	2.92084
189.026	-0.8984375	-0.000377533	2.94067
189.476	-0.8984375	-0.00036377	2.80365
189.926	-0.899353	-0.000350739	2.84302
190.376	-0.899048	-0.00033963	2.76489
190.826	-0.898132	-0.000328674	2.80365
191.276	-0.8984375	-0.00031839	2.86316
191.726	-0.898743	-0.000309082	2.88177
192.176	-0.897827	-0.000300476	2.78503
192.626	-0.8984375	-0.000291626	2.82349
193.076	-0.899353	-0.000284241	2.80396
193.526	-0.897522	-0.00027713	2.76123
193.976	-0.899353	-0.000270355	2.68768
194.426	-0.897827	-0.000263428	2.82288
194.876	-0.898132	-0.000257568	2.78442
195.326	-0.8984375	-0.000251587	2.84332
195.776	-0.898132	-0.00024646	2.7655
196.226	-0.899353	-0.000240356	2.84271
196.676	-0.899048	-0.000235474	2.78412
197.126	-0.899048	-0.000231262	2.72675
197.576	-0.898132	-0.000226929	2.64862
198.026	-0.899048	-0.00022229	2.76459
198.476	-0.897827	-0.000218445	2.64771
198.926	-0.899048	-0.000214508	2.66754
199.376	-0.899048	-0.000210571	2.68829
199.826	-0.898132	-0.000206909	2.76581
200.276	-0.898743	-0.000203522	2.64893
200.726	-0.898743	-0.000200378	2.68799
201.176	-0.8984375	-0.000196899	2.68829
201.626	-0.899048	-0.000194092	2.62817
202.076	-0.898743	-0.000190826	2.74536
202.526	-0.898743	-0.000187531	2.78412
202.976	-0.899353	-0.000185242	2.76459
203.426	-0.899048	-0.000182983	2.66724
203.876	-0.898743	-0.00018045	2.70752
204.326	-0.897827	-0.000178314	2.64862
204.776	-0.8984375	-0.000175598	2.72644
205.226	-0.899048	-0.000173218	2.62787
205.676	-0.899353	-0.000170959	2.7066
206.126	-0.899658	-0.00016922	2.74567
206.576	-0.898743	-0.000167664	2.60925
207.026	-0.898132	-0.000165833	2.64801
207.476	-0.897827	-0.000163574	2.72614
207.926	-0.897522	-0.000161926	2.70721
208.376	-0.898132	-0.000160828	2.62817
208.826	-0.899353	-0.0001586	2.74536
209.276	-0.899353	-0.000157349	2.66724
209.726	-0.8984375	-0.000156036	2.68768
210.176	-0.897827	-0.000155029	2.66785
210.626	-0.8984375	-0.000153412	2.64832
211.076	-0.898132	-0.000152313	2.68707
211.526	-0.898132	-0.000151276	2.62939
211.976	-0.896912	-0.000150116	2.7655
212.426	-0.897217	-0.00014859	2.72675
212.876	-0.8984375	-0.000147919	2.60925
213.326	-0.899048	-0.000146667	2.70691
213.776	-0.898743	-0.000145599	2.72644
214.226	-0.898132	-0.000145081	2.62817
214.676	-0.897827	-0.00014386	2.70691
215.126	-0.899353	-0.000142334	2.72614
215.576	-0.899353	-0.000142273	2.60864
216.026	-0.8984375	-0.000141449	2.62878
216.476	-0.897827	-0.00014035	2.68707
216.926	-0.897522	-0.000139893	2.68768
217.376	-0.898132	-0.000139069	2.66724
217.826	-0.898132	-0.000138245	2.62817
218.276	-0.897827	-0.000137939	2.60803
218.726	-0.8984375	-0.000136963	2.64771
219.176	-0.898132	-0.000136597	2.56989
219.626	-0.8984375	-0.000136139	2.66754
220.076	-0.899048	-0.000134796	2.64801
220.526	-0.899048	-0.000134583	2.68768
220.976	-0.898743	-0.000134094	2.66815
221.426	-0.897522	-0.000133911	2.62939
221.876	-0.897522	-0.000133362	2.60956
222.326	-0.899048	-0.000132782	2.60925
222.776	-0.8984375	-0.000132263	2.60895
223.226	-0.899048	-0.000132141	2.60895
223.676	-0.899353	-0.000132202	2.60895
224.126	-0.8984375	-0.000132355	2.64832
224.576	-0.897522	-0.000131958	2.64771
225.026	-0.897522	-0.000131165	2.66754
225.476	-0.8984375	-0.000130859	2.64801
225.926	-0.8984375	-0.000130554	2.60864
226.376	-0.899048	-0.000130432	2.57019
226.826	-0.899658	-0.000129547	2.68768
227.276	-0.899353	-0.000129303	2.68768
227.726	-0.898132	-0.000129364	2.64832
228.176	-0.899658	-0.000128235	2.72614
228.626	-0.8984375	-0.000128662	2.57019
229.076	-0.899048	-0.000127991	2.64832
229.526	-0.898132	-0.000128052	2.62848
229.976	-0.897827	-0.00012735	2.62848
230.426	-0.897827	-0.000127838	2.64862
230.876	-0.897827	-0.00012735	2.70691
231.326	-0.899048	-0.000127319	2.64832
231.776	-0.898743	-0.000126923	2.62848
232.226	-0.898743	-0.000126617	2.72614
232.676	-0.898743	-0.00012619	2.70721
233.126	-0.898743	-0.000126007	2.62848
233.576	-0.8984375	-0.000126099	2.66724
234.026	-0.898132	-0.000125946	2.64801
234.476	-0.898132	-0.000125519	2.64771
234.926	-0.897217	-0.000125427	2.64862
235.376	-0.897827	-0.000125763	2.64801
235.826	-0.898743	-0.000125702	2.56989
236.276	-0.899353	-0.000125244	2.64832
236.726	-0.898743	-0.000125244	2.66693
237.176	-0.897522	-0.000125	2.68799
237.626	-0.898743	-0.000124969	2.55066
238.076	-0.899048	-0.000125031	2.64862
238.526	-0.897827	-0.000125061	2.62909
238.976	-0.898132	-0.000124969	2.68768
239.426	-0.8984375	-0.000124725	2.66815
239.876	-0.898743	-0.000124878	2.5705
240.326	-0.899048	-0.000124786	2.59033
240.776	-0.8984375	-0.000124664	2.55066
241.226	-0.897827	-0.000124542	2.62848
241.686	1.00128	0.00505737	2.62726
242.136	1.00037	0.00401031	2.70538
242.586	1.00037	0.00336548	2.9187
243.036	1.00006	0.00280579	3.19275
243.486	1.00006	0.00230438	3.60321
243.936	1.00128	0.00184235	3.80402
244.386	1.00037	0.00138824	3.82294
244.836	0.999756	0.000847168	3.96027
245.286	1.00006	0.00018634	3.95996
245.736	1.00006	0.000123688	4.15527
246.186	1.00128	9.73511e-05	4.01825
246.636	1.00098	8.18481e-05	4.11621
247.086	1.00006	7.1228e-05	3.96057
247.536	1.00067	6.36597e-05	4.09729
247.986	1.00067	5.71289e-05	3.99933
248.436	1.00128	5.17273e-05	3.94073
248.886	1.00098	4.80347e-05	4.01886
249.336	1.00037	4.48608e-05	4.09668
249.786	1.00098	4.11987e-05	3.99933
250.236	1.00098	3.83911e-05	3.99902
250.686	0.999756	3.61328e-05	4.05701
251.136	1.00037	3.34778e-05	3.9798
251.586	1.00128	3.10669e-05	3.92151
252.036	1.00006	2.92969e-05	4.01886
252.486	1.00006	2.80457e-05	4.01886
252.936	1.00159	2.61841e-05	3.94043
253.386	1.00006	2.45667e-05	3.96057
253.836	1.00098	2.3468e-05	3.97949
254.286	1.00006	2.23083e-05	4.03839
254.736	1.00037	2.14844e-05	3.96027
255.186	0.999756	2.07825e-05	4.03778
255.636	0.999756	1.98975e-05	4.05731
256.086	1.00037	1.90735e-05	3.97919
256.536	1.00098	1.8219e-05	3.95996
256.986	0.999756	1.73035e-05	3.92059
257.436	1.00037	1.71509e-05	4.03809
257.886	1.00128	1.62659e-05	3.99933
258.336	1.00037	1.68152e-05	4.07715
258.786	1.00006	1.67542e-05	4.01855
259.236	1.00098	1.5686e-05	3.88184
259.686	1.00037	1.54114e-05	4.05762
260.136	0.999756	1.49231e-05	4.01917
260.586	1.00159	1.41296e-05	3.96057
261.036	1.00006	1.35498e-05	3.94104
261.486	1.00037	1.37634e-05	4.09668
261.936	1.00159	1.35193e-05	4.13544
262.386	0.999756	1.28174e-05	4.05731
262.836	1.00037	1.26038e-05	3.97949
263.286	0.999756	1.25732e-05	4.01917
263.736	1.00067	1.23901e-05	4.03809
264.186	1.00067	1.19629e-05	4.03778
264.636	1.00006	1.14746e-05	3.9209
265.086	1.00037	1.17493e-05	4.07684
265.536	1.00098	1.15051e-05	4.01825
265.986	1.00006	1.12e-05	4.03748
266.436	1.00128	1.14746e-05	4.03748
266.886	0.999756	1.07117e-05	3.98041
267.336	1.00098	1.08337e-05	4.07745
267.786	1.00067	1.02844e-05	3.94073
268.236	1.00006	1.08643e-05	4.11621
268.686	1.00098	1.06201e-05	4.07684
269.136	1.00159	1.01013e-05	3.9798
269.586	1.00159	1.02539e-05	4.11621
270.036	1.00006	9.94873e-06	3.9798
270.486	1.00067	1.01013e-05	4.03748
270.936	1.00098	9.73511e-06	3.97949
271.386	1.00128	9.79614e-06	4.07654
271.836	1.00098	1.01624e-05	4.07684
272.286	1.00006	9.61304e-06	3.95996
272.736	1.00037	9.61304e-06	4.07715
273.186	1.00128	8.63647e-06	3.80402
273.636	1.00037	9.12476e-06	3.95996
274.086	1.00037	8.81958e-06	3.9801
274.536	1.00128	9.09424e-06	4.03778
274.986	1.00037	8.42285e-06	3.90167
275.436	1.00128	9.00269e-06	4.01794
275.886	1.00037	9.0332e-06	4.07654
276.336	0.999756	8.36182e-06	4.01855
276.786	1.00006	8.60596e-06	4.07776
277.236	1.00037	8.02612e-06	3.94043
277.686	1.00037	8.08716e-06	3.92059
278.136	1.00128	7.26318e-06	4.05792
278.586	1.00006	7.23267e-06	4.03809
279.036	1.00067	7.32422e-06	3.92059
279.486	1.00159	7.47681e-06	4.07715
279.936	1.00037	6.92749e-06	3.9798
280.386	1.00037	7.65991e-06	3.96027
280.836	1.00098	7.72095e-06	4.03778
281.286	1.00128	7.2937e-06	3.97949
281.736	1.00037	7.65991e-06	4.05762
282.186	0.999756	7.47681e-06	3.94104
282.636	1.00006	7.99561e-06	4.05731
283.086	0.999756	7.26318e-06	3.95996
283.536	1.00098	7.20215e-06	4.05792
283.986	1.00098	7.62939e-06	4.05701
284.436	1.00128	7.17163e-06	3.90137
284.886	1.00098	7.72095e-06	4.0567
285.336	1.00098	8.02612e-06	4.13605
285.786	1.00006	7.99561e-06	4.05731
286.236	1.00006	7.62939e-06	3.99902
286.686	1.00098	7.41577e-06	3.88123
287.136	1.00128	7.90405e-06	4.05701
287.586	0.999146	7.8125e-06	4.03778
288.036	1.00159	7.23267e-06	3.9801
288.486	1.00037	7.23267e-06	3.9209
288.936	1.00037	7.44629e-06	3.97949
289.386	1.00067	7.72095e-06	3.99902
289.836	1.00067	7.84302e-06	4.13605
290.286	1.00098	6.95801e-06	3.95996
290.736	1.00037	7.53784e-06	4.05731
291.186	1.00037	6.92749e-06	3.92059
291.636	1.00159	7.2937e-06	4.05731
292.086	1.00006	7.14111e-06	3.90106
292.536	1.00037	7.1106e-06	4.03809
292.986	1.00067	7.26318e-06	4.09729
293.436	1.00098	7.20215e-06	3.9798
293.886	1.00037	7.38525e-06	3.95966
294.336	0.999756	7.65991e-06	4.09668
294.786	0.999451	7.87354e-06	4.15466
295.236	1.00159	6.5918e-06	3.88123
295.686	1.00067	7.04956e-06	3.97949
296.136	1.00006	7.1106e-06	4.05701
296.586	1.00037	7.14111e-06	4.01917
297.036	1.00006	7.41577e-06	4.05762
297.486	1.00098	7.20215e-06	4.03748
297.936	1.00159	6.92749e-06	3.9798
298.386	1.00098	6.92749e-06	3.95996
298.836	1.00037	6.89697e-06	3.99872
299.286	1.00006	6.74438e-06	4.01825
299.736	1.00006	6.65283e-06	3.88214
300.186	1.00006	7.14111e-06	4.07654
300.636	1.00006	7.44629e-06	4.07684
301.086	1.00189	6.95801e-06	3.9798
301.536	1.00098	6.80542e-06	3.92059
301.996	-0.897827	-0.00179932	4.05853
302.446	-0.898743	-0.00136719	3.90259
302.896	-0.898132	-0.00109406	3.703
303.346	-0.8984375	-0.000913391	3.56659
303.796	-0.897522	-0.000787354	3.46893
304.246	-0.899048	-0.00069458	3.44849
304.696	-0.898743	-0.000625916	3.35083
305.146	-0.8984375	-0.000572205	3.21381
305.596	-0.898743	-0.000527954	3.23334
306.046	-0.899048	-0.000491943	3.11676
306.496	-0.898132	-0.000489075	3.07831
306.946	-0.897522	-0.000462646	3.07739
307.396	-0.897827	-0.00043988	2.94098
307.846	-0.8984375	-0.000419403	3.00018
308.296	-0.899048	-0.000401398	2.92145
308.746	-0.899658	-0.000385406	2.92175
309.196	-0.899353	-0.000370483	2.88239
309.646	-0.898743	-0.000357086	2.82318
310.096	-0.898132	-0.000344879	2.86285
310.546	-0.899048	-0.000333313	2.74567
310.996	-0.899353	-0.000322357	2.80396
311.446	-0.897522	-0.000312744	2.82349
311.896	-0.898743	-0.000303558	2.80426
312.346	-0.899048	-0.000294891	2.7652
312.796	-0.897522	-0.000286713	2.74597
313.246	-0.8984375	-0.0002789	2.78442
313.696	-0.899353	-0.000271667	2.80396
314.146	-0.898132	-0.000265625	2.74506
314.596	-0.897827	-0.000259247	2.80396
315.046	-0.898132	-0.000253204	2.84302
315.496	-0.897827	-0.00024765	2.74567
315.946	-0.899048	-0.000241852	2.78381
316.396	-0.8984375	-0.00023703	2.7655
316.846	-0.898132	-0.000231873	2.72644
317.296	-0.899048	-0.000227356	2.66785
317.746	-0.899048	-0.000222717	2.74567
318.196	-0.8984375	-0.000218323	2.78473
318.646	-0.898743	-0.0002146	2.68799
319.096	-0.8984375	-0.000210785	2.74567
319.546	-0.898132	-0.000206757	2.68799
319.996	-0.899048	-0.000203156	2.62878
320.446	-0.899048	-0.000199432	2.74536
320.896	-0.897827	-0.000196472	2.7066
321.346	-0.899048	-0.000193848	2.62878
321.796	-0.899048	-0.000190155	2.64801
322.246	-0.897827	-0.000187378	2.66754
322.696	-0.8984375	-0.00018454	2.70721
323.146	-0.8984375	-0.000181732	2.74567
323.596	-0.897827	-0.00017923	2.70721
324.046	-0.899353	-0.00017688	2.66785
324.496	-0.898132	-0.000174835	2.68768
324.946	-0.899048	-0.000172577	2.70721
325.396	-0.899658	-0.000170319	2.66815
325.846	-0.897827	-0.000167969	2.72644
326.296	-0.897827	-0.000166229	2.78381
326.746	-0.899048	-0.000164551	2.66754
327.196	-0.897827	-0.000162506	2.70691
327.646	-0.899658	-0.000160522	2.66754
328.096	-0.897522	-0.000159088	2.58942
328.546	-0.899048	-0.00015744	2.78412
328.996	-0.898132	-0.000156067	2.64832
329.446	-0.898743	-0.000154877	2.66785
329.896	-0.898132	-0.000153107	2.68768
330.346	-0.898743	-0.000152374	2.55096
330.796	-0.8984375	-0.000150574	2.68768
331.246	-0.899048	-0.000149567	2.78503
331.696	-0.899048	-0.000148468	2.64893
332.146	-0.897522	-0.00014743	2.62939
332.596	-0.899048	-0.000146515	2.60956
333.046	-0.898132	-0.000145142	2.60895
333.496	-0.898132	-0.000144043	2.7066
333.946	-0.899048	-0.000142273	2.66785
334.396	-0.897827	-0.000141479	2.6886
334.846	-0.898743	-0.00014032	2.72614
335.296	-0.898132	-0.000139648	2.64862
335.746	-0.897522	-0.000138489	2.68707
336.196	-0.898743	-0.000137726	2.62848
336.646	-0.897522	-0.000137268	2.62848
337.096	-0.899048	-0.000136444	2.68768
337.546	-0.898743	-0.000135834	2.68768
337.996	-0.898132	-0.000134796	2.64801
338.446	-0.899353	-0.000134308	2.66724
338.896	-0.897827	-0.000133545	2.64801
339.346	-0.898743	-0.000132782	2.76489
339.796	-0.899353	-0.00013269	2.68799
340.246	-0.898132	-0.000132202	2.60925
340.696	-0.899048	-0.00013147	2.60895
341.146	-0.898743	-0.000130676	2.74597
341.596	-0.897827	-0.00013028	2.62817
342.046	-0.898132	-0.000129608	2.70691
342.496	-0.899658	-0.000129578	2.55096
342.946	-0.899048	-0.00012912	2.70752
343.396	-0.898132	-0.000128845	2.56958
343.846	-0.899353	-0.000128448	2.57019
344.296	-0.898132	-0.000127869	2.70721
344.746	-0.898743	-0.000127441	2.64832
345.196	-0.899048	-0.00012735	2.62878
345.646	-0.898132	-0.000127014	2.66785
346.096	-0.899048	-0.000126892	2.53143
346.546	-0.899353	-0.000126282	2.64832
346.996	-0.897522	-0.000126099	2.66724
347.446	-0.899048	-0.000125305	2.66785
347.896	-0.897827	-0.000125671	2.60956
348.346	-0.897522	-0.000125183	2.66815
348.796	-0.899048	-0.000124817	2.64862
349.246	-0.899048	-0.000124176	2.78503
349.696	-0.8984375	-0.000124664	2.58911
350.146	-0.8984375	-0.000124298	2.68738
350.596	-0.898743	-0.000123962	2.66785
351.046	-0.898132	-0.000123962	2.64801
351.496	-0.898132	-0.000123871	2.62909
351.946	-0.899048	-0.000123688	2.68829
352.396	-0.898743	-0.000123413	2.66785
352.846	-0.898743	-0.000123474	2.53113
353.296	-0.8984375	-0.000123322	2.58911
353.746	-0.8984375	-0.000122772	2.64801
354.196	-0.8984375	-0.000122925	2.62878
354.646	-0.898132	-0.000122589	2.66815
355.096	-0.8984375	-0.000122589	2.68829
355.546	-0.898743	-0.000122131	2.74536
355.996	-0.899048	-0.000122131	2.62878
356.446	-0.8984375	-0.000121552	2.68768
356.896	-0.899048	-0.000121521	2.68738
357.346	-0.897827	-0.00012207	2.42828
357.796	-0.899048	-0.000121338	2.68768
358.246	-0.898132	-0.000121277	2.62909
358.696	-0.898743	-0.00012146	2.55096
359.146	-0.897522	-0.000120636	2.72644
359.596	-0.898743	-0.00012088	2.64832
360.046	-0.897522	-0.000120667	2.64862
360.496	-0.899048	-0.000120483	2.72278
360.946	-0.899048	-0.000120483	2.68768
361.396	-0.897827	-0.000121246	2.70691
361.856	0.999451	0.00454498	2.64618
362.306	0.999146	0.0037558	2.84119
362.756	1.00128	0.00313721	3.01758
363.206	1.00037	0.00259644	3.42712
363.656	1.00037	0.00210449	3.60352
364.106	0.999451	0.00164459	3.78479
364.556	1.00006	0.00116699	4.05762
365.006	1.00067	0.000365601	3.88245
365.456	1.00128	0.000158569	3.92059
365.906	1.00067	0.000118103	4.01794
366.356	1.00067	9.73816e-05	4.03809
366.806	0.999756	8.36487e-05	4.03809
367.256	1.00006	7.37305e-05	4.01917
367.706	1.00037	6.5979e-05	4.01825
368.156	1.00098	5.94482e-05	3.94104
368.606	1.00037	5.42603e-05	4.01917
369.056	1.00128	4.98352e-05	3.97919
369.506	1.00098	4.60815e-05	3.92059
369.956	1.00128	4.32739e-05	4.05731
370.406	1.00067	3.9917e-05	3.8623
370.856	1.00006	3.81775e-05	4.11621
371.306	0.999756	3.48511e-05	3.94073
371.756	1.00037	3.29285e-05	4.03748
372.206	0.999756	3.09143e-05	3.97949
372.656	1.00128	2.90833e-05	3.96027
373.106	1.00098	2.75879e-05	4.01825
373.556	1.00037	2.58484e-05	3.96027
374.006	0.999756	2.4353e-05	3.96057
374.456	1.00067	2.29797e-05	3.98041
374.906	1.00037	2.18811e-05	3.96057
375.356	1.00037	2.15454e-05	4.09698
375.806	1.00067	2.01721e-05	3.96027
376.256	0.999756	1.97449e-05	3.94104
376.706	0.999756	1.89514e-05	3.88123
377.156	1.00128	1.80054e-05	3.90106
377.606	1.00128	1.72119e-05	3.96057
378.056	1.00037	1.71814e-05	4.03778
378.506	1.00037	1.69373e-05	4.03809
378.956	1.00128	1.66931e-05	4.0387
379.406	0.999756	1.62964e-05	4.03839
379.856	1.00037	1.63574e-05	3.96057
380.306	0.999146	1.57471e-05	3.8623
380.756	0.999756	1.48315e-05	3.97949
381.206	1.00098	1.47095e-05	3.94135
381.656	0.999756	1.45264e-05	4.03809
382.106	1.00037	1.36108e-05	3.86261
382.556	1.00067	1.36414e-05	4.05823
383.006	1.00098	1.29395e-05	3.8623
383.456	0.999756	1.34277e-05	4.03809
383.906	1.00006	1.29395e-05	3.96088
384.356	1.00159	1.30005e-05	4.03809
384.806	1.00098	1.27258e-05	3.9798
385.256	1.00098	1.24207e-05	3.90137
385.706	1.00067	1.23291e-05	3.94012
386.156	1.00128	1.18408e-05	3.862
386.606	1.00037	1.22375e-05	4.01855
387.056	1.00037	1.21155e-05	4.01855
387.506	1.00037	1.17798e-05	4.01855
387.956	1.00128	1.1261e-05	3.97949
388.406	1.00159	1.09863e-05	3.90137
388.856	0.999451	1.06812e-05	4.00757
389.306	1.00037	1.07727e-05	3.94012
389.756	1.00098	1.11084e-05	3.9798
390.206	1.00006	1.08032e-05	3.94012
390.656	1.00159	1.0376e-05	3.96057
391.106	1.00037	1.03149e-05	3.94043
391.556	1.00037	1.01013e-05	3.99872
392.006	1.00159	9.91821e-06	3.97919
392.456	1.00006	1.0376e-05	4.1748
392.906	1.00037	9.21631e-06	3.92029
393.356	1.00128	8.88062e-06	3.93921
393.806	1.00128	9.12476e-06	4.03809
394.256	1.00006	8.81958e-06	4.03748
394.706	1.00006	8.14819e-06	4.01886
395.156	1.00098	8.20923e-06	4.03809
395.606	1.00128	8.72803e-06	3.9801
396.056	0.999146	8.78906e-06	3.96057
396.506	1.00067	8.60596e-06	4.05731
396.956	1.00098	8.42285e-06	3.96027
397.406	1.00128	8.60596e-06	3.99933
397.856	1.00189	8.27026e-06	3.94043
398.306	1.00159	7.90405e-06	3.84277
398.756	1.00159	7.72095e-06	3.99841
399.206	0.999756	7.99561e-06	3.96027
399.656	1.00067	7.78198e-06	3.90106
400.106	1.00006	8.30078e-06	4.01886
400.556	0.999451	8.27026e-06	4.05792
401.006	0.999756	8.05664e-06	3.94104
401.456	1.00128	8.27026e-06	3.99872
401.906	1.00006	8.5144e-06	4.05701
402.356	1.00098	7.99561e-06	3.94043
402.806	1.00067	7.84302e-06	3.99902
403.256	1.00037	8.20923e-06	4.05762
403.706	0.999756	8.02612e-06	3.96027
404.156	1.00098	7.78198e-06	3.94104
404.606	0.999756	7.96509e-06	4.01825
405.056	0.999756	8.36182e-06	4.07715
405.506	1.00037	7.90405e-06	4.03778
405.956	1.00128	8.20923e-06	4.05731
406.406	1.00006	7.87354e-06	3.99841
406.856	1.00037	7.8125e-06	4.03778
407.306	1.00098	7.75146e-06	4.03809
407.756	1.00067	7.65991e-06	3.92059
408.206	1.00067	7.59888e-06	3.9798
408.656	0.999451	7.72095e-06	3.94012
409.106	1.00006	7.69043e-06	3.94104
409.556	0.999451	7.93457e-06	4.05701
410.006	1.00067	7.69043e-06	4.09637
410.456	1.00189	7.56836e-06	4.01794
410.906	0.999756	7.84302e-06	4.09668
411.356	0.999756	7.32422e-06	3.9801
411.806	1.00128	7.04956e-06	3.92059
412.256	1.00098	7.14111e-06	3.96057
412.706	1.00128	7.23267e-06	4.01917
413.156	1.00006	7.41577e-06	4.05762
413.606	0.999756	7.32422e-06	3.94073
414.056	1.00006	7.20215e-06	3.90106
414.506	1.00037	7.1106e-06	3.92059
414.956	1.00098	7.26318e-06	3.97949
415.406	1.00159	7.23267e-06	3.9798
415.856	1.00006	7.23267e-06	3.99872
416.306	0.999451	7.14111e-06	3.92029
416.756	1.00006	7.04956e-06	3.97949
417.206	1.00006	7.01904e-06	3.97919
417.656	1.00006	7.17163e-06	4.03809
418.106	0.999756	7.08008e-06	3.99902
418.556	0.999146	7.08008e-06	4.03778
419.006	1.00006	6.92749e-06	3.92029
419.456	1.00037	7.23267e-06	4.01855
419.906	1.00098	7.35474e-06	4.03809
420.356	1.00128	7.1106e-06	3.94012
420.806	1.00159	7.41577e-06	3.96027
421.256	1.00067	7.41577e-06	3.95996
421.716	-0.899048	-0.00228058	4.13818
422.166	-0.898743	-0.00160858	3.98163
422.616	-0.898743	-0.00124939	3.9035
423.066	-0.897522	-0.00101624	3.64532
423.516	-0.897522	-0.000858154	3.52692
423.966	-0.899048	-0.00074707	3.44849
424.416	-0.8984375	-0.000664978	3.37036
424.866	-0.899048	-0.000602112	3.25287
425.316	-0.899048	-0.000550842	3.27179
425.766	-0.898743	-0.000511169	3.0777
426.216	-0.898743	-0.000477905	3.05878
426.666	-0.899048	-0.000476074	3.03955
427.116	-0.898743	-0.000451111	2.98004
427.566	-0.899048	-0.000429077	2.98035
428.016	-0.899048	-0.000410004	2.95959
428.466	-0.898132	-0.000393311	2.80396
428.916	-0.898132	-0.000377625	2.82349
429.366	-0.8984375	-0.000363251	2.98004
429.816	-0.897827	-0.000350769	2.86285
430.266	-0.897827	-0.000337677	2.84332
430.716	-0.898132	-0.000326508	2.86285
431.166	-0.897827	-0.000316193	2.88208
431.616	-0.899048	-0.000306396	2.78442
432.066	-0.898132	-0.000297668	2.80334
432.516	-0.897827	-0.000289124	2.86224
432.966	-0.898132	-0.000281555	2.72644
433.416	-0.8984375	-0.000273987	2.78442
433.866	-0.898132	-0.000267059	2.76459
434.316	-0.898743	-0.000260376	2.80365
434.766	-0.898743	-0.00025412	2.68799
435.216	-0.899048	-0.000248047	2.70691
435.666	-0.898743	-0.000242645	2.68707
436.116	-0.898132	-0.000237305	2.68799
436.566	-0.899353	-0.000232147	2.70691
437.016	-0.899048	-0.000227173	2.78442
437.466	-0.898132	-0.000222717	2.72614
437.916	-0.898132	-0.000218262	2.80365
438.366	-0.898132	-0.000214111	2.7066
438.816	-0.899048	-0.000210175	2.74628
439.266	-0.899048	-0.000206085	2.66785
439.716	-0.898743	-0.000202179	2.74597
440.166	-0.897827	-0.000198639	2.74475
440.616	-0.898743	-0.000195404	2.60895
441.066	-0.898743	-0.000191925	2.60925
441.516	-0.8984375	-0.00018866	2.76489
441.966	-0.899353	-0.000186371	2.66785
442.416	-0.899353	-0.000183197	2.78503
442.866	-0.899048	-0.000180756	2.76489
443.316	-0.898132	-0.000178192	2.70721
443.766	-0.897827	-0.000175171	2.68799
444.216	-0.898132	-0.000172546	2.66815
444.666	-0.8984375	-0.000170502	2.60895
445.116	-0.8984375	-0.000167877	2.64832
445.566	-0.899658	-0.000165619	2.62909
446.016	-0.897827	-0.000163605	2.72644
446.466	-0.897827	-0.000161652	2.64832
446.916	-0.899353	-0.000160034	2.74567
447.366	-0.898743	-0.00015863	2.74536
447.816	-0.897827	-0.000157227	2.64801
448.266	-0.8984375	-0.000155365	2.66754
448.716	-0.8984375	-0.00015387	2.70691
449.166	-0.899353	-0.000152435	2.64893
449.616	-0.8984375	-0.000151184	2.64862
450.066	-0.898132	-0.000149902	2.62878
450.516	-0.898743	-0.000148346	2.66815
450.966	-0.897522	-0.000147064	2.60895
451.416	-0.899048	-0.000145752	2.64832
451.866	-0.897827	-0.000144409	2.6474
452.316	-0.899048	-0.000143311	2.66724
452.766	-0.898743	-0.000142578	2.62909
453.216	-0.898743	-0.000141174	2.68799
453.666	-0.899353	-0.000140442	2.64832
454.116	-0.898743	-0.000139191	2.70752
454.566	-0.8984375	-0.000138489	2.74567
455.016	-0.8984375	-0.000137756	2.62909
455.466	-0.897217	-0.000136627	2.68768
455.916	-0.899658	-0.000135803	2.70721
456.366	-0.899048	-0.000134949	2.70721
456.816	-0.897522	-0.000134338	2.68799
457.266	-0.8984375	-0.000134125	2.59003
457.716	-0.898743	-0.000133087	2.5708
458.166	-0.897827	-0.00013269	2.64832
458.616	-0.898743	-0.000132385	2.62939
459.066	-0.8984375	-0.0001315	2.60864
459.516	-0.899048	-0.000131287	2.5708
459.966	-0.899048	-0.000130402	2.59003
460.416	-0.899353	-0.000129822	2.64801
460.866	-0.899353	-0.000128876	2.62848
461.316	-0.899048	-0.000128906	2.55005
461.766	-0.899048	-0.000128174	2.60834
462.216	-0.899658	-0.000127808	2.66785
462.666	-0.899048	-0.000127625	2.66754
463.116	-0.899048	-0.000127045	2.68738
463.566	-0.898743	-0.000127533	2.66785
464.016	-0.899658	-0.00012738	2.70691
464.466	-0.8984375	-0.000126251	2.64832
464.916	-0.898743	-0.000126007	2.59033
465.366	-0.899048	-0.000125092	2.68799
465.816	-0.897522	-0.000124847	2.68799
466.266	-0.897522	-0.000124786	2.58972
466.716	-0.899048	-0.000124176	2.68829
467.166	-0.898132	-0.000123596	2.68799
467.616	-0.899048	-0.000123413	2.64771
468.066	-0.898743	-0.000123596	2.57019
468.516	-0.8984375	-0.000123413	2.60925
468.966	-0.8984375	-0.000123169	2.64832
469.416	-0.899048	-0.000122955	2.62878
469.866	-0.898132	-0.000122223	2.7652
470.316	-0.899048	-0.000122314	2.72644
470.766	-0.898743	-0.000122009	2.66754
471.216	-0.898132	-0.000121735	2.76398
471.666	-0.897827	-0.000121887	2.66724
472.116	-0.898743	-0.000121613	2.70752
472.566	-0.899353	-0.000121643	2.66754
473.016	-0.897827	-0.000121552	2.60925
473.466	-0.899353	-0.000120972	2.78473
473.916	-0.8984375	-0.000126984	0.322083
474.366	-0.899048	-0.000121063	2.66846
474.816	-0.899048	-0.00012088	2.68768
475.266	-0.8984375	-0.00012088	2.58972
475.716	-0.898132	-0.0001203	2.72644
476.166	-0.898132	-0.00012027	2.62848
476.616	-0.899048	-0.000119904	2.62817
477.066	-0.899353	-0.0001203	2.68829
477.516	-0.898743	-0.000120392	2.64832
477.966	-0.897827	-0.00011972	2.72644
478.416	-0.897522	-0.000119995	2.64801
478.866	-0.898132	-0.000119629	2.64801
479.316	-0.898743	-0.00011911	2.70721
479.766	-0.898743	-0.000119232	2.55035
480.216	-0.8984375	-0.000118988	2.56989
480.666	-0.8984375	-0.000118988	2.56958
481.116	-0.898132	-0.000119568	2.70691
481.566	-0.898743	-0.000119843	2.58972
482.026	1.00006	0.00420013	2.80182
482.476	0.999451	0.00349152	2.91962
482.926	1.00098	0.00290375	3.13324
483.376	0.999756	0.00238342	3.48633
483.826	0.999451	0.00190521	3.75916
484.276	1.00098	0.00144501	3.82355
484.726	1.00006	0.000918579	3.90106
485.176	1.00098	0.00022702	3.92059
485.626	1.00006	0.000146362	3.9209
486.076	1.00098	0.000115417	3.97919
486.526	1.00037	9.65881e-05	3.92059
486.976	1.00037	8.34351e-05	3.91998
487.426	0.999756	7.37915e-05	3.92151
487.876	1.00067	6.63757e-05	3.94104
488.326	1.00037	6.05164e-05	4.01825
488.776	1.00128	5.53894e-05	3.90106
489.226	0.999756	5.08118e-05	3.99933
489.676	0.999756	4.7699e-05	4.13605
490.126	1.00067	3.87878e-05	0.521851
490.576	1.00128	4.13513e-05	4.11621
491.026	1.00037	3.86963e-05	4.01794
491.476	1.00037	3.58887e-05	3.90137
491.926	0.999756	3.45764e-05	4.13574
492.376	0.999756	3.20435e-05	4.05701
492.826	1.00098	2.94189e-05	3.86169
493.276	1.00037	2.80151e-05	4.01764
493.726	1.00037	2.66724e-05	3.97949
494.176	1.00189	2.45056e-05	3.88123
494.626	1.00037	2.41089e-05	3.95966
495.076	1.00128	2.25525e-05	3.99902
495.526	1.00098	2.15149e-05	3.9209
495.976	1.00037	1.953125E-05	3.89862
496.426	1.00006	2.02942e-05	3.96057
496.876	1.00037	1.93787e-05	3.92059
497.326	1.00037	1.87988e-05	3.97949
497.776	1.00128	1.80969e-05	3.94135
498.226	0.999756	1.77612e-05	3.94104
498.676	1.00098	1.76086e-05	4.07745
499.126	1.00006	1.71509e-05	4.01855
499.576	0.999756	1.66321e-05	3.94104
500.026	1.00128	1.67236e-05	4.01855
500.476	1.00006	1.71814e-05	4.15497
500.926	1.00128	1.60828e-05	3.90137
501.376	0.999756	1.58691e-05	4.03809
501.826	1.00128	1.51672e-05	4.07715
502.276	0.999451	1.4801e-05	4.01794
502.726	1.00098	1.43127e-05	4.05731
503.176	1.00098	1.37024e-05	3.94135
503.626	1.00037	1.37939e-05	4.05823
504.076	1.00037	1.31531e-05	3.96088
504.526	1.00037	1.34583e-05	3.95996
504.976	1.00098	1.27563e-05	3.94073
505.426	1.00006	1.31226e-05	4.03809
505.876	1.00098	1.26038e-05	3.94073
506.326	1.00037	1.24817e-05	3.94043
506.776	0.999756	1.24512e-05	4.03809
507.226	1.00067	1.22681e-05	4.05792
507.676	1.00037	1.19934e-05	3.95966
508.126	1.00128	1.18103e-05	3.9798
508.576	1.00037	1.15662e-05	3.94073
509.026	1.00006	1.14746e-05	4.05701
509.476	1.00098	1.12305e-05	3.9801
509.926	1.00159	1.07422e-05	3.90198
510.376	1.00098	1.09253e-05	3.96118
510.826	1.00128	1.09558e-05	4.05762
511.276	1.00128	1.10474e-05	4.11682
511.726	0.999756	1.07422e-05	3.99902
512.176	1.00067	1.07117e-05	4.05762
512.626	1.00098	1.05896e-05	4.03778
513.076	1.00037	1.00708e-05	3.9801
513.526	0.999451	9.91821e-06	3.88214
513.976	1.00128	1.00708e-05	4.03839
514.426	0.999756	9.42993e-06	3.88214
514.876	1.00159	9.3689e-06	3.88184
515.326	0.999756	9.552e-06	3.9209
515.776	1.00159	9.39941e-06	3.94043
516.226	0.999451	9.552e-06	3.93982
516.676	1.00067	9.52148e-06	3.99872
517.126	1.00067	9.3689e-06	3.95966
517.576	0.999451	9.30786e-06	3.92059
518.026	1.00128	9.33838e-06	4.03778
518.476	0.999756	9.0332e-06	3.99872
518.926	1.00006	8.75854e-06	3.94135
519.376	1.00037	8.48389e-06	3.96027
519.826	0.999451	8.81958e-06	3.9209
520.276	1.00098	8.97217e-06	4.01886
520.726	0.999756	8.81958e-06	3.95996
521.176	1.00128	8.75854e-06	3.95996
521.626	1.00006	8.39233e-06	3.92059
522.076	1.00159	8.69751e-06	3.97949
522.526	1.00006	8.75854e-06	4.07715
522.976	1.00098	8.17871e-06	3.9209
523.426	1.00128	8.36182e-06	3.97949
523.876	0.999756	8.27026e-06	3.90167
524.326	0.999756	8.45337e-06	4.07745
524.776	0.999756	8.39233e-06	4.03809
525.226	1.00006	8.08716e-06	3.88214
525.676	0.999451	8.30078e-06	3.95996
526.126	1.00006	8.36182e-06	3.97949
526.576	0.999756	8.48389e-06	4.01825
527.026	1.00006	8.17871e-06	3.862
527.476	1.00067	8.39233e-06	4.01855
527.926	0.999756	8.27026e-06	4.07745
528.376	0.999756	7.96509e-06	3.98041
528.826	1.00037	8.17871e-06	3.96027
529.276	0.999756	8.27026e-06	3.94073
529.726	0.999756	7.96509e-06	3.94043
530.176	1.00006	8.05664e-06	3.90076
530.626	1.00006	8.05664e-06	3.92059
531.076	1.00098	8.20923e-06	4.03748
531.526	1.00098	8.08716e-06	4.01855
531.976	1.00037	8.11768e-06	4.05762
532.426	1.00159	7.84302e-06	4.03839
532.876	1.00098	7.78198e-06	4.01825
533.326	1.00037	8.17871e-06	4.01855
533.776	1.00006	7.78198e-06	3.94043
534.226	0.999756	7.96509e-06	3.99872
534.676	1.00067	7.84302e-06	3.97949
535.126	1.00037	7.8125e-06	4.05762
535.576	1.00189	7.78198e-06	3.9798
536.026	1.00128	7.41577e-06	3.92059
536.476	1.00037	8.05664e-06	4.05762
536.926	1.00006	7.50732e-06	3.94043
537.376	1.00098	7.35474e-06	3.98071
537.826	1.00037	7.53784e-06	3.96057
538.276	0.999451	7.35474e-06	3.98041
538.726	0.999756	7.72095e-06	4.05731
539.176	0.999756	7.41577e-06	3.9801
539.626	1.00098	7.50732e-06	4.11713
540.076	1.00006	7.14111e-06	3.84277
540.526	1.00067	7.78198e-06	4.03778
540.976	1.00128	7.32422e-06	3.94104
541.426	1.00067	7.26318e-06	3.90106
541.886	-0.897522	-0.00194702	3.92242
542.336	-0.898132	-0.00145294	3.90289
542.786	-0.898743	-0.00114838	3.68378
543.236	-0.898743	-0.000947571	3.66486
543.686	-0.897827	-0.000811462	3.52722
544.136	-0.898132	-0.000710754	3.44788
544.586	-0.897522	-0.000637512	3.31207
545.036	-0.8984375	-0.000580139	3.23364
545.486	-0.897827	-0.000533447	3.23364
545.936	-0.898743	-0.000496826	3.0777
546.386	-0.899658	-0.000491699	3.01941
546.836	-0.899353	-0.000464325	3.00049
547.286	-0.899658	-0.000440399	2.97943
547.736	-0.898743	-0.000419983	2.8833
548.186	-0.8984375	-0.000401001	3.03925
548.636	-0.8984375	-0.000383972	3.01971
549.086	-0.898132	-0.000369568	2.86346
549.536	-0.8984375	-0.000355743	2.88208
549.986	-0.898132	-0.000343414	2.82288
550.436	-0.898132	-0.000331604	2.86224
550.886	-0.899048	-0.000320831	2.82318
551.336	-0.898743	-0.000310944	2.78442
551.786	-0.899048	-0.000301697	2.80426
552.236	-0.899048	-0.00029306	2.84271
552.686	-0.899048	-0.000284821	2.80334
553.136	-0.899048	-0.000277374	2.74628
553.586	-0.898743	-0.000269714	2.80365
554.036	-0.898743	-0.000263336	2.70721
554.486	-0.8984375	-0.000256744	2.80365
554.936	-0.898132	-0.000250549	2.76428
555.386	-0.8984375	-0.000245026	2.74536
555.836	-0.898743	-0.000239563	2.74597
556.286	-0.898743	-0.00023465	2.66754
556.736	-0.899048	-0.000229401	2.72644
557.186	-0.899048	-0.000224884	2.64832
557.636	-0.899353	-0.000220001	2.74597
558.086	-0.899048	-0.000215698	2.7655
558.536	-0.898743	-0.000211823	2.70721
558.986	-0.899353	-0.000207672	2.70691
559.436	-0.897827	-0.000203613	2.76459
559.886	-0.898132	-0.000200012	2.72614
560.336	-0.897827	-0.000196716	2.68738
560.786	-0.897827	-0.000193604	2.60956
561.236	-0.8984375	-0.000190094	2.72614
561.686	-0.898132	-0.000187286	2.7066
562.136	-0.8984375	-0.000184265	2.72675
562.586	-0.898743	-0.000181549	2.74597
563.036	-0.899353	-0.00017865	2.76459
563.486	-0.899048	-0.000176331	2.59003
563.936	-0.899048	-0.000174042	2.60956
564.386	-0.897827	-0.000171478	2.58972
564.836	-0.897522	-0.000169067	2.62848
565.286	-0.898132	-0.000166901	2.64832
565.736	-0.8984375	-0.000164764	2.76489
566.186	-0.899353	-0.000162537	2.70691
566.636	-0.899658	-0.000160706	2.70691
567.086	-0.899048	-0.000159027	2.70721
567.536	-0.899353	-0.000157562	2.60925
567.986	-0.8984375	-0.000155701	2.68768
568.436	-0.897827	-0.000154602	2.60925
568.886	-0.897827	-0.000152679	2.70721
569.336	-0.898132	-0.000151459	2.62909
569.786	-0.8984375	-0.000149475	2.74567
570.236	-0.898743	-0.000148041	2.72614
570.686	-0.898132	-0.000147491	2.57019
571.136	-0.8984375	-0.000145416	2.74536
571.586	-0.899048	-0.000144745	2.62848
572.036	-0.898743	-0.000143005	2.74597
572.486	-0.897827	-0.000142273	2.66754
572.936	-0.898132	-0.000141327	2.64832
573.386	-0.899048	-0.000140015	2.70782
573.836	-0.898132	-0.000138855	2.74597
574.286	-0.898743	-0.000138153	2.66754
574.736	-0.898743	-0.000136993	2.66693
575.186	-0.897827	-0.000136414	2.64862
575.636	-0.898132	-0.000135223	2.64771
576.086	-0.898743	-0.000134796	2.62939
576.536	-0.899048	-0.000133667	2.68799
576.986	-0.897827	-0.000133179	2.70721
577.436	-0.898743	-0.000132507	2.70721
577.886	-0.898132	-0.000131927	2.66815
578.336	-0.898743	-0.000131256	2.62848
578.786	-0.899353	-0.00013028	2.7066
579.236	-0.898132	-0.000129913	2.60895
579.686	-0.897827	-0.000129578	2.66785
580.136	-0.899048	-0.000128754	2.7066
580.586	-0.899048	-0.000128143	2.60864
581.036	-0.898743	-0.00012796	2.70752
581.486	-0.897827	-0.000127106	2.74628
581.936	-0.899048	-0.000127045	2.64832
582.386	-0.898743	-0.00012619	2.62878
582.836	-0.897217	-0.000126068	2.60895
583.286	-0.898743	-0.000125824	2.60895
583.736	-0.897522	-0.000125305	2.58911
584.186	-0.898132	-0.000125275	2.64832
584.636	-0.899658	-0.000124512	2.60986
585.086	-0.899048	-0.000123901	2.70721
585.536	-0.898132	-0.000124054	2.58911
585.986	-0.8984375	-0.000123535	2.70691
586.436	-0.898743	-0.00012326	2.72675
586.886	-0.899048	-0.000122009	2.59003
587.336	-0.898132	-0.000121521	2.68829
587.786	-0.899048	-0.000121552	2.64862
588.236	-0.898743	-0.000121613	2.64832
588.686	-0.897827	-0.00012149	2.58942
589.136	-0.898132	-0.000121368	2.68738
589.586	-0.899353	-0.000121216	2.62878
590.036	-0.898743	-0.000120483	2.66785
590.486	-0.897522	-0.000120758	2.68738
590.936	-0.8984375	-0.000120972	2.60895
591.386	-0.8984375	-0.000120667	2.59003
591.836	-0.899048	-0.000120728	2.64832
592.286	-0.897827	-0.00012085	2.59003
592.736	-0.898132	-0.000120514	2.66754
593.186	-0.8984375	-0.000121033	2.55096
593.636	-0.898743	-0.000119873	2.70721
594.086	-0.899353	-0.000119843	2.64832
594.536	-0.899353	-0.000119843	2.62878
594.986	-0.898132	-0.000119568	2.70691
595.436	-0.899048	-0.000119965	2.62848
595.886	-0.897827	-0.000119934	2.55066
596.336	-0.897827	-0.000119934	2.55066
596.786	-0.8984375	-0.000119659	2.66754
597.236	-0.898743	-0.000119476	2.70721
597.686	-0.898743	-0.00011908	2.74536
598.136	-0.899048	-0.000119202	2.68768
598.586	-0.898132	-0.000119629	2.55066
599.036	-0.899658	-0.00011908	2.62878
599.486	-0.897827	-0.000119598	2.57019
599.936	-0.897827	-0.00011908	2.66754
600.386	-0.898132	-0.00011908	2.66754
600.836	-0.898743	-0.00011911	2.60895
601.286	-0.897827	-0.000118927	2.64832
601.746	1.00128	0.00484711	2.72461
602.196	1.00098	0.00390167	2.74414
602.646	1.00098	0.00324493	3.01758
603.096	0.999756	0.00268127	3.17322
603.546	1.00128	0.00217499	3.4671
603.996	1.00128	0.00170593	3.72131
604.446	1.00159	0.00122864	3.84308
604.896	1.00037	0.000517273	3.9801
605.346	1.00006	0.000185242	3.9212
605.796	1.00037	0.000136627	4.05731
606.246	1.00098	0.000111725	3.9212
606.696	1.00006	9.4696e-05	3.84308
607.146	1.00006	8.38928e-05	4.05731
607.596	1.00159	7.43408e-05	3.96027
608.046	1.00006	6.72302e-05	4.01855
608.496	1.00006	6.12488e-05	4.01825
608.946	1.00037	5.61829e-05	3.90167
609.396	1.00006	5.21545e-05	4.07715
609.846	1.00067	4.78516e-05	4.01855
610.296	1.00037	4.41895e-05	3.90106
610.746	1.00128	4.1748e-05	4.05731
611.196	1.00067	3.93677e-05	3.9798
611.646	1.00098	3.69263e-05	3.97949
612.096	1.00128	3.42102e-05	3.97949
612.546	1.00098	3.16772e-05	3.88184
612.996	1.00067	2.99988e-05	3.92059
613.446	1.00006	2.81677e-05	3.8623
613.896	1.00067	2.74353e-05	4.09698
614.346	1.00098	2.57263e-05	3.97919
614.796	1.00006	2.40784e-05	3.94104
615.246	1.00006	2.34375e-05	4.05792
615.696	0.999756	2.18201e-05	3.84338
616.146	1.00006	2.10571e-05	3.82355
616.596	1.00006	2.06299e-05	3.9798
617.046	1.00067	2.01416e-05	3.9801
617.496	1.00067	1.9165e-05	3.9798
617.946	0.999756	1.9104e-05	4.05731
618.396	1.00006	1.80969e-05	3.99933
618.846	1.00006	1.76392e-05	4.01855
619.296	0.999756	1.70288e-05	3.88214
619.746	0.999756	1.67542e-05	4.05762
620.196	0.999451	1.64185e-05	4.01886
620.646	1.00128	1.62964e-05	4.03748
621.096	0.999756	1.54114e-05	3.84308
621.546	1.00128	1.53503e-05	3.9212
621.996	1.00006	1.49536e-05	3.84247
622.446	1.00037	1.50757e-05	4.01855
622.896	0.999756	1.47095e-05	3.97949
623.346	0.999451	1.45264e-05	4.05762
623.796	1.00098	1.40076e-05	4.13605
624.246	1.00006	1.39465e-05	4.05731
624.696	1.00067	1.34583e-05	4.01886
625.146	1.00067	1.34583e-05	4.05762
625.596	0.999756	1.297e-05	3.95874
626.046	1.00037	1.30615e-05	3.99902
626.496	1.00006	1.24512e-05	3.90106
626.946	1.00067	1.19629e-05	3.90137
627.396	1.00128	1.17798e-05	3.92151
627.846	1.00067	1.23901e-05	4.09668
628.296	1.00006	1.19019e-05	3.9801
628.746	1.00098	1.19629e-05	4.07715
629.196	1.00128	1.08032e-05	3.9798
629.646	1.00037	1.0498e-05	3.97919
630.096	1.00006	1.07117e-05	4.01855
630.546	1.00189	1.04065e-05	3.88153
630.996	0.999451	1.09558e-05	4.01825
631.446	1.00128	1.08032e-05	3.99933
631.896	1.00159	1.05591e-05	3.9209
632.346	1.00098	1.01929e-05	3.90076
632.796	0.999756	1.08643e-05	4.05792
633.246	1.00037	1.04675e-05	3.92181
633.696	1.00098	1.02539e-05	3.97949
634.146	0.999451	9.85718e-06	3.84338
634.596	1.00067	9.97925e-06	3.9798
635.046	1.00006	9.79614e-06	3.9212
635.496	1.00067	9.70459e-06	3.94043
635.946	1.00128	9.58252e-06	3.9209
636.396	1.00037	9.61304e-06	3.94043
636.846	1.00037	1.01929e-05	4.09637
637.296	1.00128	9.27734e-06	3.88123
637.746	1.00006	8.81958e-06	3.90198
638.196	1.00006	9.15527e-06	3.95996
638.646	1.00067	9.39941e-06	3.94012
639.096	1.00037	9.24683e-06	3.95966
639.546	0.999756	9.15527e-06	4.01825
639.996	1.00006	9.09424e-06	4.05762
640.446	0.999451	8.72803e-06	3.9209
640.896	0.999756	9.49097e-06	3.97888
641.346	1.00067	8.91113e-06	3.94104
641.796	1.00006	8.60596e-06	3.8623
642.246	0.999756	8.75854e-06	3.90167
642.696	0.999756	9.15527e-06	3.95996
643.146	1.00006	8.88062e-06	3.96027
643.596	1.00067	8.60596e-06	3.90137
644.046	0.999756	8.3313e-06	3.90106
644.496	1.00098	8.14819e-06	3.88275
644.946	1.00128	8.11768e-06	3.9212
645.396	1.00098	8.48389e-06	3.99902
645.846	0.999756	8.39233e-06	3.96027
646.296	0.999756	8.11768e-06	3.90167
646.746	0.999451	8.57544e-06	4.03809
647.196	1.00067	8.72803e-06	4.07776
647.646	1.00067	8.02612e-06	3.99872
648.096	1.00159	8.11768e-06	3.90137
648.546	1.00067	8.27026e-06	3.99963
648.996	1.00037	8.17871e-06	4.03809
649.446	1.00037	7.8125e-06	3.96057
649.896	1.00037	7.78198e-06	3.9209
650.346	1.00037	7.99561e-06	3.9801
650.796	1.00159	8.11768e-06	3.95966
651.246	1.00067	8.3313e-06	3.94104
651.696	1.00098	8.05664e-06	4.01825
652.146	1.00067	8.11768e-06	4.07684
652.596	1.00037	7.72095e-06	3.96057
653.046	0.999756	7.56836e-06	3.90076
653.496	1.00098	8.3313e-06	4.09698
653.946	0.999451	7.75146e-06	3.90106
654.396	0.999146	8.14819e-06	3.99902
654.846	1.00037	8.11768e-06	3.96027
655.296	0.999756	8.39233e-06	4.03748
655.746	1.00037	8.23975e-06	4.03809
656.196	1.00098	7.47681e-06	3.82355
656.646	1.00098	7.53784e-06	3.94073
657.096	1.00006	7.8125e-06	3.94043
657.546	0.999756	7.84302e-06	3.94043
657.996	0.999756	7.72095e-06	3.97949
658.446	1.00037	8.20923e-06	4.03717
658.896	1.00098	7.99561e-06	3.9798
659.346	1.00067	7.47681e-06	3.92029
659.796	0.999451	7.47681e-06	3.94073
660.246	1.00128	7.47681e-06	3.9212
660.696	0.999756	7.41577e-06	3.9212
661.146	1.00128	7.08008e-06	3.94073
661.596	1.00006	7.47681e-06	3.9798
661.636	0.999146	7.23267e-06	3.94073