File: Edgar/20230201 (1)/cv_data.txt
Potential applied (V)	Time (s)	WE(1).Current (A)	WE(1).Potential (V)
0.00259399	19.8592	-2.38037e-09	0.00287781
0.00747681	19.9569	6.86646e-09	0.0078064
0.0123596	20.0546	1.58997e-08	0.0126221
0.0172424	20.1522	1.22681e-08	0.0175323
0.0221252	20.2499	1.99585e-08	0.0223938
0.0270081	20.3475	3.02124e-08	0.0271088
0.0318909	20.4452	3.24402e-08	0.03203125
0.0367737	20.5428	3.30505e-08	0.0370087
0.0416565	20.6405	4.07715e-08	0.0419037
0.0465393	20.7382	5.00488e-08	0.0467834
0.0514221	20.8358	4.89197e-08	0.0514526
0.0563049	20.9335	5.66711e-08	0.0563354
0.0611877	21.0311	6.52161e-08	0.0610352
0.0660706	21.1288	6.71387e-08	0.0658569
0.0709534	21.2264	6.97937e-08	0.0708313
0.0758362	21.3241	7.63855e-08	0.0757141
0.080719	21.4217	8.4259e-08	0.080658
0.0856018	21.5194	8.64258e-08	0.0855103
0.0904846	21.6171	9.40247e-08	0.0903625
0.0953674	21.7147	9.8938e-08	0.0950623
0.10025	21.8124	9.94873e-08	0.0999451
0.105133	21.91	1.03912e-07	0.105072
0.110016	22.0077	1.09436e-07	0.109955
0.114899	22.1053	1.16608e-07	0.114685
0.119781	22.203	1.20331e-07	0.119659
0.124664	22.3006	1.28876e-07	0.124512
0.129547	22.3983	1.32416e-07	0.12915
0.13443	22.496	1.34186e-07	0.133972
0.139313	22.5936	1.39648e-07	0.13913
0.144196	22.6913	1.4566e-07	0.14389
0.149078	22.7889	1.50696e-07	0.148682
0.153961	22.8866	1.55487e-07	0.153748
0.158844	22.9842	1.62842e-07	0.158539
0.163727	23.0819	1.65161e-07	0.163422
0.16861	23.1796	1.64673e-07	0.168091
0.173492	23.2772	1.73401e-07	0.173187
0.178375	23.3749	1.77826e-07	0.17804
0.183258	23.4725	1.81915e-07	0.182709
0.188141	23.5702	1.87714e-07	0.187805
0.193024	23.6678	1.97693e-07	0.192688
0.197906	23.7655	1.98792e-07	0.197479
0.202789	23.8631	1.98242e-07	0.202271
0.207672	23.9608	2.09595e-07	0.207275
0.212555	24.0585	2.12402e-07	0.212128
0.217438	24.1561	2.13562e-07	0.216675
0.222321	24.2538	2.20825e-07	0.221832
0.227203	24.3514	2.32117e-07	0.226807
0.232086	24.4491	2.32819e-07	0.231537
0.236969	24.5467	2.32849e-07	0.236481
0.241852	24.6444	2.46552e-07	0.241333
0.246735	24.742	2.48077e-07	0.246246
0.251617	24.8397	2.46216e-07	0.250793
0.2565	24.9374	2.54578e-07	0.255737
0.261383	25.035	2.65259e-07	0.260803
0.266266	25.1327	2.66541e-07	0.265625
0.271149	25.2303	2.67365e-07	0.270538
0.276031	25.328	2.79724e-07	0.275391
0.280914	25.4256	2.81189e-07	0.280304
0.285797	25.5233	2.82349e-07	0.285339
0.29068	25.621	2.90466e-07	0.2901
0.295563	25.7186	2.98157e-07	0.294922
0.300446	25.8163	3.00659e-07	0.299683
0.305328	25.9139	3.01208e-07	0.305115
0.310211	26.0116	3.07617e-07	0.309967
0.315094	26.1092	3.09448e-07	0.31488
0.319977	26.2069	3.15552e-07	0.319763
0.32486	26.3045	3.24097e-07	0.324677
0.329742	26.4022	3.28979e-07	0.329529
0.334625	26.4999	3.33557e-07	0.334381
0.339508	26.5975	3.36609e-07	0.339355
0.344391	26.6952	3.41492e-07	0.344147
0.349274	26.7928	3.42407e-07	0.348969
0.354156	26.8905	3.50342e-07	0.353943
0.359039	26.9881	3.60718e-07	0.358765
0.363922	27.0858	3.63159e-07	0.363708
0.368805	27.1834	3.69263e-07	0.368561
0.373688	27.2811	3.73535e-07	0.373444
0.378571	27.3788	3.77197e-07	0.378296
0.383453	27.4764	3.76892e-07	0.383148
0.388336	27.5741	3.84827e-07	0.388031
0.393219	27.6717	3.95203e-07	0.392944
0.398102	27.7694	3.95813e-07	0.397736
0.402985	27.867	4.03442e-07	0.402679
0.407867	27.9647	4.08936e-07	0.407593
0.41275	28.0624	4.12292e-07	0.412445
0.417633	28.16	4.09851e-07	0.417297
0.422516	28.2577	4.19312e-07	0.422272
0.427399	28.3553	4.29382e-07	0.427124
0.432281	28.453	4.28772e-07	0.431976
0.437164	28.5506	4.37012e-07	0.43689
0.442047	28.6483	4.43726e-07	0.441711
0.44693	28.7459	4.47388e-07	0.446533
0.451813	28.8436	4.45557e-07	0.451538
0.456696	28.9413	4.54102e-07	0.45636
0.461578	29.0389	4.65393e-07	0.461182
0.466461	29.1366	4.62341e-07	0.466125
0.471344	29.2342	4.70581e-07	0.470978
0.476227	29.3319	4.81567e-07	0.475922
0.48111	29.4295	4.82483e-07	0.480804
0.485992	29.5272	4.81873e-07	0.485596
0.490875	29.6248	4.89502e-07	0.490479
0.495758	29.7225	4.98352e-07	0.4953
0.500641	29.8202	4.99268e-07	0.500244
0.495758	29.9178	4.96216e-07	0.495392
0.490875	30.0155	4.93164e-07	0.490509
0.485992	30.1131	4.84314e-07	0.485596
0.48111	30.2108	4.78516e-07	0.480743
0.476227	30.3084	4.75159e-07	0.475891
0.471344	30.4061	4.71191e-07	0.470947
0.466461	30.5038	4.65698e-07	0.466095
0.461578	30.6014	4.65393e-07	0.461243
0.456696	30.6991	4.57153e-07	0.45636
0.451813	30.7967	4.45251e-07	0.451385
0.44693	30.8944	4.45251e-07	0.446503
0.442047	30.992	4.37927e-07	0.441711
0.437164	31.0897	4.32129e-07	0.436798
0.432281	31.1873	4.296875E-07	0.431946
0.427399	31.285	4.32129e-07	0.427063
0.422516	31.3827	4.21143e-07	0.42218
0.417633	31.4803	4.10156e-07	0.417358
0.41275	31.578	4.13513e-07	0.412445
0.407867	31.6756	4.04968e-07	0.407593
0.402985	31.7733	3.95203e-07	0.402679
0.398102	31.8709	3.94592e-07	0.397797
0.393219	31.9686	3.97339e-07	0.392975
0.388336	32.0662	3.88184e-07	0.388062
0.383453	32.1639	3.77197e-07	0.383118
0.378571	32.2616	3.82385e-07	0.378265
0.373688	32.3592	3.71094e-07	0.373444
0.368805	32.4569	3.59497e-07	0.368469
0.363922	32.5545	3.58887e-07	0.363739
0.359039	32.6522	3.61328e-07	0.358826
0.354156	32.7498	3.52783e-07	0.353943
0.349274	32.8475	3.43018e-07	0.34906
0.344391	32.9452	3.44849e-07	0.344177
0.339508	33.0428	3.36304e-07	0.339325
0.334625	33.1405	3.26843e-07	0.334473
0.329742	33.2381	3.26538e-07	0.329559
0.32486	33.3358	3.24707e-07	0.324646
0.319977	33.4334	3.20099e-07	0.319763
0.315094	33.5311	3.10669e-07	0.31488
0.310211	33.6287	3.07312e-07	0.310028
0.305328	33.7264	2.99683e-07	0.305115
0.300446	33.8241	2.94495e-07	0.300293
0.295563	33.9217	2.92969e-07	0.295349
0.29068	34.0194	2.90222e-07	0.290436
0.285797	34.117	2.85645e-07	0.285645
0.280914	34.2147	2.76794e-07	0.280792
0.276031	34.3123	2.734375E-07	0.275879
0.271149	34.41	2.63977e-07	0.270996
0.266266	34.5076	2.62756e-07	0.266113
0.261383	34.6053	2.60315e-07	0.2612
0.2565	34.703	2.54211e-07	0.256348
0.251617	34.8006	2.50977e-07	0.251556
0.246735	34.8983	2.45361e-07	0.246613
0.241852	34.9959	2.40845e-07	0.24173
0.236969	35.0936	2.30103e-07	0.236816
0.232086	35.1912	2.29187e-07	0.231995
0.227203	35.2889	2.29492e-07	0.227081
0.222321	35.3866	2.19269e-07	0.222168
0.217438	35.4842	2.17133e-07	0.217285
0.212555	35.5819	2.15302e-07	0.212524
0.207672	35.6795	2.06299e-07	0.207611
0.202789	35.7772	1.97784e-07	0.202789
0.197906	35.8748	1.96472e-07	0.197815
0.193024	35.9725	1.94397e-07	0.192963
0.188141	36.0701	1.81061e-07	0.18811
0.183258	36.1678	1.81641e-07	0.183258
0.178375	36.2655	1.8338e-07	0.178314
0.173492	36.3631	1.74316e-07	0.173492
0.16861	36.4608	1.65344e-07	0.168549
0.163727	36.5584	1.62079e-07	0.163696
0.158844	36.6561	1.604e-07	0.158813
0.153961	36.7537	1.50146e-07	0.153961
0.149078	36.8514	1.50299e-07	0.149139
0.144196	36.949	1.45386e-07	0.144226
0.139313	37.0467	1.37299e-07	0.139252
0.13443	37.1444	1.32721e-07	0.134399
0.129547	37.242	1.28113e-07	0.129547
0.124664	37.3397	1.25092e-07	0.124664
0.119781	37.4373	1.18469e-07	0.119843
0.114899	37.535	1.18134e-07	0.11499
0.110016	37.6326	1.10748e-07	0.110046
0.105133	37.7303	1.01196e-07	0.105225
0.10025	37.828	9.90906e-08	0.100311
0.0953674	37.9256	9.4635e-08	0.0953979
0.0904846	38.0233	8.90808e-08	0.0905457
0.0856018	38.1209	8.51135e-08	0.0855713
0.080719	38.2186	8.50525e-08	0.0806274
0.0758362	38.3162	7.74536e-08	0.0757141
0.0709534	38.4139	6.80542e-08	0.0707397
0.0660706	38.5115	6.92139e-08	0.06604
0.0611877	38.6092	6.22253e-08	0.0612183
0.0563049	38.7069	5.51758e-08	0.0561829
0.0514221	38.8045	5.31311e-08	0.0514832
0.0465393	38.9022	5.10559e-08	0.0468109
0.0416565	38.9998	4.23584e-08	0.0418884
0.0367737	39.0975	3.18909e-08	0.0370544
0.0318909	39.1951	3.45459e-08	0.0321625
0.0270081	39.2928	2.65503e-08	0.0272491
0.0221252	39.3904	1.76392e-08	0.022403
0.0172424	39.4881	1.7334e-08	0.017514
0.0123596	39.5858	1.70288e-08	0.0126801
0.00747681	39.6834	7.26318e-09	0.00783081
0.00259399	39.7811	-2.38037e-09	0.00292969
-0.00228882	39.8787	2.38037e-09	-0.00197754
-0.00717163	39.9764	-6.19507e-09	-0.00687561
-0.0120544	40.074	-1.74561e-08	-0.0117523
-0.0169373	40.1717	-1.89209e-08	-0.0166534
-0.0218201	40.2694	-1.70593e-08	-0.0215088
-0.0267029	40.367	-2.54517e-08	-0.0263672
-0.0315857	40.4647	-3.62854e-08	-0.0312256
-0.0364685	40.5623	-3.15857e-08	-0.0361176
-0.0413513	40.66	-4.06494e-08	-0.0409485
-0.0462341	40.7576	-5.16052e-08	-0.0457184
-0.0511169	40.8553	-5.38025e-08	-0.0508728
-0.0559998	40.9529	-5.37415e-08	-0.0557251
-0.0608826	41.0506	-6.11267e-08	-0.0605469
-0.0657654	41.1483	-7.00684e-08	-0.0653076
-0.0706482	41.2459	-6.89697e-08	-0.070343
-0.075531	41.3436	-7.68127e-08	-0.0751648
-0.0804138	41.4412	-8.46863e-08	-0.079895
-0.0852966	41.5389	-8.54797e-08	-0.0847473
-0.0901794	41.6365	-9.1156e-08	-0.0897522
-0.0950623	41.7342	-9.49402e-08	-0.0946655
-0.0999451	41.8318	-1.00708e-07	-0.0994263
-0.104828	41.9295	-1.05194e-07	-0.104523
-0.109711	42.0272	-1.15417e-07	-0.109375
-0.114594	42.1248	-1.17279e-07	-0.114105
-0.119476	42.2225	-1.18225e-07	-0.118927
-0.124359	42.3201	-1.26587e-07	-0.123962
-0.129242	42.4178	-1.29303e-07	-0.128815
-0.134125	42.5154	-1.32507e-07	-0.133453
-0.139008	42.6131	-1.40564e-07	-0.138519
-0.14389	42.7108	-1.50421e-07	-0.143402
-0.148773	42.8084	-1.5097e-07	-0.148254
-0.153656	42.9061	-1.5155e-07	-0.153137
-0.158539	43.0037	-1.64276e-07	-0.15802
-0.163422	43.1014	-1.65375e-07	-0.162903
-0.168304	43.199	-1.63269e-07	-0.167511
-0.173187	43.2967	-1.71539e-07	-0.172516
-0.17807	43.3943	-1.8219e-07	-0.17749
-0.182953	43.492	-1.83502e-07	-0.182404
-0.187836	43.5897	-1.84998e-07	-0.187408
-0.192719	43.6873	-1.96564e-07	-0.192108
-0.197601	43.785	-1.98273e-07	-0.196991
-0.202484	43.8826	-2.00104e-07	-0.202118
-0.207367	43.9803	-2.08008e-07	-0.20694
-0.21225	44.0779	-2.14264e-07	-0.211548
-0.217133	44.1756	-2.18231e-07	-0.216461
-0.222015	44.2732	-2.20886e-07	-0.221497
-0.226898	44.3709	-2.27997e-07	-0.226166
-0.231781	44.4686	-2.2879e-07	-0.231079
-0.236664	44.5662	-2.35016e-07	-0.236115
-0.241547	44.6639	-2.45697e-07	-0.241058
-0.246429	44.7615	-2.46552e-07	-0.245728
-0.251312	44.8592	-2.5119e-07	-0.250519
-0.256195	44.9568	-2.58148e-07	-0.255646
-0.261078	45.0545	-2.6181e-07	-0.260315
-0.265961	45.1522	-2.60895e-07	-0.265137
-0.270844	45.2498	-2.69989e-07	-0.270081
-0.275726	45.3475	-2.80548e-07	-0.275024
-0.280609	45.4451	-2.77344e-07	-0.279755
-0.285492	45.5428	-2.85004e-07	-0.284637
-0.290375	45.6404	-2.94922e-07	-0.289795
-0.295258	45.7381	-2.96753e-07	-0.294403
-0.30014	45.8357	-2.92664e-07	-0.299713
-0.305023	45.9334	-3.01514e-07	-0.304626
-0.309906	46.0311	-3.10974e-07	-0.30957
-0.314789	46.1287	-3.06702e-07	-0.314423
-0.319672	46.2264	-3.16467e-07	-0.319305
-0.324554	46.324	-3.28064e-07	-0.324158
-0.329437	46.4217	-3.26843e-07	-0.329041
-0.33432	46.5193	-3.29895e-07	-0.333954
-0.339203	46.617	-3.36914e-07	-0.338776
-0.344086	46.7146	-3.43628e-07	-0.343689
-0.348969	46.8123	-3.45154e-07	-0.348602
-0.353851	46.91	-3.54614e-07	-0.353455
-0.358734	47.0076	-3.58887e-07	-0.358307
-0.363617	47.1053	-3.59802e-07	-0.363159
-0.3685	47.2029	-3.66211e-07	-0.368073
-0.373383	47.3006	-3.70178e-07	-0.372955
-0.378265	47.3982	-3.75061e-07	-0.377838
-0.383148	47.4959	-3.81165e-07	-0.382782
-0.388031	47.5936	-3.92761e-07	-0.387604
-0.392914	47.6912	-3.93677e-07	-0.392517
-0.397797	47.7889	-3.90625E-07	-0.397369
-0.402679	47.8865	-4.03137e-07	-0.402252
-0.407562	47.9842	-4.05884e-07	-0.407135
-0.412445	48.0818	-4.05273e-07	-0.412018
-0.417328	48.1795	-4.15039e-07	-0.41687
-0.422211	48.2771	-4.24805e-07	-0.421753
-0.427094	48.3748	-4.2572e-07	-0.426605
-0.431976	48.4725	-4.28162e-07	-0.431549
-0.436859	48.5701	-4.39758e-07	-0.436401
-0.441742	48.6678	-4.40979e-07	-0.441254
-0.446625	48.7654	-4.40063e-07	-0.446167
-0.451508	48.8631	-4.49524e-07	-0.451019
-0.45639	48.9607	-4.58374e-07	-0.455933
-0.461273	49.0584	-4.62036e-07	-0.460876
-0.466156	49.156	-4.63257e-07	-0.465759
-0.471039	49.2537	-4.73633e-07	-0.470551
-0.475922	49.3514	-4.75159e-07	-0.475494
-0.480804	49.449	-4.77905e-07	-0.480316
-0.485687	49.5467	-4.87061e-07	-0.485229
-0.49057	49.6443	-4.93774e-07	-0.490082
-0.495453	49.742	-4.96826e-07	-0.494965
-0.500336	49.8396	-4.99878e-07	-0.499908
-0.495453	49.9373	-4.98352e-07	-0.494965
-0.49057	50.035	-4.89197e-07	-0.490051
-0.485687	50.1326	-4.82788e-07	-0.48526
-0.480804	50.2303	-4.81567e-07	-0.480347
-0.475922	50.3279	-4.78516e-07	-0.475433
-0.471039	50.4256	-4.71802e-07	-0.470581
-0.466156	50.5232	-4.63867e-07	-0.465698
-0.461273	50.6209	-4.62646e-07	-0.460846
-0.45639	50.7185	-4.53186e-07	-0.455902
-0.451508	50.8162	-4.45557e-07	-0.45105
-0.446625	50.9139	-4.43115e-07	-0.446198
-0.441742	51.0115	-4.43115e-07	-0.441254
-0.436859	51.1092	-4.36096e-07	-0.436401
-0.431976	51.2068	-4.27246e-07	-0.431519
-0.427094	51.3045	-4.29382e-07	-0.426636
-0.422211	51.4021	-4.19312e-07	-0.421783
-0.417328	51.4998	-4.07104e-07	-0.41687
-0.412445	51.5974	-4.0863e-07	-0.411987
-0.407562	51.6951	-4.10767e-07	-0.407043
-0.402679	51.7928	-4.01917e-07	-0.402252
-0.397797	51.8904	-3.90625E-07	-0.3974
-0.392914	51.9881	-3.94287e-07	-0.392548
-0.388031	52.0857	-3.86047e-07	-0.387665
-0.383148	52.1834	-3.77502e-07	-0.382751
-0.378265	52.281	-3.75671e-07	-0.377869
-0.373383	52.3787	-3.76892e-07	-0.373047
-0.3685	52.4764	-3.67737e-07	-0.368073
-0.363617	52.574	-3.5553e-07	-0.36319
-0.358734	52.6717	-3.58887e-07	-0.358337
-0.353851	52.7693	-3.515625E-07	-0.353485
-0.348969	52.867	-3.43933e-07	-0.348572
-0.344086	52.9646	-3.41187e-07	-0.343658
-0.339203	53.0623	-3.40271e-07	-0.338837
-0.33432	53.1599	-3.34167e-07	-0.333954
-0.329437	53.2576	-3.2196e-07	-0.329041
-0.324554	53.3553	-3.22571e-07	-0.324158
-0.319672	53.4529	-3.15857e-07	-0.319305
-0.314789	53.5506	-3.10059e-07	-0.314423
-0.309906	53.6482	-3.05481e-07	-0.309509
-0.305023	53.7459	-3.07312e-07	-0.304626
-0.30014	53.8435	-3.00262e-07	-0.299744
-0.295258	53.9412	-2.88086e-07	-0.29483
-0.290375	54.0388	-2.8717e-07	-0.289917
-0.285492	54.1365	-2.82288e-07	-0.285126
-0.280609	54.2342	-2.76794e-07	-0.280243
-0.275726	54.3318	-2.72217e-07	-0.27536
-0.270844	54.4295	-2.72827e-07	-0.270447
-0.265961	54.5271	-2.67029e-07	-0.265625
-0.261078	54.6248	-2.55737e-07	-0.260712
-0.256195	54.7224	-2.54517e-07	-0.255798
-0.251312	54.8201	-2.47498e-07	-0.250916
-0.246429	54.9178	-2.45361e-07	-0.246124
-0.241547	55.0154	-2.39258e-07	-0.241272
-0.236664	55.1131	-2.37885e-07	-0.236328
-0.231781	55.2107	-2.33276e-07	-0.231445
-0.226898	55.3084	-2.24304e-07	-0.226532
-0.222015	55.406	-2.1759e-07	-0.22168
-0.217133	55.5037	-2.13928e-07	-0.216827
-0.21225	55.6013	-2.12708e-07	-0.211914
-0.207367	55.699	-2.02637e-07	-0.207062
-0.202484	55.7967	-2.00653e-07	-0.202148
-0.197601	55.8943	-2.03613e-07	-0.197235
-0.192719	55.992	-1.94244e-07	-0.192444
-0.187836	56.0896	-1.80969e-07	-0.1875
-0.182953	56.1873	-1.80054e-07	-0.182648
-0.17807	56.2849	-1.81793e-07	-0.177765
-0.173187	56.3826	-1.68365e-07	-0.172913
-0.168304	56.4802	-1.67419e-07	-0.167999
-0.163422	56.5779	-1.66046e-07	-0.163147
-0.158539	56.6756	-1.5802e-07	-0.158264
-0.153656	56.7732	-1.48224e-07	-0.153381
-0.148773	56.8709	-1.47888e-07	-0.148529
-0.14389	56.9685	-1.47583e-07	-0.143616
-0.139008	57.0662	-1.38855e-07	-0.138733
-0.134125	57.1638	-1.33942e-07	-0.13385
-0.129242	57.2615	-1.28357e-07	-0.129059
-0.124359	57.3592	-1.25E-07	-0.124115
-0.119476	57.4568	-1.16547e-07	-0.119232
-0.114594	57.5545	-1.13098e-07	-0.114349
-0.109711	57.6521	-1.0968e-07	-0.109436
-0.104828	57.7498	-1.06659e-07	-0.104553
-0.0999451	57.8474	-1.00098e-07	-0.0997925
-0.0950623	57.9451	-9.15222e-08	-0.0948181
-0.0901794	58.0427	-9.57031e-08	-0.0899963
-0.0852966	58.1404	-8.57849e-08	-0.0851746
-0.0804138	58.2381	-7.76062e-08	-0.0799255
-0.075531	58.3357	-7.724e-08	-0.0752258
-0.0706482	58.4334	-7.51343e-08	-0.0703735
-0.0657654	58.531	-6.67419e-08	-0.0654297
-0.0608826	58.6287	-5.70068e-08	-0.0606079
-0.0559998	58.7263	-5.90515e-08	-0.0557251
-0.0511169	58.824	-5.12695e-08	-0.0508728
-0.0462341	58.9216	-4.43115e-08	-0.0458649
-0.0413513	59.0193	-4.02527e-08	-0.0410156
-0.0364685	59.117	-4.00696e-08	-0.0361267
-0.0315857	59.2146	-3.19824e-08	-0.0312531
-0.0267029	59.3123	-2.28577e-08	-0.026358
-0.0218201	59.4099	-2.14844e-08	-0.0215057
-0.0169373	59.5076	-1.68457e-08	-0.0166565
-0.0120544	59.6052	-1.2207e-08	-0.0117493
-0.00717163	59.7029	-6.40869e-09	-0.00683594
-0.00228882	59.8006	-4.39453e-09	-0.00197449
0.00259399	59.8982	1.2207e-10	0.00285645
0.00747681	59.9959	9.8877e-09	0.00779724
0.0123596	60.0935	1.4801e-08	0.0126892
0.0172424	60.1912	1.77917e-08	0.0175079
0.0221252	60.2888	2.04773e-08	0.0224426
0.0270081	60.3865	3.01514e-08	0.027301
0.0318909	60.4841	3.16162e-08	0.0321777
0.0367737	60.5818	3.27454e-08	0.0372192
0.0416565	60.6795	4.09851e-08	0.0419983
0.0465393	60.7771	5.11169e-08	0.0467712
0.0514221	60.8748	5.33447e-08	0.0513916
0.0563049	60.9724	5.45959e-08	0.0563049
0.0611877	61.0701	6.83594e-08	0.0611877
0.0660706	61.1677	6.78406e-08	0.06604
0.0709534	61.2654	6.67725e-08	0.0707397
0.0758362	61.363	7.6416e-08	0.0756836
0.080719	61.4607	8.64563e-08	0.0806885
0.0856018	61.5584	8.77991e-08	0.0855408
0.0904846	61.656	8.81348e-08	0.0903931
0.0953674	61.7537	9.88159e-08	0.0952454
0.10025	61.8513	1.00494e-07	0.100159
0.105133	61.949	1.03485e-07	0.104889
0.110016	62.0466	1.11664e-07	0.109894
0.114899	62.1443	1.21155e-07	0.114746
0.119781	62.242	1.2207e-07	0.119537
0.124664	62.3396	1.22192e-07	0.12439
0.129547	62.4373	1.3147e-07	0.129364
0.13443	62.5349	1.3446e-07	0.134216
0.139313	62.6326	1.40198e-07	0.138947
0.144196	62.7302	1.45081e-07	0.144043
0.149078	62.8279	1.53076e-07	0.148865
0.153961	62.9255	1.56097e-07	0.153595
0.158844	63.0232	1.57501e-07	0.158356
0.163727	63.1209	1.63849e-07	0.163452
0.16861	63.2185	1.67755e-07	0.168243
0.173492	63.3162	1.74774e-07	0.172974
0.178375	63.4138	1.77338e-07	0.17807
0.183258	63.5115	1.84174e-07	0.182922
0.188141	63.6091	1.90033e-07	0.1875
0.193024	63.7068	1.92871e-07	0.192474
0.197906	63.8044	1.95343e-07	0.197571
0.202789	63.9021	2.02301e-07	0.202393
0.207672	63.9998	2.10724e-07	0.207184
0.212555	64.0974	2.08191e-07	0.212067
0.217438	64.1951	2.16064e-07	0.216949
0.222321	64.2927	2.27173e-07	0.222015
0.227203	64.3904	2.29156e-07	0.226898
0.232086	64.488	2.28119e-07	0.231567
0.236969	64.5857	2.36023e-07	0.23645
0.241852	64.6834	2.453e-07	0.241211
0.246735	64.781	2.42004e-07	0.246246
0.251617	64.8787	2.51129e-07	0.251099
0.2565	64.9763	2.6062e-07	0.256165
0.261383	65.074	2.62482e-07	0.260834
0.266266	65.1716	2.61749e-07	0.265656
0.271149	65.2693	2.70355e-07	0.270508
0.276031	65.3669	2.80212e-07	0.275482
0.280914	65.4646	2.77679e-07	0.280212
0.285797	65.5623	2.86102e-07	0.285095
0.29068	65.6599	2.9364e-07	0.290192
0.295563	65.7576	2.96356e-07	0.2948
0.300446	65.8552	2.92358e-07	0.300232
0.305328	65.9529	3.00903e-07	0.305115
0.310211	66.0505	3.12195e-07	0.309967
0.315094	66.1482	3.10669e-07	0.31488
0.319977	66.2458	3.19214e-07	0.319855
0.32486	66.3435	3.25317e-07	0.324707
0.329742	66.4412	3.25317e-07	0.329559
0.334625	66.5388	3.27454e-07	0.334381
0.339508	66.6365	3.36609e-07	0.339325
0.344391	66.7341	3.47595e-07	0.344269
0.349274	66.8318	3.45154e-07	0.349121
0.354156	66.9294	3.52783e-07	0.353882
0.359039	67.0271	3.58582e-07	0.358826
0.363922	67.1248	3.61938e-07	0.363678
0.368805	67.2224	3.61938e-07	0.36853
0.373688	67.3201	3.71399e-07	0.373413
0.378571	67.4177	3.81775e-07	0.378296
0.383453	67.5154	3.8147e-07	0.383209
0.388336	67.613	3.88489e-07	0.388
0.393219	67.7107	3.93982e-07	0.392944
0.398102	67.8083	3.96729e-07	0.397797
0.402985	67.906	3.94897e-07	0.402679
0.407867	68.0037	4.04968e-07	0.407562
0.41275	68.1013	4.16565e-07	0.412476
0.417633	68.199	4.14734e-07	0.417358
0.422516	68.2966	4.21753e-07	0.422211
0.427399	68.3943	4.28467e-07	0.427063
0.432281	68.4919	4.31519e-07	0.431946
0.437164	68.5896	4.29077e-07	0.436859
0.442047	68.6872	4.38843e-07	0.441742
0.44693	68.7849	4.49524e-07	0.446594
0.451813	68.8826	4.48914e-07	0.451508
0.456696	68.9802	4.57153e-07	0.45639
0.461578	69.0779	4.62036e-07	0.461243
0.466461	69.1755	4.66919e-07	0.466095
0.471344	69.2732	4.66003e-07	0.470947
0.476227	69.3708	4.74243e-07	0.475922
0.48111	69.4685	4.83704e-07	0.480804
0.485992	69.5662	4.8645e-07	0.485657
0.490875	69.6638	4.91638e-07	0.490479
0.495758	69.7615	4.95605e-07	0.495392
0.500641	69.8591	5.01404e-07	0.500214
0.495758	69.9568	4.93164e-07	0.4953
0.490875	70.0544	4.87671e-07	0.49057
0.485992	70.1521	4.87061e-07	0.485657
0.48111	70.2497	4.83704e-07	0.480713
0.476227	70.3474	4.7699e-07	0.4758
0.471344	70.4451	4.68445e-07	0.470978
0.466461	70.5427	4.68445e-07	0.466156
0.461578	70.6404	4.60205e-07	0.461182
0.456696	70.738	4.5105e-07	0.45639
0.451813	70.8357	4.47693e-07	0.451508
0.44693	70.9333	4.49829e-07	0.446533
0.442047	71.031	4.422e-07	0.441711
0.437164	71.1286	4.31519e-07	0.43689
0.432281	71.2263	4.36707e-07	0.431946
0.427399	71.324	4.26331e-07	0.427155
0.422516	71.4216	4.12598e-07	0.42218
0.417633	71.5193	4.13513e-07	0.417389
0.41275	71.6169	4.15344e-07	0.412476
0.407867	71.7146	4.07104e-07	0.407532
0.402985	71.8122	3.96729e-07	0.40271
0.398102	71.9099	4.00391e-07	0.397827
0.393219	72.0076	3.92151e-07	0.392944
0.388336	72.1052	3.79944e-07	0.388031
0.383453	72.2029	3.79028e-07	0.383118
0.378571	72.3005	3.81165e-07	0.378265
0.373688	72.3982	3.7323e-07	0.373413
0.368805	72.4958	3.62549e-07	0.368561
0.363922	72.5935	3.6438e-07	0.363708
0.359039	72.6911	3.57666e-07	0.358795
0.354156	72.7888	3.46985e-07	0.353912
0.349274	72.8865	3.43628e-07	0.349091
0.344391	72.9841	3.4729e-07	0.344177
0.339508	73.0818	3.37524e-07	0.339325
0.334625	73.1794	3.28979e-07	0.334442
0.329742	73.2771	3.29285e-07	0.329498
0.32486	73.3747	3.23486e-07	0.324646
0.319977	73.4724	3.11279e-07	0.319824
0.315094	73.57	3.10059e-07	0.314941
0.310211	73.6677	3.11584e-07	0.310028
0.305328	73.7654	3.03345e-07	0.305145
0.300446	73.863	2.92969e-07	0.300262
0.295563	73.9607	2.98157e-07	0.29538
0.29068	74.0583	2.90527e-07	0.290466
0.285797	74.156	2.76184e-07	0.285583
0.280914	74.2536	2.75574e-07	0.280701
0.276031	74.3513	2.79266e-07	0.275848
0.271149	74.449	2.70691e-07	0.270996
0.266266	74.5466	2.6001e-07	0.266144
0.261383	74.6443	2.63977e-07	0.26123
0.2565	74.7419	2.54822e-07	0.256348
0.251617	74.8396	2.45667e-07	0.251434
0.246735	74.9372	2.43835e-07	0.246613
0.241852	75.0349	2.46307e-07	0.24176
0.236969	75.1325	2.37274e-07	0.236908
0.232086	75.2302	2.24609e-07	0.231995
0.227203	75.3279	2.28424e-07	0.227081
0.222321	75.4255	2.19421e-07	0.22229
0.217438	75.5232	2.15302e-07	0.217346
0.212555	75.6208	2.09656e-07	0.212433
0.207672	75.7185	2.11334e-07	0.207611
0.202789	75.8161	2.02698e-07	0.202698
0.197906	75.9138	1.93024e-07	0.197784
0.193024	76.0114	1.90735e-07	0.192963
0.188141	76.1091	1.87408e-07	0.18808
0.183258	76.2068	1.8219e-07	0.183197
0.178375	76.3044	1.77521e-07	0.178314
0.173492	76.4021	1.75842e-07	0.173431
0.16861	76.4997	1.69189e-07	0.16864
0.163727	76.5974	1.60553e-07	0.163635
0.158844	76.695	1.55945e-07	0.158783
0.153961	76.7927	1.51672e-07	0.153931
0.149078	76.8904	1.46484e-07	0.149078
0.144196	76.988	1.42914e-07	0.144226
0.139313	77.0857	1.42303e-07	0.139282
0.13443	77.1833	1.35376e-07	0.134399
0.129547	77.281	1.27258e-07	0.129578
0.124664	77.3786	1.22742e-07	0.124725
0.119781	77.4763	1.19049e-07	0.119812
0.114899	77.5739	1.14319e-07	0.114929
0.110016	77.6716	1.08276e-07	0.110077
0.105133	77.7693	1.06812e-07	0.105194
0.10025	77.8669	1.01349e-07	0.100372
0.0953674	77.9646	9.26208e-08	0.0954285
0.0904846	78.0622	8.88672e-08	0.0905762
0.0856018	78.1599	8.48083e-08	0.0856323
0.080719	78.2575	8.4198e-08	0.0805664
0.0758362	78.3552	7.46155e-08	0.0758057
0.0709534	78.4528	7.34558e-08	0.0709229
0.0660706	78.5505	6.93665e-08	0.0658875
0.0611877	78.6482	6.20728e-08	0.0610046
0.0563049	78.7458	5.60913e-08	0.0562744
0.0514221	78.8435	5.14832e-08	0.0514221
0.0465393	78.9411	4.89807e-08	0.0467987
0.0416565	79.0388	3.97034e-08	0.0418915
0.0367737	79.1364	3.64075e-08	0.0370789
0.0318909	79.2341	3.32336e-08	0.0321625
0.0270081	79.3318	2.59094e-08	0.0272278
0.0221252	79.4294	1.85242e-08	0.0224182
0.0172424	79.5271	1.66016e-08	0.0175232
0.0123596	79.6247	1.44348e-08	0.0126251
0.00747681	79.7224	3.479e-09	0.00780029
0.00259399	79.82	1.40381e-09	0.00289612
-0.00228882	79.9177	1.25122e-09	-0.00211182
-0.00717163	80.0153	-6.98853e-09	-0.00698853
-0.0120544	80.113	-1.67542e-08	-0.0117584
-0.0169373	80.2107	-1.77307e-08	-0.0166595
-0.0218201	80.3083	-1.88293e-08	-0.0215393
-0.0267029	80.406	-3.2074e-08	-0.026358
-0.0315857	80.5036	-3.25317e-08	-0.0312164
-0.0364685	80.6013	-3.24097e-08	-0.0361694
-0.0413513	80.6989	-4.13818e-08	-0.0409668
-0.0462341	80.7966	-5.14221e-08	-0.0458618
-0.0511169	80.8942	-5.16968e-08	-0.05078125
-0.0559998	80.9919	-5.23987e-08	-0.0557251
-0.0608826	81.0896	-6.76575e-08	-0.0606079
-0.0657654	81.1872	-6.68945e-08	-0.0654602
-0.0706482	81.2849	-6.8634e-08	-0.0702515
-0.075531	81.3825	-7.71179e-08	-0.0751343
-0.0804138	81.4802	-8.63037e-08	-0.0802002
-0.0852966	81.5778	-8.67004e-08	-0.0849609
-0.0901794	81.6755	-8.80432e-08	-0.0896912
-0.0950623	81.7732	-9.91516e-08	-0.0947266
-0.0999451	81.8708	-9.99756e-08	-0.0995178
-0.104828	81.9685	-1.04675e-07	-0.104218
-0.109711	82.0661	-1.10901e-07	-0.109344
-0.114594	82.1638	-1.20331e-07	-0.114166
-0.119476	82.2614	-1.21887e-07	-0.118927
-0.124359	82.3591	-1.22437e-07	-0.123718
-0.129242	82.4567	-1.3028e-07	-0.128845
-0.134125	82.5544	-1.34705e-07	-0.133636
-0.139008	82.6521	-1.41235e-07	-0.138367
-0.14389	82.7497	-1.44135e-07	-0.143433
-0.148773	82.8474	-1.52161e-07	-0.148285
-0.153656	82.945	-1.56799e-07	-0.152985
-0.158539	83.0427	-1.5744e-07	-0.157776
-0.163422	83.1403	-1.62048e-07	-0.162933
-0.168304	83.238	-1.69067e-07	-0.167816
-0.173187	83.3356	-1.75446e-07	-0.172485
-0.17807	83.4333	-1.76697e-07	-0.177582
-0.182953	83.531	-1.84906e-07	-0.182373
-0.187836	83.6286	-1.89545e-07	-0.187012
-0.192719	83.7263	-1.90948e-07	-0.191864
-0.197601	83.8239	-1.9635e-07	-0.196991
-0.202484	83.9216	-2.01996e-07	-0.201843
-0.207367	84.0192	-2.08252e-07	-0.206451
-0.21225	84.1169	-2.10266e-07	-0.211578
-0.217133	84.2146	-2.18628e-07	-0.216522
-0.222015	84.3122	-2.24091e-07	-0.221008
-0.226898	84.4099	-2.26166e-07	-0.225922
-0.231781	84.5075	-2.29553e-07	-0.23114
-0.236664	84.6052	-2.36603e-07	-0.236053
-0.241547	84.7028	-2.42767e-07	-0.240692
-0.246429	84.8005	-2.44659e-07	-0.245667
-0.251312	84.8981	-2.52136e-07	-0.250519
-0.256195	84.9958	-2.58942e-07	-0.255127
-0.261078	85.0935	-2.60132e-07	-0.26004
-0.265961	85.1911	-2.63245e-07	-0.265137
-0.270844	85.2888	-2.70111e-07	-0.270081
-0.275726	85.3864	-2.7774e-07	-0.274689
-0.280609	85.4841	-2.77618e-07	-0.279755
-0.285492	85.5817	-2.85919e-07	-0.284668
-0.290375	85.6794	-2.93488e-07	-0.289185
-0.295258	85.777	-2.94922e-07	-0.294128
-0.30014	85.8747	-2.96021e-07	-0.299774
-0.305023	85.9724	-3.01514e-07	-0.304626
-0.309906	86.07	-3.08838e-07	-0.309509
-0.314789	86.1677	-3.09753e-07	-0.314484
-0.319672	86.2653	-3.19214e-07	-0.319305
-0.324554	86.363	-3.25623e-07	-0.324127
-0.329437	86.4606	-3.27759e-07	-0.329041
-0.33432	86.5583	-3.27759e-07	-0.333923
-0.339203	86.656	-3.37219e-07	-0.338837
-0.344086	86.7536	-3.44849e-07	-0.343689
-0.348969	86.8513	-3.41797e-07	-0.348602
-0.353851	86.9489	-3.515625E-07	-0.353455
-0.358734	87.0466	-3.63159e-07	-0.358398
-0.363617	87.1442	-3.63159e-07	-0.36322
-0.3685	87.2419	-3.62854e-07	-0.368103
-0.373383	87.3395	-3.71399e-07	-0.372925
-0.378265	87.4372	-3.80249e-07	-0.377838
-0.383148	87.5349	-3.75671e-07	-0.38266
-0.388031	87.6325	-3.84827e-07	-0.387604
-0.392914	87.7302	-3.97949e-07	-0.392517
-0.397797	87.8278	-3.97339e-07	-0.397308
-0.402679	87.9255	-3.95813e-07	-0.402191
-0.407562	88.0231	-4.04663e-07	-0.407135
-0.412445	88.1208	-4.13818e-07	-0.411987
-0.417328	88.2184	-4.11377e-07	-0.41687
-0.422211	88.3161	-4.19922e-07	-0.421844
-0.427094	88.4138	-4.30603e-07	-0.426636
-0.431976	88.5114	-4.30908e-07	-0.431519
-0.436859	88.6091	-4.32434e-07	-0.436401
-0.441742	88.7067	-4.39148e-07	-0.441284
-0.446625	88.8044	-4.46777e-07	-0.446136
-0.451508	88.902	-4.48914e-07	-0.451111
-0.45639	88.9997	-4.58679e-07	-0.455963
-0.461273	89.0974	-4.63257e-07	-0.460846
-0.466156	89.195	-4.65698e-07	-0.465729
-0.471039	89.2927	-4.6875E-07	-0.470551
-0.475922	89.3903	-4.74548e-07	-0.475433
-0.480804	89.488	-4.82483e-07	-0.480286
-0.485687	89.5856	-4.87061e-07	-0.485199
-0.49057	89.6833	-4.953e-07	-0.490112
-0.495453	89.7809	-4.98047e-07	-0.494934
-0.500336	89.8786	-4.96826e-07	-0.499786
-0.495453	89.9763	-4.95605e-07	-0.494995
-0.49057	90.0739	-4.89807e-07	-0.490051
-0.485687	90.1716	-4.84009e-07	-0.485199
-0.480804	90.2692	-4.80957e-07	-0.480286
-0.475922	90.3669	-4.80042e-07	-0.475403
-0.471039	90.4645	-4.71802e-07	-0.470581
-0.466156	90.5622	-4.61426e-07	-0.465729
-0.461273	90.6598	-4.64172e-07	-0.460846
-0.45639	90.7575	-4.54102e-07	-0.455963
-0.451508	90.8552	-4.44641e-07	-0.450989
-0.446625	90.9528	-4.44946e-07	-0.446136
-0.441742	91.0505	-4.46777e-07	-0.441284
-0.436859	91.1481	-4.35791e-07	-0.436401
-0.431976	91.2458	-4.27551e-07	-0.431549
-0.427094	91.3434	-4.29382e-07	-0.426666
-0.422211	91.4411	-4.19312e-07	-0.421783
-0.417328	91.5388	-4.10156e-07	-0.41684
-0.412445	91.6364	-4.0802e-07	-0.411987
-0.407562	91.7341	-4.10767e-07	-0.407135
-0.402679	91.8317	-4.01917e-07	-0.402252
-0.397797	91.9294	-3.92151e-07	-0.3974
-0.392914	92.027	-3.95203e-07	-0.392487
-0.388031	92.1247	-3.86963e-07	-0.387634
-0.383148	92.2223	-3.75671e-07	-0.382751
-0.378265	92.32	-3.74756e-07	-0.377869
-0.373383	92.4177	-3.75366e-07	-0.373047
-0.3685	92.5153	-3.68958e-07	-0.368073
-0.363617	92.613	-3.60413e-07	-0.36322
-0.358734	92.7106	-3.58582e-07	-0.358307
-0.353851	92.8083	-3.49731e-07	-0.353485
-0.348969	92.9059	-3.44238e-07	-0.348633
-0.344086	93.0036	-3.41492e-07	-0.343781
-0.339203	93.1012	-3.38135e-07	-0.338806
-0.33432	93.1989	-3.34778e-07	-0.333954
-0.329437	93.2966	-3.26843e-07	-0.329132
-0.324554	93.3942	-3.23486e-07	-0.324158
-0.319672	93.4919	-3.1311e-07	-0.319305
-0.314789	93.5895	-3.10364e-07	-0.314392
-0.309906	93.6872	-3.08533e-07	-0.30954
-0.305023	93.7848	-3.03955e-07	-0.304657
-0.30014	93.8825	-3.00232e-07	-0.299774
-0.295258	93.9802	-2.93884e-07	-0.294891
-0.290375	94.0778	-2.88391e-07	-0.289978
-0.285492	94.1755	-2.771e-07	-0.285126
-0.280609	94.2731	-2.75879e-07	-0.280243
-0.275726	94.3708	-2.78625e-07	-0.275391
-0.270844	94.4684	-2.65503e-07	-0.270508
-0.265961	94.5661	-2.64679e-07	-0.265625
-0.261078	94.6637	-2.63367e-07	-0.260773
-0.256195	94.7614	-2.54822e-07	-0.255829
-0.251312	94.8591	-2.42615e-07	-0.250977
-0.246429	94.9567	-2.44141e-07	-0.246094
-0.241547	95.0544	-2.44446e-07	-0.241241
-0.236664	95.152	-2.2937e-07	-0.236328
-0.231781	95.2497	-2.30225e-07	-0.231384
-0.226898	95.3473	-2.30713e-07	-0.226532
-0.222015	95.445	-2.20947e-07	-0.22168
-0.217133	95.5426	-2.11182e-07	-0.216797
-0.21225	95.6403	-2.10785e-07	-0.211884
-0.207367	95.738	-2.0752e-07	-0.207062
-0.202484	95.8356	-1.98975e-07	-0.202148
-0.197601	95.9333	-1.99615e-07	-0.197266
-0.192719	96.0309	-1.93573e-07	-0.192444
-0.187836	96.1286	-1.83929e-07	-0.187531
-0.182953	96.2262	-1.83472e-07	-0.182617
-0.17807	96.3239	-1.76819e-07	-0.177795
-0.173187	96.4216	-1.69983e-07	-0.172852
-0.168304	96.5192	-1.6571e-07	-0.16806
-0.163422	96.6169	-1.67114e-07	-0.163086
-0.158539	96.7145	-1.59302e-07	-0.158234
-0.153656	96.8122	-1.48346e-07	-0.153381
-0.148773	96.9098	-1.53107e-07	-0.14856
-0.14389	97.0075	-1.43738e-07	-0.143646
-0.139008	97.1051	-1.32477e-07	-0.138733
-0.134125	97.2028	-1.30615e-07	-0.13385
-0.129242	97.3005	-1.32202e-07	-0.128998
-0.124359	97.3981	-1.24756e-07	-0.124146
-0.119476	97.4958	-1.16486e-07	-0.119263
-0.114594	97.5934	-1.16394e-07	-0.11438
-0.109711	97.6911	-1.07971e-07	-0.109497
-0.104828	97.7887	-1.03119e-07	-0.104584
-0.0999451	97.8864	-1.02173e-07	-0.099762
-0.0950623	97.984	-9.53979e-08	-0.0949097
-0.0901794	98.0817	-8.96912e-08	-0.0899658
-0.0852966	98.1794	-8.66394e-08	-0.0850525
-0.0804138	98.277	-8.29773e-08	-0.0801392
-0.075531	98.3747	-7.18079e-08	-0.0752258
-0.0706482	98.4723	-7.04651e-08	-0.0703735
-0.0657654	98.57	-7.17773e-08	-0.0655823
-0.0608826	98.6676	-5.88379e-08	-0.0606384
-0.0559998	98.7653	-5.58777e-08	-0.0556641
-0.0511169	98.863	-5.63049e-08	-0.0509644
-0.0462341	98.9606	-4.94385e-08	-0.0459045
-0.0413513	99.0583	-3.65906e-08	-0.0410248
-0.0364685	99.1559	-3.54004e-08	-0.0361084
-0.0315857	99.2536	-3.43628e-08	-0.0312012
-0.0267029	99.3512	-2.33459e-08	-0.0263458
-0.0218201	99.4489	-2.18201e-08	-0.021521
-0.0169373	99.5465	-1.76086e-08	-0.0166779
-0.0120544	99.6442	-8.94165e-09	-0.0117401
-0.00717163	99.7419	-5.95093e-09	-0.00687866
-0.00228882	99.8395	-2.16675e-09	-0.00198669
0.000152588	99.8883	1.77002e-09	0.000515747