File: Edgar/20230201 (1)/cv_data_c.txt
Potential applied (V)	Time (s)	WE(1).Current (A)	WE(1).Potential (V)
0.00259399	15.6222	2.39258e-06	0.00292969
0.00747681	15.7198	6.86646e-06	0.0078186
0.0123596	15.8175	1.13434e-05	0.0126495
0.0172424	15.9151	1.58173e-05	0.017514
0.0221252	16.0128	2.02972e-05	0.0223938
0.0270081	16.1105	2.47742e-05	0.0272705
0.0318909	16.2081	2.9245e-05	0.0321381
0.0367737	16.3058	3.3725e-05	0.0370392
0.0416565	16.4034	3.81866e-05	0.0419128
0.0465393	16.5011	4.26605e-05	0.0467896
0.0514221	16.5987	4.71375e-05	0.0514526
0.0563049	16.6964	5.16052e-05	0.0563049
0.0611877	16.794	5.60913e-05	0.0611877
0.0660706	16.8917	6.05774e-05	0.0660095
0.0709534	16.9894	6.5033e-05	0.0709534
0.0758362	17.087	6.9519e-05	0.0757751
0.080719	17.1847	7.40051e-05	0.0806885
0.0856018	17.2823	7.84912e-05	0.0855713
0.0904846	17.38	8.29468e-05	0.0903625
0.0953674	17.4776	8.74329e-05	0.0952759
0.10025	17.5753	9.19189e-05	0.100128
0.105133	17.6729	9.63745e-05	0.105011
0.110016	17.7706	0.000100861	0.109894
0.114899	17.8683	0.000105316	0.114807
0.119781	17.9659	0.000109802	0.11969
0.124664	18.0636	0.000114288	0.124542
0.129547	18.1612	0.000118744	0.129425
0.13443	18.2589	0.00012323	0.134216
0.139313	18.3565	0.000127686	0.13916
0.144196	18.4542	0.000132172	0.143982
0.149078	18.5519	0.000136627	0.148895
0.153961	18.6495	0.000141113	0.153778
0.158844	18.7472	0.000145599	0.15863
0.163727	18.8448	0.000150055	0.163483
0.16861	18.9425	0.000154541	0.168396
0.173492	19.0401	0.000159027	0.173218
0.178375	19.1378	0.000163483	0.178162
0.183258	19.2354	0.000167969	0.182983
0.188141	19.3331	0.000172455	0.187897
0.193024	19.4308	0.000176941	0.192749
0.197906	19.5284	0.000181396	0.197662
0.202789	19.6261	0.000185852	0.202454
0.207672	19.7237	0.000190338	0.207306
0.212555	19.8214	0.000194824	0.212158
0.217438	19.919	0.00019931	0.217072
0.222321	20.0167	0.000203766	0.221893
0.227203	20.1143	0.000208252	0.226807
0.232086	20.212	0.000212708	0.231689
0.236969	20.3097	0.000217194	0.236542
0.241852	20.4073	0.00022168	0.241394
0.246735	20.505	0.000226166	0.246216
0.251617	20.6026	0.000230621	0.251129
0.2565	20.7003	0.000235107	0.255981
0.261383	20.7979	0.000239594	0.260834
0.266266	20.8956	0.000244049	0.265717
0.271149	20.9933	0.000248535	0.270569
0.276031	21.0909	0.000252991	0.275452
0.280914	21.1886	0.000257477	0.280334
0.285797	21.2862	0.000261932	0.285156
0.29068	21.3839	0.000266418	0.2901
0.295563	21.4815	0.000270905	0.294922
0.300446	21.5792	0.00027536	0.299744
0.305328	21.6768	0.000279846	0.304626
0.310211	21.7745	0.000284302	0.309509
0.315094	21.8722	0.000288818	0.314453
0.319977	21.9698	0.000293304	0.319275
0.32486	22.0675	0.00029776	0.324158
0.329742	22.1651	0.00030246	0.329529
0.334625	22.2628	0.000306946	0.334442
0.339508	22.3604	0.000311432	0.339294
0.344391	22.4581	0.000315918	0.344147
0.349274	22.5557	0.000320374	0.349091
0.354156	22.6534	0.00032486	0.353912
0.359039	22.7511	0.000329346	0.358856
0.363922	22.8487	0.000333801	0.363708
0.368805	22.9464	0.000338287	0.368622
0.373688	23.044	0.000342773	0.373444
0.378571	23.1417	0.000347229	0.378326
0.383453	23.2393	0.000351715	0.383148
0.388336	23.337	0.000356201	0.388
0.393219	23.4347	0.000360687	0.392944
0.398102	23.5323	0.000365173	0.397858
0.402985	23.63	0.000369629	0.402618
0.407867	23.7276	0.000374115	0.407593
0.41275	23.8253	0.000378571	0.412476
0.417633	23.9229	0.000383057	0.417358
0.422516	24.0206	0.000387512	0.422211
0.427399	24.1182	0.000391998	0.427124
0.432281	24.2159	0.000396484	0.431976
0.437164	24.3136	0.00040094	0.436859
0.442047	24.4112	0.000405426	0.441742
0.44693	24.5089	0.000409882	0.446564
0.451813	24.6065	0.000414368	0.451477
0.456696	24.7042	0.000418854	0.45636
0.461578	24.8018	0.00042334	0.461182
0.466461	24.8995	0.000427826	0.466064
0.471344	24.9971	0.000432281	0.470978
0.476227	25.0948	0.000436768	0.475952
0.48111	25.1925	0.000441223	0.480743
0.485992	25.2901	0.000445709	0.485596
0.490875	25.3878	0.000450195	0.490479
0.495758	25.4854	0.000454681	0.495392
0.500641	25.5831	0.000459137	0.500275
0.495758	25.6807	0.000454681	0.495392
0.490875	25.7784	0.000450195	0.490509
0.485992	25.8761	0.000445709	0.485565
0.48111	25.9737	0.000441223	0.480804
0.476227	26.0714	0.000436768	0.475861
0.471344	26.169	0.000432281	0.471008
0.466461	26.2667	0.000427826	0.466095
0.461578	26.3643	0.00042334	0.461243
0.456696	26.462	0.000418854	0.45636
0.451813	26.5596	0.000414368	0.451477
0.44693	26.6573	0.000409882	0.446625
0.442047	26.755	0.000405426	0.441711
0.437164	26.8526	0.00040094	0.436829
0.432281	26.9503	0.000396484	0.432007
0.427399	27.0479	0.000391998	0.427094
0.422516	27.1456	0.000387512	0.422211
0.417633	27.2432	0.000383026	0.417328
0.41275	27.3409	0.000378571	0.412445
0.407867	27.4385	0.000374115	0.407593
0.402985	27.5362	0.000369629	0.402649
0.398102	27.6339	0.000365143	0.397858
0.393219	27.7315	0.000360657	0.392944
0.388336	27.8292	0.000356171	0.388062
0.383453	27.9268	0.000351685	0.383179
0.378571	28.0245	0.000347229	0.378296
0.373688	28.1221	0.000342743	0.373444
0.368805	28.2198	0.000338257	0.368622
0.363922	28.3175	0.000333801	0.363678
0.359039	28.4151	0.000329315	0.358765
0.354156	28.5128	0.000324829	0.353973
0.349274	28.6104	0.000320374	0.34906
0.344391	28.7081	0.000315887	0.344177
0.339508	28.8057	0.000311401	0.339325
0.334625	28.9034	0.000306946	0.334473
0.329742	29.001	0.00030246	0.329529
0.32486	29.0987	0.000297974	0.324646
0.319977	29.1964	0.000293488	0.319702
0.315094	29.294	0.000289032	0.31485
0.310211	29.3917	0.000284515	0.310059
0.305328	29.4893	0.00028006	0.305115
0.300446	29.587	0.000275574	0.300201
0.295563	29.6846	0.000271088	0.29538
0.29068	29.7823	0.000266602	0.290497
0.285797	29.8799	0.000262115	0.285645
0.280914	29.9776	0.00025766	0.280762
0.276031	30.0753	0.000253174	0.275879
0.271149	30.1729	0.000248718	0.271027
0.266266	30.2706	0.000244232	0.266113
0.261383	30.3682	0.000239777	0.26123
0.2565	30.4659	0.000235291	0.256378
0.251617	30.5635	0.000230804	0.251526
0.246735	30.6612	0.000226318	0.246613
0.241852	30.7589	0.000221863	0.24176
0.236969	30.8565	0.000217377	0.236816
0.232086	30.9542	0.000212891	0.231964
0.227203	31.0518	0.000208405	0.227142
0.222321	31.1495	0.000203918	0.222198
0.217438	31.2471	0.000199463	0.217407
0.212555	31.3448	0.000194977	0.212433
0.207672	31.4424	0.000190521	0.207642
0.202789	31.5401	0.000186035	0.202698
0.197906	31.6378	0.000181549	0.197845
0.193024	31.7354	0.000177063	0.192993
0.188141	31.8331	0.000172607	0.18811
0.183258	31.9307	0.000168121	0.183197
0.178375	32.0284	0.000163635	0.178314
0.173492	32.126	0.000159149	0.173431
0.16861	32.2237	0.000154694	0.168579
0.163727	32.3213	0.000150208	0.163696
0.158844	32.419	0.000145721	0.158783
0.153961	32.5167	0.000141266	0.153961
0.149078	32.6143	0.00013678	0.149078
0.144196	32.712	0.000132294	0.144196
0.139313	32.8096	0.000127838	0.139313
0.13443	32.9073	0.000123352	0.13446
0.129547	33.0049	0.000118896	0.129547
0.124664	33.1026	0.00011441	0.124695
0.119781	33.2003	0.000109924	0.119812
0.114899	33.2979	0.000105469	0.115021
0.110016	33.3956	0.000100983	0.110077
0.105133	33.4932	9.64966e-05	0.105194
0.10025	33.5909	9.2041e-05	0.100342
0.0953674	33.6885	8.74329e-05	0.0953369
0.0904846	33.7862	8.29468e-05	0.0904541
0.0856018	33.8838	7.84607e-05	0.0855408
0.080719	33.9815	7.40051e-05	0.0806885
0.0758362	34.0792	6.9519e-05	0.0757751
0.0709534	34.1768	6.5033e-05	0.0709229
0.0660706	34.2745	6.05774e-05	0.06604
0.0611877	34.3721	5.60913e-05	0.0612488
0.0563049	34.4698	5.16052e-05	0.0563049
0.0514221	34.5674	4.71313e-05	0.0513916
0.0465393	34.6651	4.26575e-05	0.0467834
0.0416565	34.7627	3.81805e-05	0.0419189
0.0367737	34.8604	3.37128e-05	0.0370361
0.0318909	34.9581	2.92389e-05	0.0321594
0.0270081	35.0557	2.4765e-05	0.0272827
0.0221252	35.1534	2.02942e-05	0.0224152
0.0172424	35.251	1.58112e-05	0.0175323
0.0123596	35.3487	1.13373e-05	0.0126556
0.00747681	35.4463	6.8634e-06	0.00777893
0.00259399	35.544	2.38464e-06	0.00292969
-0.00228882	35.6417	-2.09076e-06	-0.00195007
-0.00717163	35.7393	-6.56128e-06	-0.00684509
-0.0120544	35.837	-1.10352e-05	-0.0117249
-0.0169373	35.9346	-1.55121e-05	-0.0165863
-0.0218201	36.0323	-1.99921e-05	-0.0214508
-0.0267029	36.1299	-2.44629e-05	-0.0263275
-0.0315857	36.2276	-2.89429e-05	-0.0312012
-0.0364685	36.3252	-3.34259e-05	-0.0361237
-0.0413513	36.4229	-3.78906e-05	-0.0410095
-0.0462341	36.5206	-4.23676e-05	-0.045874
-0.0511169	36.6182	-4.68445e-05	-0.0508728
-0.0559998	36.7159	-5.13306e-05	-0.0556946
-0.0608826	36.8135	-5.58167e-05	-0.0606384
-0.0657654	36.9112	-6.03027e-05	-0.0654297
-0.0706482	37.0088	-6.47888e-05	-0.0703125
-0.075531	37.1065	-6.92444e-05	-0.0752258
-0.0804138	37.2041	-7.37305e-05	-0.0801086
-0.0852966	37.3018	-7.82166e-05	-0.0849915
-0.0901794	37.3995	-8.27026e-05	-0.0898743
-0.0950623	37.4971	-8.71582e-05	-0.0947266
-0.0999451	37.5948	-9.16443e-05	-0.0996094
-0.104828	37.6924	-9.61304e-05	-0.104431
-0.109711	37.7901	-0.000100586	-0.109375
-0.114594	37.8877	-0.000105072	-0.114197
-0.119476	37.9854	-0.000109558	-0.11908
-0.124359	38.0831	-0.000114014	-0.123962
-0.129242	38.1807	-0.0001185	-0.128876
-0.134125	38.2784	-0.000122986	-0.133667
-0.139008	38.376	-0.000127441	-0.138611
-0.14389	38.4737	-0.000131927	-0.143524
-0.148773	38.5713	-0.000136414	-0.148346
-0.153656	38.669	-0.000140869	-0.153229
-0.158539	38.7666	-0.000145355	-0.15799
-0.163422	38.8643	-0.000149841	-0.162994
-0.168304	38.962	-0.000154297	-0.167816
-0.173187	39.0596	-0.000158783	-0.172668
-0.17807	39.1573	-0.000163269	-0.177551
-0.182953	39.2549	-0.000167725	-0.182465
-0.187836	39.3526	-0.000172211	-0.187286
-0.192719	39.4502	-0.000176697	-0.1922
-0.197601	39.5479	-0.000181152	-0.197021
-0.202484	39.6455	-0.000185638	-0.201874
-0.207367	39.7432	-0.000190125	-0.206757
-0.21225	39.8409	-0.00019458	-0.211639
-0.217133	39.9385	-0.000199066	-0.216492
-0.222015	40.0362	-0.000203552	-0.221375
-0.226898	40.1338	-0.000208038	-0.226227
-0.231781	40.2315	-0.000212494	-0.23111
-0.236664	40.3291	-0.00021698	-0.235992
-0.241547	40.4268	-0.000221466	-0.240845
-0.246429	40.5245	-0.000225952	-0.245758
-0.251312	40.6221	-0.000230408	-0.25061
-0.256195	40.7198	-0.000234894	-0.255432
-0.261078	40.8174	-0.00023938	-0.260315
-0.265961	40.9151	-0.000243835	-0.265198
-0.270844	41.0127	-0.000248322	-0.27005
-0.275726	41.1104	-0.000252777	-0.274963
-0.280609	41.208	-0.000257263	-0.279785
-0.285492	41.3057	-0.000261749	-0.284668
-0.290375	41.4034	-0.000266235	-0.28949
-0.295258	41.501	-0.000270721	-0.294342
-0.30014	41.5987	-0.000275177	-0.299286
-0.305023	41.6963	-0.000279663	-0.304108
-0.309906	41.794	-0.000284149	-0.309113
-0.314789	41.8916	-0.000288635	-0.313904
-0.319672	41.9893	-0.000293121	-0.318817
-0.324554	42.0869	-0.000297607	-0.323578
-0.329437	42.1846	-0.000302063	-0.32843
-0.33432	42.2823	-0.000306549	-0.333923
-0.339203	42.3799	-0.000311035	-0.338837
-0.344086	42.4776	-0.000315521	-0.34375
-0.348969	42.5752	-0.000320007	-0.348572
-0.353851	42.6729	-0.000324463	-0.353455
-0.358734	42.7705	-0.000328949	-0.358307
-0.363617	42.8682	-0.000333435	-0.36319
-0.3685	42.9659	-0.000337891	-0.368134
-0.373383	43.0635	-0.000342377	-0.373047
-0.378265	43.1612	-0.000346863	-0.377838
-0.383148	43.2588	-0.000351349	-0.382721
-0.388031	43.3565	-0.000355835	-0.387634
-0.392914	43.4541	-0.000360321	-0.392456
-0.397797	43.5518	-0.000364777	-0.397369
-0.402679	43.6494	-0.000369263	-0.402283
-0.407562	43.7471	-0.000373749	-0.407135
-0.412445	43.8448	-0.000378204	-0.411987
-0.417328	43.9424	-0.00038269	-0.416901
-0.422211	44.0401	-0.000387177	-0.421753
-0.427094	44.1377	-0.000391663	-0.426697
-0.431976	44.2354	-0.000396118	-0.431549
-0.436859	44.333	-0.000400604	-0.436432
-0.441742	44.4307	-0.00040509	-0.441345
-0.446625	44.5283	-0.000409576	-0.446136
-0.451508	44.626	-0.0004140625	-0.45105
-0.45639	44.7237	-0.000418518	-0.455811
-0.461273	44.8213	-0.000423004	-0.460754
-0.466156	44.919	-0.00042749	-0.465637
-0.471039	45.0166	-0.000431946	-0.47052
-0.475922	45.1143	-0.000436432	-0.475433
-0.480804	45.2119	-0.000440918	-0.480286
-0.485687	45.3096	-0.000445404	-0.485199
-0.49057	45.4073	-0.00044989	-0.490051
-0.495453	45.5049	-0.000454346	-0.494965
-0.500336	45.6026	-0.000458832	-0.499847
-0.495453	45.7002	-0.000454346	-0.494965
-0.49057	45.7979	-0.00044989	-0.490082
-0.485687	45.8955	-0.000445404	-0.485168
-0.480804	45.9932	-0.000440918	-0.480286
-0.475922	46.0908	-0.000436462	-0.475464
-0.471039	46.1885	-0.000431976	-0.470551
-0.466156	46.2862	-0.00042749	-0.465668
-0.461273	46.3838	-0.000423004	-0.460876
-0.45639	46.4815	-0.000418518	-0.455933
-0.451508	46.5791	-0.0004140625	-0.45105
-0.446625	46.6768	-0.000409546	-0.446198
-0.441742	46.7744	-0.00040509	-0.441315
-0.436859	46.8721	-0.000400604	-0.43634
-0.431976	46.9697	-0.000396118	-0.431519
-0.427094	47.0674	-0.000391663	-0.426636
-0.422211	47.1651	-0.000387177	-0.421814
-0.417328	47.2627	-0.00038269	-0.41687
-0.412445	47.3604	-0.000378204	-0.412018
-0.407562	47.458	-0.000373749	-0.407166
-0.402679	47.5557	-0.000369293	-0.402222
-0.397797	47.6533	-0.000364807	-0.397369
-0.392914	47.751	-0.000360321	-0.392456
-0.388031	47.8487	-0.000355835	-0.387604
-0.383148	47.9463	-0.000351349	-0.38269
-0.378265	48.044	-0.000346863	-0.377838
-0.373383	48.1416	-0.000342407	-0.372955
-0.3685	48.2393	-0.000337921	-0.368103
-0.363617	48.3369	-0.000333435	-0.36322
-0.358734	48.4346	-0.000328949	-0.358337
-0.353851	48.5322	-0.000324493	-0.353424
-0.348969	48.6299	-0.000320007	-0.348541
-0.344086	48.7276	-0.000315521	-0.343689
-0.339203	48.8252	-0.000311066	-0.338806
-0.33432	48.9229	-0.00030658	-0.333954
-0.329437	49.0205	-0.000302094	-0.329041
-0.324554	49.1182	-0.000297607	-0.324188
-0.319672	49.2158	-0.000293121	-0.319336
-0.314789	49.3135	-0.000288666	-0.314392
-0.309906	49.4111	-0.000284149	-0.309448
-0.305023	49.5088	-0.000279694	-0.304657
-0.30014	49.6065	-0.000275177	-0.299835
-0.295258	49.7041	-0.000270721	-0.294922
-0.290375	49.8018	-0.000266235	-0.290009
-0.285492	49.8994	-0.000261749	-0.285126
-0.280609	49.9971	-0.000257263	-0.280212
-0.275726	50.0947	-0.000252808	-0.27536
-0.270844	50.1924	-0.000248322	-0.270477
-0.265961	50.2901	-0.000243835	-0.265594
-0.261078	50.3877	-0.00023938	-0.260712
-0.256195	50.4854	-0.000234894	-0.255859
-0.251312	50.583	-0.000230408	-0.250946
-0.246429	50.6807	-0.000225922	-0.246094
-0.241547	50.7783	-0.000221466	-0.241211
-0.236664	50.876	-0.00021698	-0.236267
-0.231781	50.9736	-0.000212494	-0.231415
-0.226898	51.0713	-0.000208038	-0.226532
-0.222015	51.169	-0.000203522	-0.22168
-0.217133	51.2666	-0.000199036	-0.216736
-0.21225	51.3643	-0.00019458	-0.211853
-0.207367	51.4619	-0.000190094	-0.207062
-0.202484	51.5596	-0.000185608	-0.202148
-0.197601	51.6572	-0.000181122	-0.197296
-0.192719	51.7549	-0.000176666	-0.192444
-0.187836	51.8525	-0.000172211	-0.187531
-0.182953	51.9502	-0.000167694	-0.182617
-0.17807	52.0479	-0.000163239	-0.177795
-0.173187	52.1455	-0.000158752	-0.172882
-0.168304	52.2432	-0.000154266	-0.16806
-0.163422	52.3408	-0.00014978	-0.163055
-0.158539	52.4385	-0.000145325	-0.158173
-0.153656	52.5361	-0.000140839	-0.153381
-0.148773	52.6338	-0.000136353	-0.148499
-0.14389	52.7315	-0.000131897	-0.143677
-0.139008	52.8291	-0.000127411	-0.138672
-0.134125	52.9268	-0.000122925	-0.133881
-0.129242	53.0244	-0.000118439	-0.128998
-0.124359	53.1221	-0.000113983	-0.124115
-0.119476	53.2197	-0.000109497	-0.119232
-0.114594	53.3174	-0.000105011	-0.114349
-0.109711	53.415	-0.000100555	-0.109436
-0.104828	53.5127	-9.60693e-05	-0.104553
-0.0999451	53.6104	-9.15833e-05	-0.099762
-0.0950623	53.708	-8.71582e-05	-0.094696
-0.0901794	53.8057	-8.27026e-05	-0.0898743
-0.0852966	53.9033	-7.82166e-05	-0.085022
-0.0804138	54.001	-7.37305e-05	-0.0801392
-0.075531	54.0986	-6.92444e-05	-0.0752563
-0.0706482	54.1963	-6.47888e-05	-0.0703735
-0.0657654	54.2939	-6.03027e-05	-0.0654602
-0.0608826	54.3916	-5.58167e-05	-0.0606079
-0.0559998	54.4893	-5.13306e-05	-0.0556641
-0.0511169	54.5869	-4.68414e-05	-0.0508118
-0.0462341	54.6846	-4.23676e-05	-0.0458679
-0.0413513	54.7822	-3.78967e-05	-0.0409882
-0.0364685	54.8799	-3.34259e-05	-0.0361176
-0.0315857	54.9775	-2.8949e-05	-0.0312561
-0.0267029	55.0752	-2.4472e-05	-0.0263702
-0.0218201	55.1729	-1.99982e-05	-0.0214874
-0.0169373	55.2705	-1.55151e-05	-0.0166199
-0.0120544	55.3682	-1.10443e-05	-0.0117249
-0.00717163	55.4658	-6.56738e-06	-0.0068634
-0.00228882	55.5635	-2.09198e-06	-0.00195618
0.00259399	55.6611	2.39288e-06	0.00290527
0.00747681	55.7588	6.86951e-06	0.00777893
0.0123596	55.8564	1.13464e-05	0.0126465
0.0172424	55.9541	1.58173e-05	0.0175049
0.0221252	56.0518	2.02972e-05	0.0223938
0.0270081	56.1494	2.47711e-05	0.0272614
0.0318909	56.2471	2.9245e-05	0.0321594
0.0367737	56.3447	3.37128e-05	0.03703
0.0416565	56.4424	3.81805e-05	0.0419281
0.0465393	56.54	4.26575e-05	0.0467926
0.0514221	56.6377	4.71313e-05	0.0514221
0.0563049	56.7353	5.16052e-05	0.0563049
0.0611877	56.833	5.60913e-05	0.0611877
0.0660706	56.9307	6.05774e-05	0.0660706
0.0709534	57.0283	6.5033e-05	0.0709534
0.0758362	57.126	6.9519e-05	0.0758057
0.080719	57.2236	7.40051e-05	0.080658
0.0856018	57.3213	7.84607e-05	0.0855408
0.0904846	57.4189	8.29468e-05	0.0904541
0.0953674	57.5166	8.74329e-05	0.0953064
0.10025	57.6143	9.19189e-05	0.10022
0.105133	57.7119	9.63745e-05	0.105042
0.110016	57.8096	0.000100861	0.109924
0.114899	57.9072	0.000105316	0.114807
0.119781	58.0049	0.000109802	0.119629
0.124664	58.1025	0.000114288	0.124512
0.129547	58.2002	0.000118744	0.129364
0.13443	58.2978	0.00012323	0.134277
0.139313	58.3955	0.000127686	0.13916
0.144196	58.4932	0.000132172	0.144012
0.149078	58.5908	0.000136627	0.148895
0.153961	58.6885	0.000141113	0.153717
0.158844	58.7861	0.000145599	0.1586
0.163727	58.8838	0.000150055	0.163452
0.16861	58.9814	0.000154541	0.168365
0.173492	59.0791	0.000158997	0.173218
0.178375	59.1767	0.000163483	0.178162
0.183258	59.2744	0.000167969	0.182983
0.188141	59.3721	0.000172455	0.187836
0.193024	59.4697	0.00017691	0.192719
0.197906	59.5674	0.000181396	0.197571
0.202789	59.665	0.000185852	0.202393
0.207672	59.7627	0.000190338	0.207367
0.212555	59.8603	0.000194824	0.212158
0.217438	59.958	0.00019931	0.217072
0.222321	60.0557	0.000203766	0.221954
0.227203	60.1533	0.000208252	0.226776
0.232086	60.251	0.000212708	0.23172
0.236969	60.3486	0.000217194	0.236542
0.241852	60.4463	0.00022168	0.241394
0.246735	60.5439	0.000226166	0.246216
0.251617	60.6416	0.000230621	0.25119
0.2565	60.7392	0.000235107	0.256042
0.261383	60.8369	0.000239594	0.260803
0.266266	60.9346	0.000244049	0.265717
0.271149	61.0322	0.000248535	0.270538
0.276031	61.1299	0.000252991	0.275391
0.280914	61.2275	0.000257477	0.280304
0.285797	61.3252	0.000261932	0.285217
0.29068	61.4228	0.000266418	0.290039
0.295563	61.5205	0.000270905	0.294861
0.300446	61.6181	0.00027536	0.299805
0.305328	61.7158	0.000279846	0.304565
0.310211	61.8135	0.000284302	0.309509
0.315094	61.9111	0.000288818	0.314392
0.319977	62.0088	0.000293304	0.319214
0.32486	62.1064	0.00029776	0.324127
0.329742	62.2041	0.00030249	0.329498
0.334625	62.3017	0.000306946	0.334442
0.339508	62.3994	0.000311432	0.339294
0.344391	62.4971	0.000315918	0.344147
0.349274	62.5947	0.000320374	0.34906
0.354156	62.6924	0.00032486	0.353943
0.359039	62.79	0.000329346	0.358856
0.363922	62.8877	0.000333832	0.363708
0.368805	62.9853	0.000338287	0.368561
0.373688	63.083	0.000342773	0.373444
0.378571	63.1806	0.000347229	0.378326
0.383453	63.2783	0.000351715	0.38324
0.388336	63.376	0.000356201	0.388092
0.393219	63.4736	0.000360687	0.392944
0.398102	63.5713	0.000365143	0.397888
0.402985	63.6689	0.000369629	0.402679
0.407867	63.7666	0.000374115	0.407593
0.41275	63.8642	0.000378571	0.412506
0.417633	63.9619	0.000383057	0.417267
0.422516	64.0595	0.000387543	0.422211
0.427399	64.1572	0.000391998	0.427094
0.432281	64.2549	0.000396484	0.431915
0.437164	64.3525	0.00040097	0.43692
0.442047	64.4502	0.000405426	0.441681
0.44693	64.5478	0.000409912	0.446594
0.451813	64.6455	0.000414368	0.451416
0.456696	64.7431	0.000418854	0.456329
0.461578	64.8408	0.00042334	0.461243
0.466461	64.9385	0.000427826	0.466095
0.471344	65.0361	0.000432281	0.470978
0.476227	65.1338	0.000436768	0.475861
0.48111	65.2314	0.000441254	0.480713
0.485992	65.3291	0.000445709	0.485626
0.490875	65.4267	0.000450195	0.490509
0.495758	65.5244	0.000454681	0.495422
0.500641	65.622	0.000459167	0.500244
0.495758	65.7197	0.000454681	0.495361
0.490875	65.8174	0.000450195	0.490509
0.485992	65.915	0.000445709	0.485565
0.48111	66.0127	0.000441254	0.480743
0.476227	66.1103	0.000436768	0.475891
0.471344	66.208	0.000432281	0.470978
0.466461	66.3056	0.000427826	0.466095
0.461578	66.4033	0.00042334	0.461212
0.456696	66.5009	0.000418854	0.456299
0.451813	66.5986	0.000414368	0.451447
0.44693	66.6963	0.000409882	0.446594
0.442047	66.7939	0.000405426	0.441742
0.437164	66.8916	0.00040094	0.436859
0.432281	66.9892	0.000396484	0.431976
0.427399	67.0869	0.000391998	0.427124
0.422516	67.1845	0.000387512	0.422241
0.417633	67.2822	0.000383057	0.417297
0.41275	67.3799	0.000378571	0.412476
0.407867	67.4775	0.000374115	0.407532
0.402985	67.5752	0.000369629	0.402771
0.398102	67.6728	0.000365143	0.397858
0.393219	67.7705	0.000360657	0.392944
0.388336	67.8681	0.000356171	0.388092
0.383453	67.9658	0.000351715	0.383179
0.378571	68.0634	0.000347229	0.378265
0.373688	68.1611	0.000342773	0.373383
0.368805	68.2588	0.000338287	0.368622
0.363922	68.3564	0.000333801	0.363708
0.359039	68.4541	0.000329315	0.358826
0.354156	68.5517	0.000324829	0.353882
0.349274	68.6494	0.000320374	0.34906
0.344391	68.747	0.000315887	0.344208
0.339508	68.8447	0.000311401	0.339264
0.334625	68.9423	0.000306946	0.334442
0.329742	69.04	0.00030246	0.329529
0.32486	69.1377	0.000297974	0.324707
0.319977	69.2353	0.000293518	0.319794
0.315094	69.333	0.000289001	0.314972
0.310211	69.4306	0.000284515	0.309998
0.305328	69.5283	0.000280029	0.305115
0.300446	69.6259	0.000275574	0.300262
0.295563	69.7236	0.000271088	0.295319
0.29068	69.8213	0.000266602	0.290527
0.285797	69.9189	0.000262146	0.285645
0.280914	70.0166	0.00025766	0.280762
0.276031	70.1142	0.000253174	0.275879
0.271149	70.2119	0.000248718	0.271057
0.266266	70.3095	0.000244232	0.266113
0.261383	70.4072	0.000239777	0.26123
0.2565	70.5048	0.000235291	0.256378
0.251617	70.6025	0.000230804	0.251495
0.246735	70.7002	0.000226318	0.246643
0.241852	70.7978	0.000221832	0.241791
0.236969	70.8955	0.000217377	0.236877
0.232086	70.9931	0.000212891	0.231964
0.227203	71.0908	0.000208405	0.227142
0.222321	71.1884	0.000203949	0.222198
0.217438	71.2861	0.000199463	0.217377
0.212555	71.3837	0.000194977	0.212402
0.207672	71.4814	0.000190521	0.20755
0.202789	71.5791	0.000186035	0.202728
0.197906	71.6767	0.000181549	0.197815
0.193024	71.7744	0.000177094	0.192993
0.188141	71.872	0.000172607	0.18808
0.183258	71.9697	0.000168121	0.183197
0.178375	72.0673	0.000163635	0.178375
0.173492	72.165	0.00015918	0.173492
0.16861	72.2627	0.000154694	0.168579
0.163727	72.3603	0.000150208	0.163696
0.158844	72.458	0.000145721	0.158813
0.153961	72.5556	0.000141266	0.153931
0.149078	72.6533	0.00013678	0.149078
0.144196	72.7509	0.000132324	0.144196
0.139313	72.8486	0.000127838	0.139343
0.13443	72.9462	0.000123352	0.13446
0.129547	73.0439	0.000118866	0.129578
0.124664	73.1416	0.00011441	0.124664
0.119781	73.2392	0.000109924	0.119781
0.114899	73.3369	0.000105469	0.11499
0.110016	73.4345	0.000100983	0.110107
0.105133	73.5322	9.64966e-05	0.105225
0.10025	73.6298	9.2041e-05	0.100342
0.0953674	73.7275	8.74329e-05	0.0953064
0.0904846	73.8251	8.29468e-05	0.0904541
0.0856018	73.9228	7.84607e-05	0.0855408
0.080719	74.0205	7.40051e-05	0.080658
0.0758362	74.1181	6.9519e-05	0.0758057
0.0709534	74.2158	6.5033e-05	0.0709534
0.0660706	74.3134	6.05774e-05	0.06604
0.0611877	74.4111	5.60913e-05	0.0611572
0.0563049	74.5087	5.16052e-05	0.0562744
0.0514221	74.6064	4.71313e-05	0.0514221
0.0465393	74.7041	4.26575e-05	0.0467957
0.0416565	74.8017	3.81805e-05	0.0419128
0.0367737	74.8994	3.37158e-05	0.0370483
0.0318909	74.997	2.9245e-05	0.0321808
0.0270081	75.0947	2.47681e-05	0.027298
0.0221252	75.1923	2.02911e-05	0.0224182
0.0172424	75.29	1.58112e-05	0.0175232
0.0123596	75.3876	1.13373e-05	0.0126465
0.00747681	75.4853	6.86035e-06	0.00777283
0.00259399	75.583	2.38708e-06	0.00291748
-0.00228882	75.6806	-2.08374e-06	-0.00195923
-0.00717163	75.7783	-6.55823e-06	-0.00684509
-0.0120544	75.8759	-1.10321e-05	-0.01171875
-0.0169373	75.9736	-1.5509e-05	-0.0165863
-0.0218201	76.0712	-1.9989e-05	-0.02146
-0.0267029	76.1689	-2.44629e-05	-0.0263184
-0.0315857	76.2665	-2.89368e-05	-0.0311951
-0.0364685	76.3642	-3.34259e-05	-0.0361176
-0.0413513	76.4619	-3.78937e-05	-0.0410004
-0.0462341	76.5595	-4.23645e-05	-0.0458771
-0.0511169	76.6572	-4.68414e-05	-0.0509033
-0.0559998	76.7548	-5.13306e-05	-0.0557251
-0.0608826	76.8525	-5.58167e-05	-0.0606079
-0.0657654	76.9501	-6.03027e-05	-0.0654907
-0.0706482	77.0478	-6.47888e-05	-0.070343
-0.075531	77.1455	-6.92444e-05	-0.0752258
-0.0804138	77.2431	-7.37305e-05	-0.0800781
-0.0852966	77.3408	-7.82166e-05	-0.085022
-0.0901794	77.4384	-8.27026e-05	-0.08984375
-0.0950623	77.5361	-8.71582e-05	-0.0947266
-0.0999451	77.6337	-9.16443e-05	-0.0996399
-0.104828	77.7314	-9.61304e-05	-0.104492
-0.109711	77.829	-0.000100586	-0.109375
-0.114594	77.9267	-0.000105072	-0.114227
-0.119476	78.0244	-0.000109558	-0.11911
-0.124359	78.122	-0.000114014	-0.123993
-0.129242	78.2197	-0.0001185	-0.128815
-0.134125	78.3173	-0.000122986	-0.133698
-0.139008	78.415	-0.000127441	-0.138611
-0.14389	78.5126	-0.000131927	-0.143463
-0.148773	78.6103	-0.000136414	-0.148315
-0.153656	78.7079	-0.000140869	-0.153198
-0.158539	78.8056	-0.000145355	-0.15802
-0.163422	78.9033	-0.000149811	-0.162964
-0.168304	79.0009	-0.000154297	-0.167786
-0.173187	79.0986	-0.000158783	-0.172699
-0.17807	79.1962	-0.000163269	-0.177582
-0.182953	79.2939	-0.000167725	-0.182404
-0.187836	79.3915	-0.000172211	-0.187286
-0.192719	79.4892	-0.000176697	-0.192139
-0.197601	79.5869	-0.000181152	-0.196991
-0.202484	79.6845	-0.000185638	-0.201874
-0.207367	79.7822	-0.000190125	-0.206818
-0.21225	79.8798	-0.00019458	-0.21167
-0.217133	79.9775	-0.000199066	-0.216492
-0.222015	80.0751	-0.000203552	-0.221405
-0.226898	80.1728	-0.000208038	-0.226257
-0.231781	80.2704	-0.000212494	-0.231171
-0.236664	80.3681	-0.00021698	-0.236023
-0.241547	80.4658	-0.000221466	-0.240906
-0.246429	80.5634	-0.000225952	-0.245758
-0.251312	80.6611	-0.000230408	-0.25061
-0.256195	80.7587	-0.000234894	-0.255371
-0.261078	80.8564	-0.00023938	-0.260315
-0.265961	80.954	-0.000243835	-0.265106
-0.270844	81.0517	-0.000248322	-0.270111
-0.275726	81.1493	-0.000252777	-0.274933
-0.280609	81.247	-0.000257263	-0.279785
-0.285492	81.3447	-0.000261749	-0.284637
-0.290375	81.4423	-0.000266235	-0.289551
-0.295258	81.54	-0.000270721	-0.294403
-0.30014	81.6376	-0.000275177	-0.299286
-0.305023	81.7353	-0.000279663	-0.304138
-0.309906	81.8329	-0.000284149	-0.309052
-0.314789	81.9306	-0.000288635	-0.313965
-0.319672	82.0283	-0.000293121	-0.318756
-0.324554	82.1259	-0.000297577	-0.323578
-0.329437	82.2236	-0.000302063	-0.328491
-0.33432	82.3212	-0.000306549	-0.334015
-0.339203	82.4189	-0.000311035	-0.338806
-0.344086	82.5165	-0.000315491	-0.343719
-0.348969	82.6142	-0.000320007	-0.348541
-0.353851	82.7118	-0.000324463	-0.353455
-0.358734	82.8095	-0.000328949	-0.358398
-0.363617	82.9072	-0.000333435	-0.363251
-0.3685	83.0048	-0.000337891	-0.368073
-0.373383	83.1025	-0.000342377	-0.372986
-0.378265	83.2001	-0.000346863	-0.377899
-0.383148	83.2978	-0.000351349	-0.382721
-0.388031	83.3954	-0.000355835	-0.387604
-0.392914	83.4931	-0.000360291	-0.392517
-0.397797	83.5907	-0.000364807	-0.397369
-0.402679	83.6884	-0.000369263	-0.402283
-0.407562	83.7861	-0.000373749	-0.407074
-0.412445	83.8837	-0.000378204	-0.412079
-0.417328	83.9814	-0.00038269	-0.41684
-0.422211	84.079	-0.000387177	-0.421783
-0.427094	84.1767	-0.000391663	-0.426636
-0.431976	84.2743	-0.000396118	-0.43158
-0.436859	84.372	-0.000400604	-0.436371
-0.441742	84.4697	-0.00040509	-0.441284
-0.446625	84.5673	-0.000409546	-0.446136
-0.451508	84.665	-0.000414032	-0.450989
-0.45639	84.7626	-0.000418518	-0.455933
-0.461273	84.8603	-0.000423004	-0.460815
-0.466156	84.9579	-0.00042749	-0.465698
-0.471039	85.0556	-0.000431946	-0.47052
-0.475922	85.1532	-0.000436432	-0.475433
-0.480804	85.2509	-0.000440918	-0.480316
-0.485687	85.3486	-0.000445374	-0.485168
-0.49057	85.4462	-0.00044989	-0.490051
-0.495453	85.5439	-0.000454376	-0.494965
-0.500336	85.6415	-0.000458832	-0.499847
-0.495453	85.7392	-0.000454376	-0.494934
-0.49057	85.8368	-0.00044989	-0.490082
-0.485687	85.9345	-0.000445404	-0.485199
-0.480804	86.0321	-0.000440918	-0.480347
-0.475922	86.1298	-0.000436432	-0.475342
-0.471039	86.2275	-0.000431946	-0.470581
-0.466156	86.3251	-0.00042749	-0.465729
-0.461273	86.4228	-0.000423004	-0.460815
-0.45639	86.5204	-0.000418518	-0.455933
-0.451508	86.6181	-0.0004140625	-0.45105
-0.446625	86.7157	-0.000409546	-0.446106
-0.441742	86.8134	-0.00040509	-0.441284
-0.436859	86.9111	-0.000400604	-0.436371
-0.431976	87.0087	-0.000396149	-0.431488
-0.427094	87.1064	-0.000391663	-0.426636
-0.422211	87.204	-0.000387177	-0.421753
-0.417328	87.3017	-0.00038269	-0.41687
-0.412445	87.3993	-0.000378235	-0.412048
-0.407562	87.497	-0.000373749	-0.407074
-0.402679	87.5946	-0.000369263	-0.402313
-0.397797	87.6923	-0.000364807	-0.39743
-0.392914	87.79	-0.000360321	-0.392487
-0.388031	87.8876	-0.000355835	-0.387604
-0.383148	87.9853	-0.000351349	-0.382721
-0.378265	88.0829	-0.000346863	-0.377899
-0.373383	88.1806	-0.000342407	-0.372955
-0.3685	88.2782	-0.000337921	-0.368042
-0.363617	88.3759	-0.000333435	-0.363251
-0.358734	88.4735	-0.000328949	-0.358368
-0.353851	88.5712	-0.000324493	-0.353455
-0.348969	88.6689	-0.000320007	-0.348572
-0.344086	88.7665	-0.000315521	-0.343719
-0.339203	88.8642	-0.000311035	-0.338867
-0.33432	88.9618	-0.00030658	-0.333954
-0.329437	89.0595	-0.000302094	-0.329071
-0.324554	89.1571	-0.000297607	-0.324188
-0.319672	89.2548	-0.000293121	-0.319336
-0.314789	89.3525	-0.000288666	-0.314453
-0.309906	89.4501	-0.000284149	-0.309509
-0.305023	89.5478	-0.000279663	-0.304657
-0.30014	89.6454	-0.000275177	-0.299805
-0.295258	89.7431	-0.000270721	-0.294861
-0.290375	89.8407	-0.000266235	-0.289978
-0.285492	89.9384	-0.000261749	-0.285095
-0.280609	90.036	-0.000257263	-0.280273
-0.275726	90.1337	-0.000252777	-0.275391
-0.270844	90.2314	-0.000248322	-0.270447
-0.265961	90.329	-0.000243835	-0.265656
-0.261078	90.4267	-0.00023938	-0.260712
-0.256195	90.5243	-0.000234894	-0.255829
-0.251312	90.622	-0.000230408	-0.250916
-0.246429	90.7196	-0.000225922	-0.246094
-0.241547	90.8173	-0.000221436	-0.241211
-0.236664	90.9149	-0.00021698	-0.236328
-0.231781	91.0126	-0.000212494	-0.231506
-0.226898	91.1103	-0.000208008	-0.2265625
-0.222015	91.2079	-0.000203522	-0.221649
-0.217133	91.3056	-0.000199066	-0.216888
-0.21225	91.4032	-0.00019458	-0.211945
-0.207367	91.5009	-0.000190094	-0.207062
-0.202484	91.5985	-0.000185608	-0.202148
-0.197601	91.6962	-0.000181122	-0.197266
-0.192719	91.7939	-0.000176666	-0.192444
-0.187836	91.8915	-0.00017218	-0.187531
-0.182953	91.9892	-0.000167694	-0.182648
-0.17807	92.0868	-0.000163239	-0.177704
-0.173187	92.1845	-0.000158752	-0.172882
-0.168304	92.2821	-0.000154266	-0.167969
-0.163422	92.3798	-0.00014978	-0.163116
-0.158539	92.4774	-0.000145325	-0.158264
-0.153656	92.5751	-0.000140839	-0.153412
-0.148773	92.6728	-0.000136353	-0.148499
-0.14389	92.7704	-0.000131897	-0.143585
-0.139008	92.8681	-0.000127411	-0.138733
-0.134125	92.9657	-0.000122925	-0.133881
-0.129242	93.0634	-0.000118439	-0.128998
-0.124359	93.161	-0.000113983	-0.124084
-0.119476	93.2587	-0.000109497	-0.119263
-0.114594	93.3563	-0.000105011	-0.114349
-0.109711	93.454	-0.000100525	-0.109497
-0.104828	93.5517	-9.60693e-05	-0.104584
-0.0999451	93.6493	-9.15833e-05	-0.0997314
-0.0950623	93.747	-8.71582e-05	-0.0947266
-0.0901794	93.8446	-8.26721e-05	-0.08984375
-0.0852966	93.9423	-7.82166e-05	-0.0850525
-0.0804138	94.0399	-7.37305e-05	-0.0801392
-0.075531	94.1376	-6.92444e-05	-0.0751953
-0.0706482	94.2353	-6.47583e-05	-0.0704041
-0.0657654	94.3329	-6.03027e-05	-0.0654907
-0.0608826	94.4306	-5.58167e-05	-0.0606689
-0.0559998	94.5282	-5.13306e-05	-0.0557251
-0.0511169	94.6259	-4.68414e-05	-0.0508728
-0.0462341	94.7235	-4.23645e-05	-0.045874
-0.0413513	94.8212	-3.78906e-05	-0.0409943
-0.0364685	94.9188	-3.34259e-05	-0.0361359
-0.0315857	95.0165	-2.89459e-05	-0.0312439
-0.0267029	95.1142	-2.4469e-05	-0.0263763
-0.0218201	95.2118	-1.99982e-05	-0.0214905
-0.0169373	95.3095	-1.55151e-05	-0.0166199
-0.0120544	95.4071	-1.10382e-05	-0.0117523
-0.00717163	95.5048	-6.56433e-06	-0.0068512
-0.00228882	95.6024	-2.09106e-06	-0.00196228
0.000152588	95.6513	1.46484e-07	0.000497437