File: Edgar/20230201 (1)/cv_data_d.txt
Potential applied (V)	Time (s)	WE(1).Current (A)	WE(1).Potential (V)
0.00259399	10.0341	2.38586e-06	0.00294189
0.00747681	10.1317	6.8634e-06	0.0078186
0.0123596	10.2294	1.13434e-05	0.0126495
0.0172424	10.327	1.58142e-05	0.0175262
0.0221252	10.4247	2.02942e-05	0.0223907
0.0270081	10.5223	2.47711e-05	0.0272705
0.0318909	10.62	2.92419e-05	0.032135
0.0367737	10.7177	3.37158e-05	0.0370331
0.0416565	10.8153	3.81836e-05	0.0419067
0.0465393	10.913	4.26575e-05	0.0467773
0.0514221	11.0106	4.71313e-05	0.0514526
0.0563049	11.1083	5.16052e-05	0.0562439
0.0611877	11.2059	5.60913e-05	0.0611877
0.0660706	11.3036	6.05774e-05	0.06604
0.0709534	11.4013	6.5033e-05	0.0708923
0.0758362	11.4989	6.9519e-05	0.0757751
0.080719	11.5966	7.39746e-05	0.080658
0.0856018	11.6942	7.84607e-05	0.0855713
0.0904846	11.7919	8.29468e-05	0.0904236
0.0953674	11.8895	8.74329e-05	0.0953064
0.10025	11.9872	9.19189e-05	0.100159
0.105133	12.0848	9.63745e-05	0.105042
0.110016	12.1825	0.000100861	0.109924
0.114899	12.2802	0.000105316	0.114777
0.119781	12.3778	0.000109802	0.119659
0.124664	12.4755	0.000114288	0.124512
0.129547	12.5731	0.000118744	0.129425
0.13443	12.6708	0.00012323	0.134277
0.139313	12.7684	0.000127686	0.139099
0.144196	12.8661	0.000132172	0.144012
0.149078	12.9637	0.000136627	0.148895
0.153961	13.0614	0.000141113	0.153748
0.158844	13.1591	0.000145599	0.15863
0.163727	13.2567	0.000150055	0.163513
0.16861	13.3544	0.000154541	0.168365
0.173492	13.452	0.000158997	0.173218
0.178375	13.5497	0.000163483	0.178131
0.183258	13.6473	0.000167969	0.182953
0.188141	13.745	0.000172455	0.187836
0.193024	13.8427	0.00017691	0.192749
0.197906	13.9403	0.000181366	0.197601
0.202789	14.038	0.000185852	0.202423
0.207672	14.1356	0.000190338	0.207336
0.212555	14.2333	0.000194824	0.212189
0.217438	14.3309	0.00019928	0.217102
0.222321	14.4286	0.000203766	0.221954
0.227203	14.5262	0.000208252	0.226776
0.232086	14.6239	0.000212708	0.231598
0.236969	14.7216	0.000217194	0.236511
0.241852	14.8192	0.00022168	0.241425
0.246735	14.9169	0.000226166	0.246216
0.251617	15.0145	0.000230621	0.25119
0.2565	15.1122	0.000235107	0.256042
0.261383	15.2098	0.000239594	0.260834
0.266266	15.3075	0.000244049	0.265747
0.271149	15.4051	0.000248535	0.270538
0.276031	15.5028	0.000252991	0.275452
0.280914	15.6005	0.000257477	0.280304
0.285797	15.6981	0.000261932	0.285187
0.29068	15.7958	0.000266418	0.29007
0.295563	15.8934	0.000270905	0.294891
0.300446	15.9911	0.00027536	0.299835
0.305328	16.0887	0.000279846	0.3046875
0.310211	16.1864	0.000284302	0.309509
0.315094	16.2841	0.000288818	0.314423
0.319977	16.3817	0.000293304	0.319275
0.32486	16.4794	0.00029776	0.324097
0.329742	16.577	0.00030246	0.329468
0.334625	16.6747	0.000306946	0.334473
0.339508	16.7723	0.000311432	0.339264
0.344391	16.87	0.000315887	0.344208
0.349274	16.9676	0.000320374	0.348999
0.354156	17.0653	0.00032486	0.353973
0.359039	17.163	0.000329315	0.358795
0.363922	17.2606	0.000333801	0.363708
0.368805	17.3583	0.000338287	0.36853
0.373688	17.4559	0.000342773	0.373505
0.378571	17.5536	0.000347229	0.378296
0.383453	17.6512	0.000351715	0.383179
0.388336	17.7489	0.000356171	0.388092
0.393219	17.8465	0.000360657	0.393036
0.398102	17.9442	0.000365143	0.397858
0.402985	18.0419	0.000369629	0.40271
0.407867	18.1395	0.000374115	0.407562
0.41275	18.2372	0.000378571	0.412476
0.417633	18.3348	0.000383026	0.417358
0.422516	18.4325	0.000387512	0.422241
0.427399	18.5301	0.000391998	0.427124
0.432281	18.6278	0.000396454	0.431946
0.437164	18.7255	0.00040094	0.436859
0.442047	18.8231	0.000405426	0.441681
0.44693	18.9208	0.000409882	0.446625
0.451813	19.0184	0.000414368	0.451477
0.456696	19.1161	0.000418854	0.456329
0.461578	19.2137	0.00042334	0.461182
0.466461	19.3114	0.000427795	0.466095
0.471344	19.409	0.000432281	0.470978
0.476227	19.5067	0.000436768	0.47583
0.48111	19.6044	0.000441223	0.480743
0.485992	19.702	0.000445709	0.485626
0.490875	19.7997	0.000450195	0.49054
0.495758	19.8973	0.000454681	0.495392
0.500641	19.995	0.000459137	0.500214
0.495758	20.0926	0.000454681	0.495361
0.490875	20.1903	0.000450195	0.490479
0.485992	20.2879	0.000445709	0.485596
0.48111	20.3856	0.000441223	0.480743
0.476227	20.4833	0.000436737	0.475861
0.471344	20.5809	0.000432251	0.471008
0.466461	20.6786	0.000427795	0.466125
0.461578	20.7762	0.000423309	0.461243
0.456696	20.8739	0.000418854	0.45636
0.451813	20.9715	0.000414368	0.451477
0.44693	21.0692	0.000409882	0.446594
0.442047	21.1669	0.000405396	0.441711
0.437164	21.2645	0.00040094	0.43689
0.432281	21.3622	0.000396454	0.431946
0.427399	21.4598	0.000391968	0.427124
0.422516	21.5575	0.000387512	0.422241
0.417633	21.6551	0.000383026	0.417328
0.41275	21.7528	0.00037854	0.412506
0.407867	21.8504	0.000374084	0.407623
0.402985	21.9481	0.000369598	0.402679
0.398102	22.0458	0.000365112	0.397827
0.393219	22.1434	0.000360657	0.392975
0.388336	22.2411	0.000356171	0.388062
0.383453	22.3387	0.000351685	0.383179
0.378571	22.4364	0.000347229	0.378326
0.373688	22.534	0.000342743	0.373444
0.368805	22.6317	0.000338257	0.368561
0.363922	22.7293	0.000333801	0.363708
0.359039	22.827	0.000329315	0.358826
0.354156	22.9247	0.000324829	0.353973
0.349274	23.0223	0.000320343	0.348999
0.344391	23.12	0.000315887	0.344177
0.339508	23.2176	0.000311401	0.339294
0.334625	23.3153	0.000306915	0.334412
0.329742	23.4129	0.00030246	0.329498
0.32486	23.5106	0.000297974	0.324677
0.319977	23.6083	0.000293488	0.319763
0.315094	23.7059	0.000289001	0.31485
0.310211	23.8036	0.000284515	0.310059
0.305328	23.9012	0.000280029	0.305145
0.300446	23.9989	0.000275543	0.300293
0.295563	24.0965	0.000271088	0.295349
0.29068	24.1942	0.000266602	0.290558
0.285797	24.2918	0.000262115	0.285614
0.280914	24.3895	0.00025766	0.280701
0.276031	24.4872	0.000253174	0.275848
0.271149	24.5848	0.000248718	0.270996
0.266266	24.6825	0.000244232	0.266113
0.261383	24.7801	0.000239746	0.26123
0.2565	24.8778	0.000235291	0.256348
0.251617	24.9754	0.000230804	0.251495
0.246735	25.0731	0.000226318	0.246643
0.241852	25.1707	0.000221832	0.24176
0.236969	25.2684	0.000217377	0.236847
0.232086	25.3661	0.000212891	0.232025
0.227203	25.4637	0.000208435	0.227051
0.222321	25.5614	0.000203949	0.22229
0.217438	25.659	0.000199463	0.217346
0.212555	25.7567	0.000194977	0.212463
0.207672	25.8543	0.000190491	0.207611
0.202789	25.952	0.000186035	0.202667
0.197906	26.0497	0.000181549	0.197845
0.193024	26.1473	0.000177063	0.192993
0.188141	26.245	0.000172607	0.18808
0.183258	26.3426	0.000168121	0.183258
0.178375	26.4403	0.000163635	0.178314
0.173492	26.5379	0.000159149	0.173431
0.16861	26.6356	0.000154694	0.168579
0.163727	26.7332	0.000150208	0.163666
0.158844	26.8309	0.000145721	0.158813
0.153961	26.9286	0.000141266	0.153931
0.149078	27.0262	0.00013678	0.149078
0.144196	27.1239	0.000132324	0.144226
0.139313	27.2215	0.000127808	0.139313
0.13443	27.3192	0.000123352	0.13446
0.129547	27.4168	0.000118866	0.129578
0.124664	27.5145	0.00011441	0.124695
0.119781	27.6121	0.000109924	0.119843
0.114899	27.7098	0.000105469	0.115021
0.110016	27.8075	0.000100983	0.110046
0.105133	27.9051	9.64966e-05	0.105255
0.10025	28.0028	9.2041e-05	0.100311
0.0953674	28.1004	8.74329e-05	0.0952759
0.0904846	28.1981	8.29468e-05	0.0904236
0.0856018	28.2957	7.84607e-05	0.0856018
0.080719	28.3934	7.39746e-05	0.0806885
0.0758362	28.4911	6.9519e-05	0.0757751
0.0709534	28.5887	6.5033e-05	0.0709229
0.0660706	28.6864	6.05774e-05	0.0660095
0.0611877	28.784	5.60913e-05	0.0611572
0.0563049	28.8817	5.16052e-05	0.0563049
0.0514221	28.9793	4.71313e-05	0.0515137
0.0465393	29.077	4.26544e-05	0.0467865
0.0416565	29.1746	3.81805e-05	0.0419098
0.0367737	29.2723	3.37128e-05	0.0370605
0.0318909	29.37	2.92419e-05	0.0321625
0.0270081	29.4676	2.4765e-05	0.0272919
0.0221252	29.5653	2.02911e-05	0.0224152
0.0172424	29.6629	1.58112e-05	0.0175385
0.0123596	29.7606	1.13403e-05	0.0126556
0.00747681	29.8582	6.86035e-06	0.00778503
0.00259399	29.9559	2.38708e-06	0.00291748
-0.00228882	30.0535	-2.08893e-06	-0.00195007
-0.00717163	30.1512	-6.56433e-06	-0.00684509
-0.0120544	30.2489	-1.10352e-05	-0.0117218
-0.0169373	30.3465	-1.55121e-05	-0.0165741
-0.0218201	30.4442	-1.99921e-05	-0.0214752
-0.0267029	30.5418	-2.44659e-05	-0.0263275
-0.0315857	30.6395	-2.89398e-05	-0.031192
-0.0364685	30.7371	-3.34259e-05	-0.0361298
-0.0413513	30.8348	-3.78937e-05	-0.0410034
-0.0462341	30.9325	-4.23645e-05	-0.0458771
-0.0511169	31.0301	-4.68414e-05	-0.0508423
-0.0559998	31.1278	-5.13306e-05	-0.0557251
-0.0608826	31.2254	-5.58167e-05	-0.0605774
-0.0657654	31.3231	-6.03027e-05	-0.0655212
-0.0706482	31.4207	-6.47888e-05	-0.0703735
-0.075531	31.5184	-6.92444e-05	-0.0752563
-0.0804138	31.616	-7.37305e-05	-0.0800781
-0.0852966	31.7137	-7.82166e-05	-0.0849609
-0.0901794	31.8114	-8.27026e-05	-0.08984375
-0.0950623	31.909	-8.71582e-05	-0.0947571
-0.0999451	32.0067	-9.16443e-05	-0.0996704
-0.104828	32.1043	-9.61304e-05	-0.104492
-0.109711	32.202	-0.000100586	-0.109314
-0.114594	32.2996	-0.000105072	-0.114258
-0.119476	32.3973	-0.000109558	-0.11911
-0.124359	32.4949	-0.000114014	-0.123993
-0.129242	32.5926	-0.0001185	-0.128845
-0.134125	32.6903	-0.000122986	-0.133759
-0.139008	32.7879	-0.000127441	-0.13855
-0.14389	32.8856	-0.000131927	-0.143433
-0.148773	32.9832	-0.000136383	-0.148315
-0.153656	33.0809	-0.000140869	-0.153198
-0.158539	33.1785	-0.000145355	-0.158112
-0.163422	33.2762	-0.000149811	-0.162933
-0.168304	33.3739	-0.000154297	-0.167786
-0.173187	33.4715	-0.000158783	-0.172699
-0.17807	33.5692	-0.000163269	-0.177551
-0.182953	33.6668	-0.000167725	-0.182404
-0.187836	33.7645	-0.000172211	-0.187317
-0.192719	33.8621	-0.000176697	-0.19223
-0.197601	33.9598	-0.000181152	-0.197021
-0.202484	34.0574	-0.000185638	-0.201904
-0.207367	34.1551	-0.000190125	-0.206696
-0.21225	34.2528	-0.00019458	-0.211609
-0.217133	34.3504	-0.000199066	-0.216522
-0.222015	34.4481	-0.000203552	-0.221405
-0.226898	34.5457	-0.000208038	-0.226227
-0.231781	34.6434	-0.000212494	-0.23114
-0.236664	34.741	-0.00021698	-0.235992
-0.241547	34.8387	-0.000221466	-0.240814
-0.246429	34.9363	-0.000225952	-0.245728
-0.251312	35.034	-0.000230408	-0.250549
-0.256195	35.1317	-0.000234894	-0.255463
-0.261078	35.2293	-0.00023938	-0.260376
-0.265961	35.327	-0.000243835	-0.265167
-0.270844	35.4246	-0.000248322	-0.270081
-0.275726	35.5223	-0.000252777	-0.274902
-0.280609	35.6199	-0.000257263	-0.279846
-0.285492	35.7176	-0.000261749	-0.284637
-0.290375	35.8153	-0.000266235	-0.28952
-0.295258	35.9129	-0.000270721	-0.294373
-0.30014	36.0106	-0.000275177	-0.299286
-0.305023	36.1082	-0.000279663	-0.304138
-0.309906	36.2059	-0.000284149	-0.30899
-0.314789	36.3035	-0.000288635	-0.313934
-0.319672	36.4012	-0.000293121	-0.318787
-0.324554	36.4988	-0.000297577	-0.323669
-0.329437	36.5965	-0.000302063	-0.328552
-0.33432	36.6942	-0.000306549	-0.334015
-0.339203	36.7918	-0.000311035	-0.338806
-0.344086	36.8895	-0.000315521	-0.343719
-0.348969	36.9871	-0.000320007	-0.348541
-0.353851	37.0848	-0.000324463	-0.353455
-0.358734	37.1824	-0.000328949	-0.358368
-0.363617	37.2801	-0.000333435	-0.36319
-0.3685	37.3777	-0.000337921	-0.368073
-0.373383	37.4754	-0.000342377	-0.372986
-0.378265	37.5731	-0.000346863	-0.377777
-0.383148	37.6707	-0.000351349	-0.382782
-0.388031	37.7684	-0.000355835	-0.387543
-0.392914	37.866	-0.000360321	-0.392517
-0.397797	37.9637	-0.000364777	-0.397369
-0.402679	38.0613	-0.000369263	-0.402222
-0.407562	38.159	-0.000373749	-0.407166
-0.412445	38.2567	-0.000378204	-0.411957
-0.417328	38.3543	-0.00038269	-0.41687
-0.422211	38.452	-0.000387177	-0.421722
-0.427094	38.5496	-0.000391663	-0.426666
-0.431976	38.6473	-0.000396118	-0.431519
-0.436859	38.7449	-0.000400604	-0.436432
-0.441742	38.8426	-0.00040509	-0.441284
-0.446625	38.9402	-0.000409576	-0.446136
-0.451508	39.0379	-0.0004140625	-0.451019
-0.45639	39.1356	-0.000418518	-0.455902
-0.461273	39.2332	-0.000423004	-0.460815
-0.466156	39.3309	-0.00042749	-0.465698
-0.471039	39.4285	-0.000431976	-0.470459
-0.475922	39.5262	-0.000436432	-0.475403
-0.480804	39.6238	-0.000440918	-0.480316
-0.485687	39.7215	-0.000445404	-0.485229
-0.49057	39.8191	-0.00044989	-0.490051
-0.495453	39.9168	-0.000454346	-0.494995
-0.500336	40.0145	-0.000458832	-0.499817
-0.495453	40.1121	-0.000454346	-0.494904
-0.49057	40.2098	-0.00044989	-0.490082
-0.485687	40.3074	-0.000445404	-0.485168
-0.480804	40.4051	-0.000440918	-0.480347
-0.475922	40.5027	-0.000436432	-0.475433
-0.471039	40.6004	-0.000431976	-0.470551
-0.466156	40.6981	-0.00042749	-0.465698
-0.461273	40.7957	-0.000423004	-0.460785
-0.45639	40.8934	-0.000418518	-0.455933
-0.451508	40.991	-0.0004140625	-0.451111
-0.446625	41.0887	-0.000409576	-0.446136
-0.441742	41.1863	-0.00040509	-0.441284
-0.436859	41.284	-0.000400604	-0.43634
-0.431976	41.3816	-0.000396149	-0.431519
-0.427094	41.4793	-0.000391663	-0.426666
-0.422211	41.577	-0.000387177	-0.421783
-0.417328	41.6746	-0.000382721	-0.416931
-0.412445	41.7723	-0.000378235	-0.411957
-0.407562	41.8699	-0.000373749	-0.407166
-0.402679	41.9676	-0.000369263	-0.402252
-0.397797	42.0652	-0.000364807	-0.397339
-0.392914	42.1629	-0.000360321	-0.392487
-0.388031	42.2605	-0.000355835	-0.387604
-0.383148	42.3582	-0.000351349	-0.382721
-0.378265	42.4559	-0.000346863	-0.377869
-0.373383	42.5535	-0.000342407	-0.372986
-0.3685	42.6512	-0.000337921	-0.368103
-0.363617	42.7488	-0.000333435	-0.363281
-0.358734	42.8465	-0.000328949	-0.358307
-0.353851	42.9441	-0.000324493	-0.353455
-0.348969	43.0418	-0.000320007	-0.348602
-0.344086	43.1395	-0.000315521	-0.343689
-0.339203	43.2371	-0.000311035	-0.338806
-0.33432	43.3348	-0.00030658	-0.333923
-0.329437	43.4324	-0.000302094	-0.329041
-0.324554	43.5301	-0.000297607	-0.324219
-0.319672	43.6277	-0.000293121	-0.319305
-0.314789	43.7254	-0.000288666	-0.314423
-0.309906	43.823	-0.000284149	-0.30954
-0.305023	43.9207	-0.000279663	-0.304657
-0.30014	44.0184	-0.000275177	-0.299774
-0.295258	44.116	-0.000270721	-0.294861
-0.290375	44.2137	-0.000266235	-0.289978
-0.285492	44.3113	-0.000261749	-0.285126
-0.280609	44.409	-0.000257263	-0.280212
-0.275726	44.5066	-0.000252808	-0.27536
-0.270844	44.6043	-0.000248322	-0.270508
-0.265961	44.7019	-0.000243835	-0.265625
-0.261078	44.7996	-0.00023938	-0.260742
-0.256195	44.8973	-0.000234894	-0.255859
-0.251312	44.9949	-0.000230408	-0.250946
-0.246429	45.0926	-0.000225952	-0.246063
-0.241547	45.1902	-0.000221466	-0.24118
-0.236664	45.2879	-0.00021698	-0.236389
-0.231781	45.3855	-0.000212494	-0.231445
-0.226898	45.4832	-0.000208008	-0.2265625
-0.222015	45.5809	-0.000203552	-0.221649
-0.217133	45.6785	-0.000199066	-0.216797
-0.21225	45.7762	-0.00019458	-0.211914
-0.207367	45.8738	-0.000190094	-0.207031
-0.202484	45.9715	-0.000185608	-0.202209
-0.197601	46.0691	-0.000181122	-0.197235
-0.192719	46.1668	-0.000176666	-0.192444
-0.187836	46.2644	-0.00017218	-0.1875
-0.182953	46.3621	-0.000167694	-0.182617
-0.17807	46.4598	-0.000163239	-0.177734
-0.173187	46.5574	-0.000158752	-0.172913
-0.168304	46.6551	-0.000154266	-0.16803
-0.163422	46.7527	-0.00014978	-0.163147
-0.158539	46.8504	-0.000145325	-0.158295
-0.153656	46.948	-0.000140839	-0.153381
-0.148773	47.0457	-0.000136353	-0.148499
-0.14389	47.1433	-0.000131897	-0.143555
-0.139008	47.241	-0.000127411	-0.138763
-0.134125	47.3387	-0.000122925	-0.133881
-0.129242	47.4363	-0.000118439	-0.128998
-0.124359	47.534	-0.000113983	-0.124115
-0.119476	47.6316	-0.000109497	-0.119202
-0.114594	47.7293	-0.000105011	-0.114349
-0.109711	47.8269	-0.000100555	-0.109436
-0.104828	47.9246	-9.60693e-05	-0.104584
-0.0999451	48.0223	-9.15833e-05	-0.099762
-0.0950623	48.1199	-8.71582e-05	-0.0946655
-0.0901794	48.2176	-8.27026e-05	-0.0898743
-0.0852966	48.3152	-7.82166e-05	-0.0849915
-0.0804138	48.4129	-7.37305e-05	-0.0801392
-0.075531	48.5105	-6.92444e-05	-0.0752563
-0.0706482	48.6082	-6.47888e-05	-0.0703735
-0.0657654	48.7058	-6.03027e-05	-0.0654602
-0.0608826	48.8035	-5.58167e-05	-0.0606689
-0.0559998	48.9012	-5.13306e-05	-0.0557861
-0.0511169	48.9988	-4.68414e-05	-0.0508423
-0.0462341	49.0965	-4.23645e-05	-0.0458527
-0.0413513	49.1941	-3.78906e-05	-0.0409943
-0.0364685	49.2918	-3.34229e-05	-0.0361359
-0.0315857	49.3894	-2.8949e-05	-0.0312561
-0.0267029	49.4871	-2.4469e-05	-0.0263702
-0.0218201	49.5847	-1.99951e-05	-0.0214935
-0.0169373	49.6824	-1.55182e-05	-0.0166046
-0.0120544	49.7801	-1.10413e-05	-0.0117279
-0.00717163	49.8777	-6.56738e-06	-0.00685425
-0.00228882	49.9754	-2.09381e-06	-0.00195923
0.00259399	50.073	2.38922e-06	0.00292053
0.00747681	50.1707	6.86646e-06	0.00778198
0.0123596	50.2683	1.13434e-05	0.0126678
0.0172424	50.366	1.58142e-05	0.0175262
0.0221252	50.4637	2.02942e-05	0.0223877
0.0270081	50.5613	2.47681e-05	0.0272644
0.0318909	50.659	2.9245e-05	0.0321381
0.0367737	50.7566	3.37158e-05	0.0370514
0.0416565	50.8543	3.81805e-05	0.0419189
0.0465393	50.9519	4.26575e-05	0.0467987
0.0514221	51.0496	4.71313e-05	0.0514526
0.0563049	51.1472	5.16052e-05	0.0563049
0.0611877	51.2449	5.60913e-05	0.0611877
0.0660706	51.3426	6.05774e-05	0.0660706
0.0709534	51.4402	6.5033e-05	0.0709229
0.0758362	51.5379	6.9519e-05	0.0758057
0.080719	51.6355	7.40051e-05	0.0806885
0.0856018	51.7332	7.84607e-05	0.0855408
0.0904846	51.8308	8.29468e-05	0.0903625
0.0953674	51.9285	8.74329e-05	0.0952759
0.10025	52.0261	9.19189e-05	0.10022
0.105133	52.1238	9.63745e-05	0.105042
0.110016	52.2215	0.000100861	0.109924
0.114899	52.3191	0.000105316	0.114777
0.119781	52.4168	0.000109802	0.119659
0.124664	52.5144	0.000114288	0.124512
0.129547	52.6121	0.000118744	0.129395
0.13443	52.7097	0.00012323	0.134247
0.139313	52.8074	0.000127686	0.139191
0.144196	52.9051	0.000132172	0.144043
0.149078	53.0027	0.000136627	0.148895
0.153961	53.1004	0.000141113	0.153717
0.158844	53.198	0.000145569	0.15863
0.163727	53.2957	0.000150055	0.163483
0.16861	53.3933	0.000154541	0.168365
0.173492	53.491	0.000158997	0.173187
0.178375	53.5886	0.000163483	0.178101
0.183258	53.6863	0.000167969	0.183014
0.188141	53.784	0.000172455	0.187897
0.193024	53.8816	0.00017691	0.192719
0.197906	53.9793	0.000181366	0.19754
0.202789	54.0769	0.000185852	0.202454
0.207672	54.1746	0.000190338	0.207336
0.212555	54.2722	0.000194824	0.212219
0.217438	54.3699	0.00019928	0.217041
0.222321	54.4675	0.000203766	0.221985
0.227203	54.5652	0.000208252	0.226715
0.232086	54.6629	0.000212708	0.231659
0.236969	54.7605	0.000217194	0.236542
0.241852	54.8582	0.00022168	0.241394
0.246735	54.9558	0.000226135	0.246277
0.251617	55.0535	0.000230621	0.251068
0.2565	55.1511	0.000235107	0.255951
0.261383	55.2488	0.000239594	0.260864
0.266266	55.3465	0.000244049	0.265717
0.271149	55.4441	0.000248535	0.27063
0.276031	55.5418	0.000252991	0.275421
0.280914	55.6394	0.000257477	0.280273
0.285797	55.7371	0.000261932	0.285187
0.29068	55.8347	0.000266418	0.2901
0.295563	55.9324	0.000270905	0.294922
0.300446	56.03	0.00027536	0.299835
0.305328	56.1277	0.000279846	0.304626
0.310211	56.2254	0.000284302	0.30954
0.315094	56.323	0.000288818	0.314423
0.319977	56.4207	0.000293304	0.319305
0.32486	56.5183	0.00029776	0.324097
0.329742	56.616	0.00030249	0.329529
0.334625	56.7136	0.000306946	0.334473
0.339508	56.8113	0.000311432	0.339294
0.344391	56.9089	0.000315918	0.344147
0.349274	57.0066	0.000320404	0.34906
0.354156	57.1043	0.00032486	0.353973
0.359039	57.2019	0.000329346	0.358856
0.363922	57.2996	0.000333801	0.363678
0.368805	57.3972	0.000338287	0.36853
0.373688	57.4949	0.000342773	0.373474
0.378571	57.5925	0.000347229	0.378296
0.383453	57.6902	0.000351715	0.383209
0.388336	57.7879	0.000356201	0.388
0.393219	57.8855	0.000360687	0.392944
0.398102	57.9832	0.000365143	0.397827
0.402985	58.0808	0.000369629	0.402679
0.407867	58.1785	0.000374115	0.407532
0.41275	58.2761	0.000378571	0.412506
0.417633	58.3738	0.000383057	0.417358
0.422516	58.4714	0.000387543	0.422272
0.427399	58.5691	0.000391998	0.427094
0.432281	58.6668	0.000396484	0.431946
0.437164	58.7644	0.00040094	0.436859
0.442047	58.8621	0.000405426	0.441742
0.44693	58.9597	0.000409912	0.446625
0.451813	59.0574	0.000414368	0.451508
0.456696	59.155	0.000418854	0.45636
0.461578	59.2527	0.00042334	0.461212
0.466461	59.3503	0.000427826	0.466125
0.471344	59.448	0.000432281	0.470978
0.476227	59.5457	0.000436768	0.475891
0.48111	59.6433	0.000441223	0.480713
0.485992	59.741	0.000445709	0.485626
0.490875	59.8386	0.000450195	0.49054
0.495758	59.9363	0.000454681	0.495361
0.500641	60.0339	0.000459167	0.500244
0.495758	60.1316	0.000454681	0.495361
0.490875	60.2293	0.000450195	0.490509
0.485992	60.3269	0.000445709	0.485626
0.48111	60.4246	0.000441223	0.480774
0.476227	60.5222	0.000436737	0.475922
0.471344	60.6199	0.000432281	0.470978
0.466461	60.7175	0.000427795	0.466095
0.461578	60.8152	0.00042334	0.461273
0.456696	60.9128	0.000418854	0.456329
0.451813	61.0105	0.000414368	0.451477
0.44693	61.1082	0.000409882	0.446625
0.442047	61.2058	0.000405426	0.441711
0.437164	61.3035	0.00040094	0.436859
0.432281	61.4011	0.000396454	0.431946
0.427399	61.4988	0.000391998	0.427094
0.422516	61.5964	0.000387512	0.422241
0.417633	61.6941	0.000383026	0.417358
0.41275	61.7917	0.00037854	0.412445
0.407867	61.8894	0.000374084	0.407562
0.402985	61.9871	0.000369629	0.40274
0.398102	62.0847	0.000365143	0.397858
0.393219	62.1824	0.000360657	0.392975
0.388336	62.28	0.000356171	0.388092
0.383453	62.3777	0.000351715	0.383148
0.378571	62.4753	0.000347229	0.378296
0.373688	62.573	0.000342743	0.373505
0.368805	62.6707	0.000338257	0.36853
0.363922	62.7683	0.000333801	0.363708
0.359039	62.866	0.000329315	0.358856
0.354156	62.9636	0.000324829	0.353943
0.349274	63.0613	0.000320374	0.348999
0.344391	63.1589	0.000315887	0.344269
0.339508	63.2566	0.000311401	0.339264
0.334625	63.3542	0.000306946	0.334442
0.329742	63.4519	0.00030246	0.32959
0.32486	63.5496	0.000297974	0.324646
0.319977	63.6472	0.000293488	0.319763
0.315094	63.7449	0.000289032	0.314911
0.310211	63.8425	0.000284515	0.310028
0.305328	63.9402	0.000280029	0.305145
0.300446	64.0378	0.000275574	0.300262
0.295563	64.1355	0.000271088	0.295349
0.29068	64.2331	0.000266602	0.290497
0.285797	64.3308	0.000262146	0.285614
0.280914	64.4285	0.00025766	0.280731
0.276031	64.5261	0.000253174	0.275879
0.271149	64.6238	0.000248718	0.270996
0.266266	64.7214	0.000244232	0.266144
0.261383	64.8191	0.000239777	0.2612
0.2565	64.9167	0.000235291	0.256317
0.251617	65.0144	0.000230804	0.251526
0.246735	65.1121	0.000226318	0.246643
0.241852	65.2097	0.000221863	0.241699
0.236969	65.3074	0.000217377	0.236877
0.232086	65.405	0.000212891	0.231964
0.227203	65.5027	0.000208405	0.227112
0.222321	65.6003	0.000203918	0.22226
0.217438	65.698	0.000199463	0.217377
0.212555	65.7956	0.000194977	0.212463
0.207672	65.8933	0.000190521	0.20755
0.202789	65.991	0.000186035	0.202728
0.197906	66.0886	0.000181549	0.197845
0.193024	66.1863	0.000177063	0.192932
0.188141	66.2839	0.000172607	0.188141
0.183258	66.3816	0.000168121	0.183228
0.178375	66.4792	0.000163666	0.178406
0.173492	66.5769	0.00015918	0.173431
0.16861	66.6745	0.000154694	0.168579
0.163727	66.7722	0.000150208	0.163727
0.158844	66.8699	0.000145752	0.158844
0.153961	66.9675	0.000141266	0.153961
0.149078	67.0652	0.00013681	0.149048
0.144196	67.1628	0.000132324	0.144226
0.139313	67.2605	0.000127838	0.139343
0.13443	67.3581	0.000123383	0.13446
0.129547	67.4558	0.000118896	0.129578
0.124664	67.5535	0.00011441	0.124664
0.119781	67.6511	0.000109955	0.119812
0.114899	67.7488	0.000105469	0.114929
0.110016	67.8464	0.000100983	0.110077
0.105133	67.9441	9.64966e-05	0.105225
0.10025	68.0417	9.2041e-05	0.100342
0.0953674	68.1394	8.74329e-05	0.0953064
0.0904846	68.237	8.29468e-05	0.0904541
0.0856018	68.3347	7.84607e-05	0.0855713
0.080719	68.4324	7.40051e-05	0.080719
0.0758362	68.53	6.9519e-05	0.0758057
0.0709534	68.6277	6.5033e-05	0.0708923
0.0660706	68.7253	6.05774e-05	0.0660095
0.0611877	68.823	5.60913e-05	0.0611572
0.0563049	68.9206	5.16052e-05	0.0562744
0.0514221	69.0183	4.71313e-05	0.0514526
0.0465393	69.1159	4.26575e-05	0.0467896
0.0416565	69.2136	3.81805e-05	0.041922
0.0367737	69.3113	3.37158e-05	0.0370422
0.0318909	69.4089	2.9245e-05	0.0321747
0.0270081	69.5066	2.47681e-05	0.0272949
0.0221252	69.6042	2.02911e-05	0.0224304
0.0172424	69.7019	1.58112e-05	0.0175385
0.0123596	69.7995	1.13434e-05	0.0126617
0.00747681	69.8972	6.8634e-06	0.00777588
0.00259399	69.9949	2.38586e-06	0.00291443
-0.00228882	70.0925	-2.08649e-06	-0.001953125
-0.00717163	70.1902	-6.55823e-06	-0.00683899
-0.0120544	70.2878	-1.10352e-05	-0.0117157
-0.0169373	70.3855	-1.5509e-05	-0.0165833
-0.0218201	70.4831	-1.9989e-05	-0.021463
-0.0267029	70.5808	-2.44629e-05	-0.0263275
-0.0315857	70.6784	-2.89398e-05	-0.031192
-0.0364685	70.7761	-3.34229e-05	-0.0361206
-0.0413513	70.8738	-3.78906e-05	-0.0409851
-0.0462341	70.9714	-4.23645e-05	-0.0458771
-0.0511169	71.0691	-4.68414e-05	-0.0508728
-0.0559998	71.1667	-5.13306e-05	-0.0557556
-0.0608826	71.2644	-5.58167e-05	-0.0606079
-0.0657654	71.362	-6.03027e-05	-0.0654602
-0.0706482	71.4597	-6.47583e-05	-0.0703735
-0.075531	71.5573	-6.92444e-05	-0.0751648
-0.0804138	71.655	-7.37305e-05	-0.0801086
-0.0852966	71.7527	-7.82166e-05	-0.085022
-0.0901794	71.8503	-8.26721e-05	-0.08984375
-0.0950623	71.948	-8.71582e-05	-0.0947876
-0.0999451	72.0456	-9.16443e-05	-0.0996704
-0.104828	72.1433	-9.61304e-05	-0.104492
-0.109711	72.2409	-0.000100586	-0.109344
-0.114594	72.3386	-0.000105072	-0.114258
-0.119476	72.4363	-0.000109558	-0.11911
-0.124359	72.5339	-0.000114014	-0.124023
-0.129242	72.6316	-0.0001185	-0.128815
-0.134125	72.7292	-0.000122986	-0.133667
-0.139008	72.8269	-0.000127441	-0.13858
-0.14389	72.9245	-0.000131927	-0.143402
-0.148773	73.0222	-0.000136383	-0.148346
-0.153656	73.1198	-0.000140869	-0.153229
-0.158539	73.2175	-0.000145355	-0.158081
-0.163422	73.3152	-0.000149811	-0.162903
-0.168304	73.4128	-0.000154297	-0.167786
-0.173187	73.5105	-0.000158783	-0.17276
-0.17807	73.6081	-0.000163269	-0.177551
-0.182953	73.7058	-0.000167725	-0.182434
-0.187836	73.8034	-0.000172211	-0.187317
-0.192719	73.9011	-0.000176697	-0.192169
-0.197601	73.9987	-0.000181152	-0.197021
-0.202484	74.0964	-0.000185638	-0.201904
-0.207367	74.1941	-0.000190094	-0.206787
-0.21225	74.2917	-0.00019458	-0.211639
-0.217133	74.3894	-0.000199066	-0.216553
-0.222015	74.487	-0.000203552	-0.221405
-0.226898	74.5847	-0.000208038	-0.226196
-0.231781	74.6823	-0.000212494	-0.23114
-0.236664	74.78	-0.00021698	-0.236084
-0.241547	74.8777	-0.000221466	-0.240845
-0.246429	74.9753	-0.000225952	-0.245728
-0.251312	75.073	-0.000230408	-0.25058
-0.256195	75.1706	-0.000234894	-0.255463
-0.261078	75.2683	-0.00023938	-0.260284
-0.265961	75.3659	-0.000243835	-0.265167
-0.270844	75.4636	-0.000248322	-0.27005
-0.275726	75.5612	-0.000252777	-0.274963
-0.280609	75.6589	-0.000257263	-0.279755
-0.285492	75.7566	-0.000261749	-0.284637
-0.290375	75.8542	-0.000266235	-0.28949
-0.295258	75.9519	-0.000270691	-0.294342
-0.30014	76.0495	-0.000275177	-0.299255
-0.305023	76.1472	-0.000279663	-0.304108
-0.309906	76.2448	-0.000284149	-0.309021
-0.314789	76.3425	-0.000288635	-0.313904
-0.319672	76.4401	-0.000293121	-0.318817
-0.324554	76.5378	-0.000297577	-0.323639
-0.329437	76.6355	-0.000302063	-0.328461
-0.33432	76.7331	-0.000306549	-0.333984
-0.339203	76.8308	-0.000311035	-0.338837
-0.344086	76.9284	-0.000315521	-0.343719
-0.348969	77.0261	-0.000319977	-0.348572
-0.353851	77.1237	-0.000324463	-0.353455
-0.358734	77.2214	-0.000328918	-0.358307
-0.363617	77.3191	-0.000333405	-0.36322
-0.3685	77.4167	-0.000337891	-0.368134
-0.373383	77.5144	-0.000342377	-0.372986
-0.378265	77.612	-0.000346863	-0.377808
-0.383148	77.7097	-0.000351349	-0.38269
-0.388031	77.8073	-0.000355835	-0.387573
-0.392914	77.905	-0.000360291	-0.392487
-0.397797	78.0026	-0.000364777	-0.397369
-0.402679	78.1003	-0.000369263	-0.402252
-0.407562	78.198	-0.000373749	-0.407135
-0.412445	78.2956	-0.000378204	-0.412018
-0.417328	78.3933	-0.00038269	-0.416809
-0.422211	78.4909	-0.000387177	-0.421722
-0.427094	78.5886	-0.000391663	-0.426666
-0.431976	78.6862	-0.000396118	-0.431458
-0.436859	78.7839	-0.000400574	-0.436401
-0.441742	78.8815	-0.00040506	-0.441254
-0.446625	78.9792	-0.000409546	-0.446136
-0.451508	79.0769	-0.000414032	-0.45105
-0.45639	79.1745	-0.000418518	-0.455933
-0.461273	79.2722	-0.000423004	-0.460846
-0.466156	79.3698	-0.00042749	-0.465698
-0.471039	79.4675	-0.000431946	-0.470581
-0.475922	79.5651	-0.000436432	-0.475433
-0.480804	79.6628	-0.000440887	-0.480286
-0.485687	79.7605	-0.000445404	-0.485168
-0.49057	79.8581	-0.00044986	-0.490082
-0.495453	79.9558	-0.000454346	-0.494965
-0.500336	80.0534	-0.000458832	-0.499878
-0.495453	80.1511	-0.000454346	-0.494965
-0.49057	80.2487	-0.00044986	-0.490051
-0.485687	80.3464	-0.000445374	-0.485229
-0.480804	80.444	-0.000440918	-0.480347
-0.475922	80.5417	-0.000436432	-0.475464
-0.471039	80.6394	-0.000431946	-0.47052
-0.466156	80.737	-0.00042749	-0.465668
-0.461273	80.8347	-0.000423004	-0.460846
-0.45639	80.9323	-0.000418518	-0.455872
-0.451508	81.03	-0.000414032	-0.45105
-0.446625	81.1276	-0.000409546	-0.446167
-0.441742	81.2253	-0.00040509	-0.441223
-0.436859	81.3229	-0.000400604	-0.43634
-0.431976	81.4206	-0.000396118	-0.431488
-0.427094	81.5183	-0.000391663	-0.426666
-0.422211	81.6159	-0.000387177	-0.421722
-0.417328	81.7136	-0.00038269	-0.41684
-0.412445	81.8112	-0.000378204	-0.411987
-0.407562	81.9089	-0.000373749	-0.407104
-0.402679	82.0065	-0.000369263	-0.402191
-0.397797	82.1042	-0.000364777	-0.397369
-0.392914	82.2019	-0.000360321	-0.392517
-0.388031	82.2995	-0.000355835	-0.387634
-0.383148	82.3972	-0.000351349	-0.382721
-0.378265	82.4948	-0.000346863	-0.377808
-0.373383	82.5925	-0.000342377	-0.372955
-0.3685	82.6901	-0.000337921	-0.368042
-0.363617	82.7878	-0.000333435	-0.363281
-0.358734	82.8854	-0.000328949	-0.358368
-0.353851	82.9831	-0.000324463	-0.353455
-0.348969	83.0808	-0.000320007	-0.348602
-0.344086	83.1784	-0.000315521	-0.343719
-0.339203	83.2761	-0.000311035	-0.338806
-0.33432	83.3737	-0.00030658	-0.333984
-0.329437	83.4714	-0.000302094	-0.32901
-0.324554	83.569	-0.000297607	-0.324188
-0.319672	83.6667	-0.000293121	-0.319305
-0.314789	83.7643	-0.000288666	-0.314423
-0.309906	83.862	-0.000284149	-0.309509
-0.305023	83.9597	-0.000279663	-0.304657
-0.30014	84.0573	-0.000275177	-0.299713
-0.295258	84.155	-0.000270721	-0.294952
-0.290375	84.2526	-0.000266235	-0.289948
-0.285492	84.3503	-0.000261749	-0.285156
-0.280609	84.4479	-0.000257263	-0.280182
-0.275726	84.5456	-0.000252777	-0.27536
-0.270844	84.6433	-0.000248322	-0.270447
-0.265961	84.7409	-0.000243835	-0.265594
-0.261078	84.8386	-0.00023938	-0.260681
-0.256195	84.9362	-0.000234894	-0.255798
-0.251312	85.0339	-0.000230408	-0.250946
-0.246429	85.1315	-0.000225922	-0.246094
-0.241547	85.2292	-0.000221436	-0.241211
-0.236664	85.3268	-0.00021698	-0.236328
-0.231781	85.4245	-0.000212494	-0.231445
-0.226898	85.5222	-0.000208008	-0.226624
-0.222015	85.6198	-0.000203522	-0.22171
-0.217133	85.7175	-0.000199066	-0.216766
-0.21225	85.8151	-0.00019458	-0.211914
-0.207367	85.9128	-0.000190094	-0.207062
-0.202484	86.0104	-0.000185608	-0.202148
-0.197601	86.1081	-0.000181122	-0.197296
-0.192719	86.2057	-0.000176666	-0.192413
-0.187836	86.3034	-0.00017218	-0.187531
-0.182953	86.4011	-0.000167694	-0.182648
-0.17807	86.4987	-0.000163239	-0.177765
-0.173187	86.5964	-0.000158752	-0.172913
-0.168304	86.694	-0.000154266	-0.16803
-0.163422	86.7917	-0.00014978	-0.163177
-0.158539	86.8893	-0.000145325	-0.158234
-0.153656	86.987	-0.000140839	-0.153412
-0.148773	87.0847	-0.000136353	-0.148529
-0.14389	87.1823	-0.000131897	-0.143677
-0.139008	87.28	-0.00012738	-0.138702
-0.134125	87.3776	-0.000122925	-0.13385
-0.129242	87.4753	-0.000118439	-0.128998
-0.124359	87.5729	-0.000113983	-0.124115
-0.119476	87.6706	-0.000109497	-0.119293
-0.114594	87.7682	-0.000105011	-0.114349
-0.109711	87.8659	-0.000100555	-0.109497
-0.104828	87.9636	-9.60693e-05	-0.104614
-0.0999451	88.0612	-9.15833e-05	-0.0997009
-0.0950623	88.1589	-8.71582e-05	-0.0947571
-0.0901794	88.2565	-8.27026e-05	-0.0898743
-0.0852966	88.3542	-7.82166e-05	-0.0849304
-0.0804138	88.4518	-7.37305e-05	-0.0801086
-0.075531	88.5495	-6.92444e-05	-0.0752258
-0.0706482	88.6471	-6.47888e-05	-0.0703735
-0.0657654	88.7448	-6.03027e-05	-0.0654907
-0.0608826	88.8425	-5.58167e-05	-0.0606079
-0.0559998	88.9401	-5.13306e-05	-0.0557861
-0.0511169	89.0378	-4.68384e-05	-0.0508118
-0.0462341	89.1354	-4.23645e-05	-0.0458618
-0.0413513	89.2331	-3.78906e-05	-0.0410126
-0.0364685	89.3307	-3.34229e-05	-0.0361206
-0.0315857	89.4284	-2.89459e-05	-0.0312469
-0.0267029	89.5261	-2.4469e-05	-0.0263733
-0.0218201	89.6237	-1.99951e-05	-0.0215118
-0.0169373	89.7214	-1.55121e-05	-0.0165955
-0.0120544	89.819	-1.10413e-05	-0.0117157
-0.00717163	89.9167	-6.56433e-06	-0.00686951
-0.00228882	90.0143	-2.08832e-06	-0.00195923
0.000152588	90.0632	1.50146e-07	0.000476074