File: Edgar/20230201 (1)/cv_data_b.txt
Potential applied (V)	Time (s)	WE(1).Current (A)	WE(1).Potential (V)
0.00259399	16.0112	2.39288e-06	0.00292664
0.00747681	16.1089	6.86646e-06	0.0078125
0.0123596	16.2065	1.13403e-05	0.0126495
0.0172424	16.3042	1.58142e-05	0.0175079
0.0221252	16.4018	2.02942e-05	0.0223938
0.0270081	16.4995	2.4765e-05	0.0272675
0.0318909	16.5971	2.92389e-05	0.032135
0.0367737	16.6948	3.37219e-05	0.0370422
0.0416565	16.7925	3.81866e-05	0.0419159
0.0465393	16.8901	4.26575e-05	0.0467987
0.0514221	16.9878	4.71375e-05	0.0514526
0.0563049	17.0854	5.16052e-05	0.0563354
0.0611877	17.1831	5.60913e-05	0.0611267
0.0660706	17.2807	6.05774e-05	0.06604
0.0709534	17.3784	6.5033e-05	0.0708618
0.0758362	17.4761	6.9519e-05	0.0758057
0.080719	17.5737	7.40051e-05	0.0806274
0.0856018	17.6714	7.84912e-05	0.0855103
0.0904846	17.769	8.29468e-05	0.0903625
0.0953674	17.8667	8.74329e-05	0.0952454
0.10025	17.9643	9.19189e-05	0.100159
0.105133	18.062	9.63745e-05	0.105011
0.110016	18.1596	0.000100861	0.109894
0.114899	18.2573	0.000105347	0.114838
0.119781	18.355	0.000109802	0.119629
0.124664	18.4526	0.000114288	0.124573
0.129547	18.5503	0.000118744	0.129395
0.13443	18.6479	0.00012323	0.134277
0.139313	18.7456	0.000127686	0.13916
0.144196	18.8432	0.000132172	0.144043
0.149078	18.9409	0.000136627	0.148865
0.153961	19.0385	0.000141113	0.153748
0.158844	19.1362	0.000145599	0.15863
0.163727	19.2339	0.000150055	0.163544
0.16861	19.3315	0.000154541	0.168427
0.173492	19.4292	0.000159027	0.173218
0.178375	19.5268	0.000163483	0.178101
0.183258	19.6245	0.000167969	0.183014
0.188141	19.7221	0.000172455	0.187897
0.193024	19.8198	0.00017691	0.192749
0.197906	19.9175	0.000181396	0.197571
0.202789	20.0151	0.000185852	0.202454
0.207672	20.1128	0.000190338	0.207306
0.212555	20.2104	0.000194824	0.212189
0.217438	20.3081	0.00019931	0.217072
0.222321	20.4057	0.000203766	0.221924
0.227203	20.5034	0.000208252	0.226746
0.232086	20.601	0.000212708	0.231628
0.236969	20.6987	0.000217194	0.236572
0.241852	20.7964	0.00022168	0.241455
0.246735	20.894	0.000226166	0.246338
0.251617	20.9917	0.000230621	0.251129
0.2565	21.0893	0.000235107	0.256012
0.261383	21.187	0.000239594	0.260864
0.266266	21.2846	0.000244049	0.265778
0.271149	21.3823	0.000248535	0.27063
0.276031	21.4799	0.000252991	0.275421
0.280914	21.5776	0.000257477	0.280365
0.285797	21.6753	0.000261963	0.285187
0.29068	21.7729	0.000266418	0.290039
0.295563	21.8706	0.000270905	0.294952
0.300446	21.9682	0.00027536	0.299744
0.305328	22.0659	0.000279846	0.304657
0.310211	22.1635	0.000284302	0.309479
0.315094	22.2612	0.000288818	0.314392
0.319977	22.3589	0.000293304	0.319275
0.32486	22.4565	0.00029776	0.324188
0.329742	22.5542	0.00030249	0.32959
0.334625	22.6518	0.000306946	0.334412
0.339508	22.7495	0.000311432	0.339325
0.344391	22.8471	0.000315918	0.344177
0.349274	22.9448	0.000320404	0.349121
0.354156	23.0424	0.00032486	0.353912
0.359039	23.1401	0.000329346	0.358795
0.363922	23.2378	0.000333832	0.363708
0.368805	23.3354	0.000338287	0.368561
0.373688	23.4331	0.000342773	0.373444
0.378571	23.5307	0.00034726	0.378265
0.383453	23.6284	0.000351715	0.383209
0.388336	23.726	0.000356201	0.388153
0.393219	23.8237	0.000360687	0.392944
0.398102	23.9213	0.000365173	0.397827
0.402985	24.019	0.000369629	0.40274
0.407867	24.1167	0.000374115	0.407562
0.41275	24.2143	0.000378571	0.412476
0.417633	24.312	0.000383057	0.417328
0.422516	24.4096	0.000387543	0.422211
0.427399	24.5073	0.000391998	0.427094
0.432281	24.6049	0.000396484	0.431976
0.437164	24.7026	0.00040097	0.436798
0.442047	24.8003	0.000405426	0.441742
0.44693	24.8979	0.000409912	0.446533
0.451813	24.9956	0.000414398	0.451477
0.456696	25.0932	0.000418854	0.45636
0.461578	25.1909	0.00042334	0.461273
0.466461	25.2885	0.000427826	0.466125
0.471344	25.3862	0.000432281	0.470978
0.476227	25.4838	0.000436768	0.475891
0.48111	25.5815	0.000441223	0.480713
0.485992	25.6792	0.000445709	0.485657
0.490875	25.7768	0.000450195	0.490479
0.495758	25.8745	0.000454681	0.495392
0.500641	25.9721	0.000459167	0.500275
0.495758	26.0698	0.000454681	0.495361
0.490875	26.1674	0.000450195	0.490417
0.485992	26.2651	0.000445709	0.485657
0.48111	26.3627	0.000441254	0.480713
0.476227	26.4604	0.000436768	0.475861
0.471344	26.5581	0.000432281	0.470947
0.466461	26.6557	0.000427826	0.466125
0.461578	26.7534	0.00042334	0.461182
0.456696	26.851	0.000418854	0.456299
0.451813	26.9487	0.000414368	0.451508
0.44693	27.0463	0.000409912	0.446625
0.442047	27.144	0.000405426	0.441772
0.437164	27.2417	0.00040094	0.436829
0.432281	27.3393	0.000396484	0.432007
0.427399	27.437	0.000391998	0.427124
0.422516	27.5346	0.000387512	0.422241
0.417633	27.6323	0.000383057	0.417358
0.41275	27.7299	0.000378571	0.412476
0.407867	27.8276	0.000374115	0.407562
0.402985	27.9252	0.000369629	0.40271
0.398102	28.0229	0.000365143	0.397797
0.393219	28.1206	0.000360657	0.392944
0.388336	28.2182	0.000356171	0.388031
0.383453	28.3159	0.000351715	0.383179
0.378571	28.4135	0.000347229	0.378357
0.373688	28.5112	0.000342773	0.373474
0.368805	28.6088	0.000338287	0.36853
0.363922	28.7065	0.000333801	0.363739
0.359039	28.8041	0.000329315	0.358826
0.354156	28.9018	0.000324829	0.353912
0.349274	28.9995	0.000320374	0.34906
0.344391	29.0971	0.000315887	0.344238
0.339508	29.1948	0.000311401	0.339325
0.334625	29.2924	0.000306946	0.334442
0.329742	29.3901	0.00030246	0.329529
0.32486	29.4877	0.000297974	0.324707
0.319977	29.5854	0.000293518	0.319763
0.315094	29.6831	0.000289032	0.314941
0.310211	29.7807	0.000284515	0.310059
0.305328	29.8784	0.00028006	0.305145
0.300446	29.976	0.000275574	0.300262
0.295563	30.0737	0.000271088	0.29541
0.29068	30.1713	0.000266602	0.290497
0.285797	30.269	0.000262146	0.285614
0.280914	30.3666	0.00025766	0.280731
0.276031	30.4643	0.000253174	0.275848
0.271149	30.562	0.000248718	0.270996
0.266266	30.6596	0.000244232	0.266144
0.261383	30.7573	0.000239777	0.261261
0.2565	30.8549	0.000235291	0.256348
0.251617	30.9526	0.000230804	0.251495
0.246735	31.0502	0.000226318	0.246643
0.241852	31.1479	0.000221863	0.241791
0.236969	31.2455	0.000217377	0.236877
0.232086	31.3432	0.000212891	0.231995
0.227203	31.4409	0.000208435	0.227112
0.222321	31.5385	0.000203949	0.222168
0.217438	31.6362	0.000199463	0.217377
0.212555	31.7338	0.000195007	0.212494
0.207672	31.8315	0.000190521	0.207642
0.202789	31.9291	0.000186035	0.202759
0.197906	32.0268	0.000181549	0.197815
0.193024	32.1245	0.000177094	0.193024
0.188141	32.2221	0.000172607	0.188141
0.183258	32.3198	0.000168121	0.183228
0.178375	32.4174	0.000163666	0.178345
0.173492	32.5151	0.00015918	0.173462
0.16861	32.6127	0.000154694	0.168579
0.163727	32.7104	0.000150208	0.163757
0.158844	32.808	0.000145752	0.158813
0.153961	32.9057	0.000141266	0.153992
0.149078	33.0034	0.00013678	0.149078
0.144196	33.101	0.000132324	0.144226
0.139313	33.1987	0.000127838	0.139313
0.13443	33.2963	0.000123383	0.13443
0.129547	33.394	0.000118896	0.129578
0.124664	33.4916	0.00011441	0.124725
0.119781	33.5893	0.000109924	0.119843
0.114899	33.6869	0.000105469	0.11496
0.110016	33.7846	0.000100983	0.110138
0.105133	33.8823	9.65271e-05	0.105194
0.10025	33.9799	9.2041e-05	0.100342
0.0953674	34.0776	8.74329e-05	0.0952759
0.0904846	34.1752	8.29468e-05	0.0904236
0.0856018	34.2729	7.84607e-05	0.0855103
0.080719	34.3705	7.40051e-05	0.080658
0.0758362	34.4682	6.9519e-05	0.0757751
0.0709534	34.5659	6.5033e-05	0.0709229
0.0660706	34.6635	6.05774e-05	0.06604
0.0611877	34.7612	5.60913e-05	0.0611877
0.0563049	34.8588	5.16052e-05	0.0563049
0.0514221	34.9565	4.71344e-05	0.0514832
0.0465393	35.0541	4.26605e-05	0.0468018
0.0416565	35.1518	3.81836e-05	0.0419159
0.0367737	35.2494	3.37189e-05	0.0370544
0.0318909	35.3471	2.9245e-05	0.0321808
0.0270081	35.4448	2.47742e-05	0.0272919
0.0221252	35.5424	2.02972e-05	0.0224121
0.0172424	35.6401	1.58173e-05	0.0175323
0.0123596	35.7377	1.13434e-05	0.0126678
0.00747681	35.8354	6.86646e-06	0.00777283
0.00259399	35.933	2.38739e-06	0.00293579
-0.00228882	36.0307	-2.0874e-06	-0.00195618
-0.00717163	36.1283	-6.56128e-06	-0.00684814
-0.0120544	36.226	-1.10352e-05	-0.011731
-0.0169373	36.3237	-1.5509e-05	-0.0165985
-0.0218201	36.4213	-1.9989e-05	-0.0214691
-0.0267029	36.519	-2.44629e-05	-0.0263306
-0.0315857	36.6166	-2.89398e-05	-0.031192
-0.0364685	36.7143	-3.34229e-05	-0.0361267
-0.0413513	36.8119	-3.78906e-05	-0.0409973
-0.0462341	36.9096	-4.23615e-05	-0.045871
-0.0511169	37.0073	-4.68384e-05	-0.0508728
-0.0559998	37.1049	-5.13306e-05	-0.0556946
-0.0608826	37.2026	-5.58167e-05	-0.0605774
-0.0657654	37.3002	-6.03027e-05	-0.0654907
-0.0706482	37.3979	-6.47583e-05	-0.0703125
-0.075531	37.4955	-6.92444e-05	-0.0752563
-0.0804138	37.5932	-7.37305e-05	-0.0801392
-0.0852966	37.6908	-7.82166e-05	-0.0849915
-0.0901794	37.7885	-8.27026e-05	-0.0898743
-0.0950623	37.8862	-8.71582e-05	-0.0947571
-0.0999451	37.9838	-9.16443e-05	-0.0995483
-0.104828	38.0815	-9.61304e-05	-0.104523
-0.109711	38.1791	-0.000100586	-0.109344
-0.114594	38.2768	-0.000105072	-0.114258
-0.119476	38.3744	-0.000109558	-0.119141
-0.124359	38.4721	-0.000114014	-0.123993
-0.129242	38.5697	-0.0001185	-0.128815
-0.134125	38.6674	-0.000122986	-0.133698
-0.139008	38.7651	-0.000127441	-0.13858
-0.14389	38.8627	-0.000131927	-0.143463
-0.148773	38.9604	-0.000136383	-0.148346
-0.153656	39.058	-0.000140869	-0.153229
-0.158539	39.1557	-0.000145355	-0.158051
-0.163422	39.2533	-0.000149811	-0.162933
-0.168304	39.351	-0.000154297	-0.167816
-0.173187	39.4487	-0.000158783	-0.172668
-0.17807	39.5463	-0.000163269	-0.177582
-0.182953	39.644	-0.000167725	-0.182434
-0.187836	39.7416	-0.000172211	-0.187286
-0.192719	39.8393	-0.000176697	-0.192108
-0.197601	39.9369	-0.000181152	-0.196991
-0.202484	40.0346	-0.000185638	-0.201965
-0.207367	40.1322	-0.000190094	-0.206818
-0.21225	40.2299	-0.00019458	-0.211609
-0.217133	40.3276	-0.000199066	-0.216522
-0.222015	40.4252	-0.000203552	-0.221344
-0.226898	40.5229	-0.000208038	-0.226227
-0.231781	40.6205	-0.000212494	-0.23111
-0.236664	40.7182	-0.00021698	-0.236023
-0.241547	40.8158	-0.000221466	-0.240845
-0.246429	40.9135	-0.000225952	-0.245728
-0.251312	41.0111	-0.000230408	-0.25058
-0.256195	41.1088	-0.000234894	-0.255432
-0.261078	41.2065	-0.00023938	-0.260345
-0.265961	41.3041	-0.000243835	-0.265198
-0.270844	41.4018	-0.000248322	-0.270111
-0.275726	41.4994	-0.000252777	-0.274902
-0.280609	41.5971	-0.000257263	-0.279755
-0.285492	41.6947	-0.000261749	-0.284637
-0.290375	41.7924	-0.000266235	-0.289551
-0.295258	41.8901	-0.000270721	-0.294403
-0.30014	41.9877	-0.000275177	-0.299286
-0.305023	42.0854	-0.000279663	-0.304138
-0.309906	42.183	-0.000284149	-0.30899
-0.314789	42.2807	-0.000288635	-0.313904
-0.319672	42.3783	-0.000293121	-0.318787
-0.324554	42.476	-0.000297577	-0.323547
-0.329437	42.5736	-0.000302063	-0.328522
-0.33432	42.6713	-0.000306549	-0.333954
-0.339203	42.769	-0.000311035	-0.338806
-0.344086	42.8666	-0.000315521	-0.343719
-0.348969	42.9643	-0.000320007	-0.348602
-0.353851	43.0619	-0.000324463	-0.353516
-0.358734	43.1596	-0.000328949	-0.358337
-0.363617	43.2572	-0.000333405	-0.363129
-0.3685	43.3549	-0.000337891	-0.368103
-0.373383	43.4525	-0.000342377	-0.372955
-0.378265	43.5502	-0.000346863	-0.377808
-0.383148	43.6479	-0.000351349	-0.382721
-0.388031	43.7455	-0.000355835	-0.387634
-0.392914	43.8432	-0.000360321	-0.392487
-0.397797	43.9408	-0.000364807	-0.3974
-0.402679	44.0385	-0.000369263	-0.402222
-0.407562	44.1361	-0.000373749	-0.407104
-0.412445	44.2338	-0.000378204	-0.412018
-0.417328	44.3315	-0.00038269	-0.41687
-0.422211	44.4291	-0.000387177	-0.421722
-0.427094	44.5268	-0.000391663	-0.426636
-0.431976	44.6244	-0.000396118	-0.431519
-0.436859	44.7221	-0.000400604	-0.436401
-0.441742	44.8197	-0.00040509	-0.441284
-0.446625	44.9174	-0.000409546	-0.446167
-0.451508	45.015	-0.0004140625	-0.45105
-0.45639	45.1127	-0.000418518	-0.455933
-0.461273	45.2104	-0.000423004	-0.460785
-0.466156	45.308	-0.00042749	-0.465698
-0.471039	45.4057	-0.000431976	-0.470612
-0.475922	45.5033	-0.000436432	-0.475433
-0.480804	45.601	-0.000440918	-0.480286
-0.485687	45.6986	-0.000445404	-0.485229
-0.49057	45.7963	-0.00044989	-0.490112
-0.495453	45.8939	-0.000454346	-0.494995
-0.500336	45.9916	-0.000458832	-0.499908
-0.495453	46.0893	-0.000454376	-0.494904
-0.49057	46.1869	-0.00044989	-0.490082
-0.485687	46.2846	-0.000445404	-0.485168
-0.480804	46.3822	-0.000440918	-0.480286
-0.475922	46.4799	-0.000436432	-0.475433
-0.471039	46.5775	-0.000431946	-0.470581
-0.466156	46.6752	-0.00042749	-0.465637
-0.461273	46.7729	-0.000423004	-0.460815
-0.45639	46.8705	-0.000418518	-0.455933
-0.451508	46.9682	-0.0004140625	-0.451019
-0.446625	47.0658	-0.000409576	-0.446167
-0.441742	47.1635	-0.00040509	-0.441254
-0.436859	47.2611	-0.000400604	-0.436401
-0.431976	47.3588	-0.000396149	-0.431458
-0.427094	47.4564	-0.000391663	-0.426605
-0.422211	47.5541	-0.000387177	-0.421753
-0.417328	47.6518	-0.00038269	-0.41687
-0.412445	47.7494	-0.000378235	-0.412018
-0.407562	47.8471	-0.000373749	-0.407104
-0.402679	47.9447	-0.000369263	-0.402252
-0.397797	48.0424	-0.000364807	-0.397308
-0.392914	48.14	-0.000360321	-0.392456
-0.388031	48.2377	-0.000355835	-0.387573
-0.383148	48.3353	-0.000351349	-0.382751
-0.378265	48.433	-0.000346863	-0.377838
-0.373383	48.5307	-0.000342407	-0.372955
-0.3685	48.6283	-0.000337921	-0.368134
-0.363617	48.726	-0.000333435	-0.363251
-0.358734	48.8236	-0.000328949	-0.358307
-0.353851	48.9213	-0.000324493	-0.353424
-0.348969	49.0189	-0.000320007	-0.348602
-0.344086	49.1166	-0.000315521	-0.343658
-0.339203	49.2143	-0.000311035	-0.338837
-0.33432	49.3119	-0.00030658	-0.333954
-0.329437	49.4096	-0.000302094	-0.329041
-0.324554	49.5072	-0.000297607	-0.324158
-0.319672	49.6049	-0.000293121	-0.319305
-0.314789	49.7025	-0.000288666	-0.314392
-0.309906	49.8002	-0.000284149	-0.309509
-0.305023	49.8978	-0.000279663	-0.304657
-0.30014	49.9955	-0.000275177	-0.299744
-0.295258	50.0932	-0.000270721	-0.294861
-0.290375	50.1908	-0.000266235	-0.290009
-0.285492	50.2885	-0.000261749	-0.285126
-0.280609	50.3861	-0.000257294	-0.280243
-0.275726	50.4838	-0.000252777	-0.27536
-0.270844	50.5814	-0.000248322	-0.270477
-0.265961	50.6791	-0.000243835	-0.265625
-0.261078	50.7767	-0.00023938	-0.260681
-0.256195	50.8744	-0.000234894	-0.25589
-0.251312	50.9721	-0.000230408	-0.250946
-0.246429	51.0697	-0.000225922	-0.246094
-0.241547	51.1674	-0.000221436	-0.241241
-0.236664	51.265	-0.00021698	-0.236359
-0.231781	51.3627	-0.000212494	-0.231415
-0.226898	51.4603	-0.000208008	-0.2265625
-0.222015	51.558	-0.000203522	-0.221649
-0.217133	51.6557	-0.000199036	-0.216797
-0.21225	51.7533	-0.00019458	-0.211914
-0.207367	51.851	-0.000190094	-0.207062
-0.202484	51.9486	-0.000185608	-0.202148
-0.197601	52.0463	-0.000181122	-0.197266
-0.192719	52.1439	-0.000176666	-0.192444
-0.187836	52.2416	-0.00017218	-0.1875
-0.182953	52.3392	-0.000167694	-0.182648
-0.17807	52.4369	-0.000163239	-0.177856
-0.173187	52.5346	-0.000158752	-0.172943
-0.168304	52.6322	-0.000154266	-0.167999
-0.163422	52.7299	-0.00014978	-0.163177
-0.158539	52.8275	-0.000145325	-0.158234
-0.153656	52.9252	-0.000140839	-0.153442
-0.148773	53.0228	-0.000136353	-0.148529
-0.14389	53.1205	-0.000131897	-0.143585
-0.139008	53.2181	-0.000127411	-0.138763
-0.134125	53.3158	-0.000122925	-0.13382
-0.129242	53.4135	-0.000118439	-0.128937
-0.124359	53.5111	-0.000113983	-0.124115
-0.119476	53.6088	-0.000109497	-0.119202
-0.114594	53.7064	-0.000105011	-0.11438
-0.109711	53.8041	-0.000100555	-0.109497
-0.104828	53.9017	-9.60693e-05	-0.104614
-0.0999451	53.9994	-9.15833e-05	-0.0997009
-0.0950623	54.0971	-8.71582e-05	-0.0947266
-0.0901794	54.1947	-8.27026e-05	-0.0898743
-0.0852966	54.2924	-7.82166e-05	-0.085022
-0.0804138	54.39	-7.37305e-05	-0.0801086
-0.075531	54.4877	-6.92444e-05	-0.0752258
-0.0706482	54.5853	-6.47888e-05	-0.070343
-0.0657654	54.683	-6.03027e-05	-0.0654297
-0.0608826	54.7806	-5.58167e-05	-0.0605774
-0.0559998	54.8783	-5.13306e-05	-0.0557556
-0.0511169	54.976	-4.68414e-05	-0.0508118
-0.0462341	55.0736	-4.23645e-05	-0.0458801
-0.0413513	55.1713	-3.78937e-05	-0.0409882
-0.0364685	55.2689	-3.34259e-05	-0.0361328
-0.0315857	55.3666	-2.8949e-05	-0.03125
-0.0267029	55.4642	-2.4472e-05	-0.0263885
-0.0218201	55.5619	-1.99982e-05	-0.0214935
-0.0169373	55.6595	-1.55151e-05	-0.0166107
-0.0120544	55.7572	-1.10413e-05	-0.0117279
-0.00717163	55.8549	-6.57043e-06	-0.0068573
-0.00228882	55.9525	-2.0932e-06	-0.00195618
0.00259399	56.0502	2.38953e-06	0.00290833
0.00747681	56.1478	6.86646e-06	0.00777588
0.0123596	56.2455	1.13434e-05	0.0126465
0.0172424	56.3431	1.58142e-05	0.017514
0.0221252	56.4408	2.02942e-05	0.0223907
0.0270081	56.5385	2.47681e-05	0.0272705
0.0318909	56.6361	2.9245e-05	0.032132
0.0367737	56.7338	3.37158e-05	0.0370361
0.0416565	56.8314	3.81805e-05	0.0419128
0.0465393	56.9291	4.26575e-05	0.0467926
0.0514221	57.0267	4.71313e-05	0.0514221
0.0563049	57.1244	5.16052e-05	0.0563049
0.0611877	57.222	5.60913e-05	0.0611267
0.0660706	57.3197	6.05774e-05	0.06604
0.0709534	57.4174	6.5033e-05	0.0708923
0.0758362	57.515	6.9519e-05	0.0758057
0.080719	57.6127	7.40051e-05	0.080658
0.0856018	57.7103	7.84607e-05	0.0854797
0.0904846	57.808	8.29468e-05	0.0903931
0.0953674	57.9056	8.74329e-05	0.0952454
0.10025	58.0033	9.19189e-05	0.100159
0.105133	58.1009	9.63745e-05	0.10498
0.110016	58.1986	0.000100861	0.109924
0.114899	58.2963	0.000105316	0.114777
0.119781	58.3939	0.000109802	0.119629
0.124664	58.4916	0.000114288	0.124481
0.129547	58.5892	0.000118744	0.129333
0.13443	58.6869	0.00012323	0.134277
0.139313	58.7845	0.000127686	0.13916
0.144196	58.8822	0.000132172	0.144012
0.149078	58.9799	0.000136627	0.148895
0.153961	59.0775	0.000141113	0.153778
0.158844	59.1752	0.000145599	0.1586
0.163727	59.2728	0.000150055	0.163483
0.16861	59.3705	0.000154541	0.168304
0.173492	59.4681	0.000158997	0.173248
0.178375	59.5658	0.000163483	0.178101
0.183258	59.6634	0.000167969	0.182983
0.188141	59.7611	0.000172455	0.187836
0.193024	59.8588	0.00017691	0.192719
0.197906	59.9564	0.000181396	0.197571
0.202789	60.0541	0.000185852	0.202454
0.207672	60.1517	0.000190338	0.207306
0.212555	60.2494	0.000194824	0.212219
0.217438	60.347	0.00019928	0.217072
0.222321	60.4447	0.000203766	0.221954
0.227203	60.5423	0.000208252	0.226776
0.232086	60.64	0.000212708	0.231659
0.236969	60.7377	0.000217194	0.236542
0.241852	60.8353	0.00022168	0.241425
0.246735	60.933	0.000226166	0.246307
0.251617	61.0306	0.000230621	0.25116
0.2565	61.1283	0.000235107	0.255951
0.261383	61.2259	0.000239594	0.260773
0.266266	61.3236	0.000244049	0.265747
0.271149	61.4213	0.000248535	0.27063
0.276031	61.5189	0.000252991	0.275421
0.280914	61.6166	0.000257477	0.280334
0.285797	61.7142	0.000261932	0.285217
0.29068	61.8119	0.000266418	0.29007
0.295563	61.9095	0.000270905	0.294952
0.300446	62.0072	0.00027536	0.299805
0.305328	62.1048	0.000279846	0.304626
0.310211	62.2025	0.000284302	0.309509
0.315094	62.3002	0.000288818	0.314484
0.319977	62.3978	0.000293304	0.319275
0.32486	62.4955	0.00029776	0.324158
0.329742	62.5931	0.00030249	0.329529
0.334625	62.6908	0.000306976	0.334503
0.339508	62.7884	0.000311432	0.339325
0.344391	62.8861	0.000315918	0.344147
0.349274	62.9837	0.000320404	0.349091
0.354156	63.0814	0.00032486	0.353882
0.359039	63.1791	0.000329346	0.358826
0.363922	63.2767	0.000333832	0.363678
0.368805	63.3744	0.000338287	0.368561
0.373688	63.472	0.000342773	0.373444
0.378571	63.5697	0.00034726	0.378296
0.383453	63.6673	0.000351715	0.383209
0.388336	63.765	0.000356201	0.388092
0.393219	63.8627	0.000360687	0.392975
0.398102	63.9603	0.000365173	0.397858
0.402985	64.058	0.000369629	0.402679
0.407867	64.1556	0.000374115	0.407593
0.41275	64.2533	0.000378571	0.412476
0.417633	64.3509	0.000383057	0.417328
0.422516	64.4486	0.000387543	0.42218
0.427399	64.5462	0.000392029	0.427124
0.432281	64.6439	0.000396484	0.431946
0.437164	64.7416	0.00040094	0.436829
0.442047	64.8392	0.000405426	0.441772
0.44693	64.9369	0.000409912	0.446594
0.451813	65.0345	0.000414368	0.451477
0.456696	65.1322	0.000418854	0.456299
0.461578	65.2298	0.00042334	0.461273
0.466461	65.3275	0.000427826	0.466125
0.471344	65.4251	0.000432281	0.470917
0.476227	65.5228	0.000436768	0.475891
0.48111	65.6205	0.000441254	0.480774
0.485992	65.7181	0.000445709	0.485626
0.490875	65.8158	0.000450195	0.490509
0.495758	65.9134	0.000454681	0.495422
0.500641	66.0111	0.000459167	0.500244
0.495758	66.1087	0.000454681	0.495392
0.490875	66.2064	0.000450195	0.49054
0.485992	66.3041	0.000445709	0.485657
0.48111	66.4017	0.000441254	0.480774
0.476227	66.4994	0.000436768	0.475861
0.471344	66.597	0.000432281	0.470978
0.466461	66.6947	0.000427826	0.466064
0.461578	66.7923	0.00042334	0.461212
0.456696	66.89	0.000418854	0.45639
0.451813	66.9876	0.000414368	0.451447
0.44693	67.0853	0.000409912	0.446594
0.442047	67.183	0.000405426	0.441711
0.437164	67.2806	0.00040094	0.436829
0.432281	67.3783	0.000396484	0.431946
0.427399	67.4759	0.000391998	0.427124
0.422516	67.5736	0.000387512	0.422211
0.417633	67.6712	0.000383057	0.417389
0.41275	67.7689	0.000378571	0.412506
0.407867	67.8665	0.000374084	0.407562
0.402985	67.9642	0.000369629	0.40271
0.398102	68.0619	0.000365143	0.397797
0.393219	68.1595	0.000360657	0.392975
0.388336	68.2572	0.000356171	0.388092
0.383453	68.3548	0.000351715	0.38327
0.378571	68.4525	0.000347229	0.378296
0.373688	68.5501	0.000342743	0.373444
0.368805	68.6478	0.000338287	0.368591
0.363922	68.7455	0.000333801	0.363708
0.359039	68.8431	0.000329315	0.358826
0.354156	68.9408	0.000324829	0.353912
0.349274	69.0384	0.000320374	0.349091
0.344391	69.1361	0.000315887	0.344147
0.339508	69.2337	0.000311432	0.339233
0.334625	69.3314	0.000306946	0.334412
0.329742	69.429	0.00030246	0.329498
0.32486	69.5267	0.000297974	0.324738
0.319977	69.6244	0.000293518	0.319824
0.315094	69.722	0.000289001	0.314972
0.310211	69.8197	0.000284515	0.310028
0.305328	69.9173	0.00028006	0.305115
0.300446	70.015	0.000275574	0.300201
0.295563	70.1126	0.000271088	0.29538
0.29068	70.2103	0.000266602	0.290527
0.285797	70.3079	0.000262146	0.285583
0.280914	70.4056	0.00025766	0.280762
0.276031	70.5033	0.000253174	0.275848
0.271149	70.6009	0.000248718	0.270996
0.266266	70.6986	0.000244232	0.266083
0.261383	70.7962	0.000239777	0.261261
0.2565	70.8939	0.000235291	0.256378
0.251617	70.9915	0.000230804	0.251495
0.246735	71.0892	0.000226349	0.246643
0.241852	71.1869	0.000221863	0.24176
0.236969	71.2845	0.000217377	0.236816
0.232086	71.3822	0.000212891	0.231995
0.227203	71.4798	0.000208435	0.227142
0.222321	71.5775	0.000203949	0.222229
0.217438	71.6751	0.000199463	0.217346
0.212555	71.7728	0.000194977	0.212494
0.207672	71.8704	0.000190491	0.207611
0.202789	71.9681	0.000186035	0.202759
0.197906	72.0658	0.000181549	0.197845
0.193024	72.1634	0.000177094	0.192932
0.188141	72.2611	0.000172607	0.188141
0.183258	72.3587	0.000168121	0.183197
0.178375	72.4564	0.000163666	0.178345
0.173492	72.554	0.00015918	0.173401
0.16861	72.6517	0.000154694	0.168579
0.163727	72.7493	0.000150208	0.163727
0.158844	72.847	0.000145752	0.158844
0.153961	72.9447	0.000141266	0.153961
0.149078	73.0423	0.00013678	0.149048
0.144196	73.14	0.000132324	0.144257
0.139313	73.2376	0.000127838	0.139282
0.13443	73.3353	0.000123352	0.134399
0.129547	73.4329	0.000118866	0.129608
0.124664	73.5306	0.00011441	0.124695
0.119781	73.6283	0.000109924	0.119781
0.114899	73.7259	0.000105469	0.11496
0.110016	73.8236	0.000100983	0.110077
0.105133	73.9212	9.65271e-05	0.105164
0.10025	74.0189	9.2041e-05	0.100342
0.0953674	74.1165	8.74329e-05	0.0953064
0.0904846	74.2142	8.29468e-05	0.0904541
0.0856018	74.3118	7.84607e-05	0.0855713
0.080719	74.4095	7.40051e-05	0.0805969
0.0758362	74.5072	6.9519e-05	0.0757751
0.0709534	74.6048	6.5033e-05	0.0709229
0.0660706	74.7025	6.05774e-05	0.06604
0.0611877	74.8001	5.60913e-05	0.0611267
0.0563049	74.8978	5.16052e-05	0.0562439
0.0514221	74.9954	4.71313e-05	0.0514526
0.0465393	75.0931	4.26544e-05	0.0467834
0.0416565	75.1907	3.81775e-05	0.0419006
0.0367737	75.2884	3.37097e-05	0.0370392
0.0318909	75.3861	2.92419e-05	0.0321533
0.0270081	75.4837	2.4765e-05	0.0272888
0.0221252	75.5814	2.02911e-05	0.022406
0.0172424	75.679	1.58112e-05	0.0175232
0.0123596	75.7767	1.13373e-05	0.0126434
0.00747681	75.8743	6.86035e-06	0.00777283
0.00259399	75.972	2.38647e-06	0.00291443
-0.00228882	76.0697	-2.09076e-06	-0.00196838
-0.00717163	76.1673	-6.56738e-06	-0.00685425
-0.0120544	76.265	-1.10382e-05	-0.0117279
-0.0169373	76.3626	-1.55121e-05	-0.0165894
-0.0218201	76.4603	-1.99951e-05	-0.0214569
-0.0267029	76.5579	-2.44659e-05	-0.0263458
-0.0315857	76.6556	-2.89398e-05	-0.031192
-0.0364685	76.7532	-3.3429e-05	-0.0361389
-0.0413513	76.8509	-3.78937e-05	-0.0410126
-0.0462341	76.9486	-4.23676e-05	-0.0458801
-0.0511169	77.0462	-4.68445e-05	-0.0509033
-0.0559998	77.1439	-5.13306e-05	-0.0557251
-0.0608826	77.2415	-5.58167e-05	-0.0606689
-0.0657654	77.3392	-6.03027e-05	-0.0654297
-0.0706482	77.4368	-6.47888e-05	-0.0703125
-0.075531	77.5345	-6.92444e-05	-0.0752258
-0.0804138	77.6321	-7.37305e-05	-0.0801086
-0.0852966	77.7298	-7.82166e-05	-0.0850525
-0.0901794	77.8275	-8.27026e-05	-0.0898743
-0.0950623	77.9251	-8.71582e-05	-0.0947266
-0.0999451	78.0228	-9.16443e-05	-0.0996399
-0.104828	78.1204	-9.61304e-05	-0.104523
-0.109711	78.2181	-0.000100616	-0.109406
-0.114594	78.3157	-0.000105072	-0.114227
-0.119476	78.4134	-0.000109558	-0.11908
-0.124359	78.5111	-0.000114014	-0.123993
-0.129242	78.6087	-0.0001185	-0.128876
-0.134125	78.7064	-0.000122986	-0.133667
-0.139008	78.804	-0.000127441	-0.138641
-0.14389	78.9017	-0.000131927	-0.143494
-0.148773	78.9993	-0.000136414	-0.148285
-0.153656	79.097	-0.0001409	-0.153198
-0.158539	79.1946	-0.000145355	-0.158112
-0.163422	79.2923	-0.000149811	-0.162933
-0.168304	79.39	-0.000154297	-0.167847
-0.173187	79.4876	-0.000158783	-0.172668
-0.17807	79.5853	-0.000163269	-0.177582
-0.182953	79.6829	-0.000167725	-0.182343
-0.187836	79.7806	-0.000172211	-0.187256
-0.192719	79.8782	-0.000176697	-0.19223
-0.197601	79.9759	-0.000181152	-0.197052
-0.202484	80.0735	-0.000185638	-0.201904
-0.207367	80.1712	-0.000190125	-0.206787
-0.21225	80.2689	-0.000194611	-0.21167
-0.217133	80.3665	-0.000199066	-0.216461
-0.222015	80.4642	-0.000203552	-0.221375
-0.226898	80.5618	-0.000208038	-0.226257
-0.231781	80.6595	-0.000212494	-0.23111
-0.236664	80.7571	-0.00021701	-0.235992
-0.241547	80.8548	-0.000221466	-0.240875
-0.246429	80.9525	-0.000225952	-0.245697
-0.251312	81.0501	-0.000230408	-0.25058
-0.256195	81.1478	-0.000234894	-0.255463
-0.261078	81.2454	-0.00023938	-0.260284
-0.265961	81.3431	-0.000243866	-0.265167
-0.270844	81.4407	-0.000248322	-0.270111
-0.275726	81.5384	-0.000252808	-0.274933
-0.280609	81.636	-0.000257263	-0.279755
-0.285492	81.7337	-0.000261749	-0.284729
-0.290375	81.8314	-0.000266235	-0.28952
-0.295258	81.929	-0.000270721	-0.294434
-0.30014	82.0267	-0.000275177	-0.299286
-0.305023	82.1243	-0.000279663	-0.304199
-0.309906	82.222	-0.000284149	-0.30899
-0.314789	82.3196	-0.000288635	-0.313934
-0.319672	82.4173	-0.000293121	-0.318756
-0.324554	82.5149	-0.000297607	-0.323639
-0.329437	82.6126	-0.000302063	-0.328522
-0.33432	82.7103	-0.000306549	-0.333954
-0.339203	82.8079	-0.000311035	-0.338867
-0.344086	82.9056	-0.000315521	-0.343719
-0.348969	83.0032	-0.000320007	-0.348572
-0.353851	83.1009	-0.000324463	-0.353424
-0.358734	83.1985	-0.000328949	-0.358337
-0.363617	83.2962	-0.000333435	-0.36319
-0.3685	83.3939	-0.000337891	-0.368073
-0.373383	83.4915	-0.000342377	-0.373016
-0.378265	83.5892	-0.000346863	-0.377808
-0.383148	83.6868	-0.000351349	-0.382721
-0.388031	83.7845	-0.000355835	-0.387604
-0.392914	83.8821	-0.000360291	-0.392456
-0.397797	83.9798	-0.000364807	-0.397369
-0.402679	84.0774	-0.000369263	-0.402252
-0.407562	84.1751	-0.000373749	-0.407166
-0.412445	84.2728	-0.000378204	-0.412018
-0.417328	84.3704	-0.00038269	-0.41687
-0.422211	84.4681	-0.000387177	-0.421783
-0.427094	84.5657	-0.000391663	-0.426666
-0.431976	84.6634	-0.000396118	-0.431488
-0.436859	84.761	-0.000400604	-0.43634
-0.441742	84.8587	-0.00040509	-0.441284
-0.446625	84.9563	-0.000409546	-0.446167
-0.451508	85.054	-0.0004140625	-0.451111
-0.45639	85.1517	-0.000418518	-0.455933
-0.461273	85.2493	-0.000423004	-0.460815
-0.466156	85.347	-0.00042749	-0.465668
-0.471039	85.4446	-0.000431946	-0.470551
-0.475922	85.5423	-0.000436432	-0.475433
-0.480804	85.6399	-0.000440918	-0.480286
-0.485687	85.7376	-0.000445404	-0.485199
-0.49057	85.8353	-0.00044989	-0.490143
-0.495453	85.9329	-0.000454346	-0.494965
-0.500336	86.0306	-0.000458832	-0.499878
-0.495453	86.1282	-0.000454376	-0.494965
-0.49057	86.2259	-0.00044989	-0.490082
-0.485687	86.3235	-0.000445404	-0.485168
-0.480804	86.4212	-0.000440918	-0.480316
-0.475922	86.5188	-0.000436432	-0.475433
-0.471039	86.6165	-0.000431976	-0.470581
-0.466156	86.7142	-0.00042749	-0.465698
-0.461273	86.8118	-0.000423035	-0.460907
-0.45639	86.9095	-0.000418518	-0.455902
-0.451508	87.0071	-0.0004140625	-0.45108
-0.446625	87.1048	-0.000409576	-0.446167
-0.441742	87.2024	-0.00040509	-0.441254
-0.436859	87.3001	-0.000400604	-0.436371
-0.431976	87.3977	-0.000396149	-0.431519
-0.427094	87.4954	-0.000391663	-0.426605
-0.422211	87.5931	-0.000387177	-0.421783
-0.417328	87.6907	-0.00038269	-0.41687
-0.412445	87.7884	-0.000378235	-0.411987
-0.407562	87.886	-0.000373749	-0.407104
-0.402679	87.9837	-0.000369263	-0.402252
-0.397797	88.0813	-0.000364807	-0.3974
-0.392914	88.179	-0.000360321	-0.392548
-0.388031	88.2767	-0.000355835	-0.387665
-0.383148	88.3743	-0.000351349	-0.382721
-0.378265	88.472	-0.000346863	-0.377869
-0.373383	88.5696	-0.000342407	-0.372955
-0.3685	88.6673	-0.000337921	-0.368042
-0.363617	88.7649	-0.000333435	-0.363159
-0.358734	88.8626	-0.000328949	-0.358307
-0.353851	88.9602	-0.000324493	-0.353424
-0.348969	89.0579	-0.000320007	-0.348602
-0.344086	89.1556	-0.000315552	-0.343719
-0.339203	89.2532	-0.000311066	-0.338837
-0.33432	89.3509	-0.00030658	-0.333984
-0.329437	89.4485	-0.000302094	-0.32901
-0.324554	89.5462	-0.000297607	-0.324188
-0.319672	89.6438	-0.000293121	-0.319305
-0.314789	89.7415	-0.000288666	-0.314423
-0.309906	89.8391	-0.000284149	-0.309509
-0.305023	89.9368	-0.000279663	-0.304626
-0.30014	90.0345	-0.000275208	-0.299744
-0.295258	90.1321	-0.000270721	-0.294922
-0.290375	90.2298	-0.000266235	-0.289978
-0.285492	90.3274	-0.000261749	-0.285095
-0.280609	90.4251	-0.000257263	-0.280243
-0.275726	90.5227	-0.000252808	-0.27533
-0.270844	90.6204	-0.000248322	-0.270447
-0.265961	90.7181	-0.000243866	-0.265594
-0.261078	90.8157	-0.00023938	-0.260681
-0.256195	90.9134	-0.000234894	-0.25589
-0.251312	91.011	-0.000230408	-0.250946
-0.246429	91.1087	-0.000225922	-0.246094
-0.241547	91.2063	-0.000221466	-0.241241
-0.236664	91.304	-0.00021698	-0.236359
-0.231781	91.4016	-0.000212494	-0.231476
-0.226898	91.4993	-0.000208008	-0.226532
-0.222015	91.597	-0.000203522	-0.22168
-0.217133	91.6946	-0.000199036	-0.216797
-0.21225	91.7923	-0.00019458	-0.211945
-0.207367	91.8899	-0.000190094	-0.207031
-0.202484	91.9876	-0.000185608	-0.202209
-0.197601	92.0852	-0.000181122	-0.197266
-0.192719	92.1829	-0.000176666	-0.192383
-0.187836	92.2805	-0.00017218	-0.1875
-0.182953	92.3782	-0.000167694	-0.182648
-0.17807	92.4759	-0.000163239	-0.177765
-0.173187	92.5735	-0.000158752	-0.172913
-0.168304	92.6712	-0.000154266	-0.167999
-0.163422	92.7688	-0.00014978	-0.163147
-0.158539	92.8665	-0.000145325	-0.158264
-0.153656	92.9641	-0.000140839	-0.153381
-0.148773	93.0618	-0.000136353	-0.148468
-0.14389	93.1595	-0.000131866	-0.143616
-0.139008	93.2571	-0.00012738	-0.138733
-0.134125	93.3548	-0.000122925	-0.13385
-0.129242	93.4524	-0.000118439	-0.128967
-0.124359	93.5501	-0.000113983	-0.124115
-0.119476	93.6477	-0.000109497	-0.119263
-0.114594	93.7454	-0.000105011	-0.11438
-0.109711	93.843	-0.000100555	-0.109497
-0.104828	93.9407	-9.60693e-05	-0.104614
-0.0999451	94.0384	-9.15833e-05	-0.0997314
-0.0950623	94.136	-8.71582e-05	-0.0947571
-0.0901794	94.2337	-8.27026e-05	-0.0898743
-0.0852966	94.3313	-7.82166e-05	-0.0849609
-0.0804138	94.429	-7.37305e-05	-0.0801697
-0.075531	94.5266	-6.92444e-05	-0.0751953
-0.0706482	94.6243	-6.47888e-05	-0.070343
-0.0657654	94.7219	-6.03027e-05	-0.0654907
-0.0608826	94.8196	-5.58167e-05	-0.0606079
-0.0559998	94.9173	-5.13306e-05	-0.0557556
-0.0511169	95.0149	-4.68445e-05	-0.0508423
-0.0462341	95.1126	-4.23676e-05	-0.0458893
-0.0413513	95.2102	-3.78967e-05	-0.0409912
-0.0364685	95.3079	-3.3429e-05	-0.0361328
-0.0315857	95.4055	-2.8949e-05	-0.0312439
-0.0267029	95.5032	-2.44751e-05	-0.0263702
-0.0218201	95.6009	-1.99982e-05	-0.0215149
-0.0169373	95.6985	-1.55212e-05	-0.0166107
-0.0120544	95.7962	-1.10474e-05	-0.0117371
-0.00717163	95.8938	-6.57043e-06	-0.0068573
-0.00228882	95.9915	-2.0932e-06	-0.00198059
0.000152588	96.0403	1.43738e-07	0.000473022