File: Edgar/20230626/20230626/electrodeposition_prussian_blue/voltametry_sample_D/CV_2
Time (s)	WE(1).Potential (V)	WE(1).Current (A)
72.3617	0.477051	8.32825e-06
72.9721	0.488342	3.40149e-05
73.5824	0.501282	4.35181e-05
74.1928	0.512543	4.87061e-05
74.8031	0.524841	5.22461e-05
75.4135	0.537109	5.49927e-05
76.0238	0.549622	5.72205e-05
76.6342	0.562195	5.90515e-05
77.2445	0.574432	6.05164e-05
77.8549	0.585693	6.17676e-05
78.4652	0.598785	6.30188e-05
79.0756	0.611084	6.43311e-05
79.6859	0.622528	6.56738e-05
80.2963	0.620728	5.86243e-05
80.9066	0.608734	5.04761e-05
81.517	0.596313	4.4342e-05
82.1273	0.583679	3.90686e-05
82.7377	0.571289	3.40485e-05
83.348	0.559479	2.87628e-05
83.9584	0.546936	2.2699e-05
84.5687	0.534698	1.53381e-05
85.1791	0.522705	6.12183e-06
85.7894	0.511292	-5.47791e-06
86.3998	0.499146	-1.99646e-05
87.0101	0.486908	-3.79517e-05
87.6205	0.473999	-5.97534e-05
88.2308	0.462372	-8.57849e-05
88.8412	0.450073	-0.000116333
89.4515	0.438324	-0.000151276
90.0619	0.426239	-0.000190186
90.6722	0.413727	-0.000232941
91.2826	0.401794	-0.000278656
91.8929	0.389008	-0.000327026
92.5033	0.376221	-0.000377167
93.1136	0.363922	-0.000429443
93.724	0.351868	-0.000484131
94.3343	0.340637	-0.000541992
94.9447	0.327881	-0.000603638
95.555	0.31604	-0.000670776
96.1654	0.303589	-0.000744629
96.7757	0.291687	-0.000826721
97.3861	0.279175	-0.000919189
97.9964	0.266388	-0.00102478
98.6068	0.254211	-0.00114624
99.2171	0.242859	-0.0012851
99.8275	0.230682	-0.00144226
100.438	0.21875	-0.00161896
101.048	0.206116	-0.00182159
101.659	0.194	-0.00208588
102.269	0.181641	-0.0024411
102.879	0.169434	-0.00273712
103.49	0.157043	-0.00288666
104.1	0.145447	-0.00292084
104.71	0.133148	-0.00288116
105.321	0.12146	-0.00280334
105.931	0.108459	-0.00271484
106.541	0.0970764	-0.00263092
107.152	0.0839233	-0.00255554
107.762	0.0716858	-0.00248749
108.372	0.0604248	-0.0024234
108.983	0.0478027	-0.00235992
109.593	0.0355682	-0.00229614
110.203	0.0230103	-0.00223236
110.814	0.0104218	-0.00216949
111.424	-0.00138855	-0.00210846
112.034	-0.0136993	-0.00204987
112.645	-0.0261688	-0.00199432
113.255	-0.0378845	-0.00194244
113.866	-0.0499451	-0.00189453
114.476	-0.0627441	-0.00185089
115.086	-0.0740967	-0.00181122
115.697	-0.0863037	-0.00177551
116.307	-0.0990295	-0.00174347
116.917	-0.110748	-0.00171448
117.528	-0.123657	-0.00168854
118.138	-0.134979	-0.00166504
118.748	-0.148102	-0.00164368
119.359	-0.160217	-0.00162384
119.969	-0.171844	-0.00160522
120.579	-0.165131	-0.00154633
121.19	-0.151886	-0.00149384
121.8	-0.140106	-0.00144562
122.41	-0.128662	-0.00139984
123.021	-0.115662	-0.00135529
123.631	-0.104065	-0.00131134
124.241	-0.0920105	-0.0012677
124.852	-0.0797119	-0.00122406
125.462	-0.0666504	-0.0011792
126.073	-0.0549927	-0.00113342
126.683	-0.0433167	-0.00108582
127.293	-0.0300446	-0.00103668
127.904	-0.0180084	-0.000985107
128.514	-0.00624695	-0.000931396
129.124	0.00616455	-0.000875244
129.735	0.0182831	-0.00081665
130.345	0.0303772	-0.000754395
130.955	0.0429657	-0.000689697
131.566	0.0545654	-0.000621033
132.176	0.0667114	-0.000548706
132.786	0.0784302	-0.000472168
133.397	0.0910034	-0.000391937
134.007	0.103607	-0.000307404
134.617	0.11615	-0.000218445
135.228	0.127228	-0.00012439
135.838	0.139526	-2.45392e-05
136.448	0.152527	8.10547e-05
137.059	0.16394	0.000193939
137.669	0.175659	0.00031485
138.28	0.189209	0.00044339
138.89	0.200531	0.000577698
139.5	0.212463	0.000717163
140.111	0.224792	0.000862732
140.721	0.236877	0.00101807
141.331	0.250092	0.0011911
141.942	0.261261	0.00138916
142.552	0.274231	0.00161896
143.162	0.286591	0.00188385
143.773	0.297485	0.00215729
144.383	0.309662	0.00238434
144.993	0.322021	0.00249847
145.604	0.33493	0.00244446
146.214	0.346588	0.00221161
146.824	0.359589	0.0018985
147.435	0.37204	0.0016217
148.045	0.383514	0.00141205
148.655	0.395264	0.00125824
149.266	0.407593	0.00114258
149.876	0.419769	0.00105103
150.487	0.432434	0.000975342
151.097	0.444885	0.00091095
151.707	0.457184	0.000856018
152.318	0.469147	0.000808716
152.928	0.481415	0.000769348
153.538	0.49295	0.000736084
154.149	0.505951	0.000708923
154.759	0.517853	0.00068634
155.369	0.530365	0.000667114
155.98	0.54187	0.000650635
156.59	0.554016	0.000636292
157.2	0.566162	0.000623474
157.811	0.578247	0.000611877
158.421	0.591675	0.000601501
159.031	0.603027	0.000592041
159.642	0.615112	0.000583496
160.252	0.627045	0.000575867
160.862	0.615814	0.000534668
161.473	0.603821	0.000506592
162.083	0.590729	0.000482208
162.694	0.579468	0.000460083
163.304	0.567108	0.000439209
163.914	0.555084	0.000419067
164.525	0.541901	0.00039917
165.135	0.530609	0.000379059
165.745	0.518311	0.000358337
166.356	0.50589	0.000336426
166.966	0.492889	0.000312744
167.576	0.481293	0.000286774
168.187	0.469604	0.000258026
168.797	0.45755	0.000226135
169.407	0.445404	0.000190826
170.018	0.432281	0.000152283
170.628	0.420563	0.000110901
171.238	0.408936	6.6803e-05
171.849	0.395966	2.07733e-05
172.459	0.384521	-2.70325e-05
173.069	0.371948	-7.66602e-05
173.68	0.359131	-0.000128784
174.29	0.347961	-0.000183716
174.901	0.334961	-0.000243317
175.511	0.322998	-0.000308472
176.121	0.31073	-0.000381744
176.732	0.298492	-0.000462982
177.342	0.286896	-0.000556641
177.952	0.274506	-0.000664978
178.563	0.262177	-0.000789795
179.173	0.249481	-0.000932922
179.783	0.238281	-0.00109528
180.394	0.226257	-0.00127777
181.004	0.213928	-0.00148773
181.614	0.201477	-0.00176331
182.225	0.189209	-0.00213318
182.835	0.17746	-0.00245117
183.445	0.164764	-0.00261505
184.056	0.153137	-0.00264862
184.666	0.140717	-0.00259796
185.276	0.128387	-0.00250427
185.887	0.116394	-0.0023996
186.497	0.104431	-0.00230347
187.108	0.0909424	-0.00222198
187.718	0.0799866	-0.0021521
188.328	0.0673828	-0.00208954
188.939	0.0550232	-0.00203003
189.549	0.0421112	-0.00197144
190.159	0.0301331	-0.00191345
190.77	0.0184143	-0.00185577
191.38	0.00656128	-0.00179871
191.99	-0.00644226	-0.00174377
192.601	-0.017868	-0.00169128
193.211	-0.0306488	-0.00164276
193.821	-0.043161	-0.00159729
194.432	-0.0544434	-0.00155548
195.042	-0.0676575	-0.00151733
195.652	-0.0797424	-0.00148376
196.263	-0.091095	-0.00145264
196.873	-0.104309	-0.00142456
197.483	-0.115875	-0.00139893
198.094	-0.127869	-0.00137543
198.704	-0.139771	-0.00135345
199.315	-0.152252	-0.0013327
199.925	-0.1651	-0.00131317
200.535	-0.172333	-0.00128052
201.146	-0.159546	-0.00122345
201.756	-0.147705	-0.00117371
202.366	-0.134918	-0.00112732
202.977	-0.122681	-0.00108215
203.587	-0.111603	-0.0010376
204.197	-0.0991821	-0.000993958
204.808	-0.0870056	-0.000950012
205.418	-0.0751038	-0.000905762
206.028	-0.0629272	-0.000860901
206.639	-0.0499542	-0.000814819
207.249	-0.0384644	-0.000767822
207.859	-0.0253479	-0.000718994
208.47	-0.0140594	-0.00066864
209.08	-0.00125122	-0.000616455
209.69	0.0110138	-0.000562134
210.301	0.0225891	-0.000505371
210.911	0.0347198	-0.00044632
211.522	0.0470428	-0.000384674
212.132	0.0602417	-0.000319977
212.742	0.0713196	-0.00025238
213.353	0.0845032	-0.000181152
213.963	0.0961609	-0.000106659
214.573	0.107666	-2.82745e-05
215.184	0.12088	5.35278e-05
215.794	0.131836	0.000140259
216.404	0.143921	0.000231934
217.015	0.157532	0.000329437
217.625	0.169708	0.000434021
218.235	0.181854	0.000546265
218.846	0.192902	0.000666504
219.456	0.205322	0.000794067
220.066	0.217499	0.00092865
220.677	0.229736	0.00106903
221.287	0.242828	0.00121918
221.897	0.253815	0.0013858
222.508	0.267151	0.00157776
223.118	0.278625	0.00180267
223.729	0.290741	0.00206329
224.339	0.30304	0.00232849
224.949	0.314514	0.00254303
225.56	0.327972	0.00263611
226.17	0.339386	0.0025589
226.78	0.352264	0.00230072
227.391	0.364532	0.00197296
228.001	0.375824	0.00169281
228.611	0.388184	0.00148499
229.222	0.400421	0.00133392
229.832	0.412842	0.0012204
230.442	0.424835	0.00113007
231.053	0.437958	0.00105591
231.663	0.449158	0.000993347
232.273	0.461609	0.000939941
232.884	0.473511	0.000894775
233.494	0.485748	0.000856934
234.104	0.498199	0.000825806
234.715	0.511108	0.000799866
235.325	0.523285	0.000778503
235.936	0.535065	0.000760498
236.546	0.547638	0.000744934
237.156	0.559113	0.000730896
237.767	0.571289	0.000718689
238.377	0.583679	0.000707397
238.987	0.595398	0.000697632
239.598	0.607727	0.000688477
240.208	0.620697	0.000680237
240.818	0.622894	0.000653992
241.429	0.610474	0.000617981
242.039	0.597839	0.000588989
242.649	0.585724	0.000562744
243.26	0.573547	0.000538635
243.87	0.561615	0.000515442
244.48	0.549927	0.000492859
245.091	0.537994	0.00047052
245.701	0.524872	0.000447784
246.311	0.512543	0.000424347
246.922	0.501465	0.000399689
247.532	0.488159	0.000373138
248.143	0.476196	0.000344208
248.753	0.464508	0.0003125
249.363	0.451569	0.000277527
249.974	0.440521	0.000239349
250.584	0.427795	0.000198242
251.194	0.415436	0.000154327
251.805	0.403015	0.000108246
252.415	0.391815	6.02722e-05
253.025	0.379456	1.06232e-05
253.636	0.36734	-4.11072e-05
254.246	0.355347	-9.53064e-05
254.856	0.342194	-0.000152924
255.467	0.330872	-0.000215912
256.077	0.31842	-0.000284698
256.687	0.305847	-0.000362305
257.298	0.294189	-0.000449738
257.908	0.282043	-0.000550842
258.518	0.26886	-0.000667419
259.129	0.256561	-0.000801697
259.739	0.245026	-0.000954895
260.35	0.233368	-0.00112793
260.96	0.220062	-0.00132294
261.57	0.208496	-0.00155823
262.181	0.19693	-0.00189056
262.791	0.184753	-0.00226379
263.401	0.171631	-0.00251923
264.012	0.159363	-0.00261963
264.622	0.147949	-0.00260742
265.232	0.135925	-0.00252777
265.843	0.122803	-0.00242035
266.453	0.110443	-0.00231354
267.063	0.0985718	-0.00222107
267.674	0.0869141	-0.00214294
268.284	0.0746155	-0.0020752
268.894	0.0628052	-0.00201263
269.505	0.0494995	-0.00195221
270.115	0.0380157	-0.00189178
270.725	0.0249207	-0.00183136
271.336	0.0139099	-0.00177124
271.946	0.000692749	-0.00171265
272.557	-0.0115143	-0.00165619
273.167	-0.0226715	-0.00160339
273.777	-0.0355438	-0.00155457
274.388	-0.0480042	-0.0015097
274.998	-0.059906	-0.00146881
275.608	-0.0722961	-0.00143188
276.219	-0.0847473	-0.00139771
276.829	-0.0964661	-0.00136688
277.439	-0.108826	-0.0013382
278.05	-0.121063	-0.00131195
278.66	-0.1328125	-0.00128754
279.27	-0.144714	-0.00126465
279.881	-0.156982	-0.00124329
280.491	-0.170166	-0.00122314
281.101	-0.16748	-0.0011734
281.712	-0.154449	-0.00112152
282.322	-0.143097	-0.00107452
282.932	-0.130768	-0.00102997
283.543	-0.118164	-0.000987244
284.153	-0.10611	-0.000945435
284.764	-0.0947571	-0.000904236
285.374	-0.0821838	-0.000863037
285.984	-0.0692139	-0.000821228
286.595	-0.0572205	-0.000778809
287.205	-0.0450867	-0.000735168
287.815	-0.0324951	-0.000690308
288.426	-0.021048	-0.000643921
289.036	-0.00849609	-0.000595398
289.646	0.00396118	-0.000545044
290.257	0.0151917	-0.0004921875
290.867	0.0285522	-0.000437073
291.477	0.039917	-0.000379425
292.088	0.0517273	-0.000318542
292.698	0.0649414	-0.0002547
293.308	0.0761414	-0.000187683
293.919	0.0888977	-0.000116699
294.529	0.100922	-4.22028e-05
295.139	0.112885	3.59619e-05
295.75	0.125275	0.000118378
296.36	0.137238	0.000205841
296.971	0.149628	0.00029834
297.581	0.161255	0.000397369
298.191	0.174622	0.00050354
298.802	0.186401	0.000617981
299.412	0.198273	0.000740356
300.022	0.210724	0.000870361
300.633	0.223206	0.00100739
301.243	0.235138	0.00115143
301.853	0.247681	0.00130646
302.464	0.259186	0.00148071
303.074	0.270813	0.00168213
303.684	0.284058	0.00191956
304.295	0.295044	0.00218628
304.905	0.307343	0.0024408
305.515	0.319672	0.00262512
306.126	0.331665	0.0026712
306.736	0.344513	0.00253937
307.346	0.355957	0.00224152
307.957	0.368469	0.00191559
308.567	0.380646	0.00165588
309.178	0.392944	0.00146729
309.788	0.405182	0.00132935
310.398	0.418243	0.00122467
311.009	0.430634	0.00114075
311.619	0.441589	0.00107117
312.229	0.453857	0.00101227
312.84	0.466919	0.000962219
313.45	0.478821	0.00092041
314.06	0.49115	0.00088562
314.671	0.502869	0.000857239
315.281	0.515472	0.00083374
315.891	0.528046	0.000814209
316.502	0.539215	0.000798035
317.112	0.552368	0.000783691
317.722	0.563782	0.000771179
318.333	0.576508	0.000759888
318.943	0.588074	0.000749817
319.553	0.60025	0.000740662
320.164	0.613159	0.000732422
320.774	0.624603	0.000725403
321.385	0.617584	0.000685425
321.995	0.605865	0.000651855
322.605	0.593018	0.000623169
323.216	0.58194	0.000596924
323.826	0.569366	0.000572205
324.436	0.557404	0.000548096
325.047	0.545135	0.000524902
325.657	0.532898	0.000501404
326.267	0.519928	0.000477264
326.878	0.50769	0.000452423
327.488	0.496063	0.000426178
328.098	0.484253	0.000397827
328.709	0.47168	0.000367035
329.319	0.459839	0.000333344
329.929	0.446808	0.000296356
330.54	0.434601	0.000256348
331.15	0.422668	0.000213593
331.76	0.410431	0.000168152
332.371	0.397888	0.000120789
332.981	0.386841	7.17163e-05
333.592	0.374664	2.08984e-05
334.202	0.362122	-3.22266e-05
334.812	0.350555	-8.81042e-05
335.423	0.337219	-0.000148224
336.033	0.325378	-0.000213745
336.643	0.31311	-0.000286194
337.254	0.30127	-0.000368164
337.864	0.289398	-0.000461456
338.474	0.276123	-0.000569458
339.085	0.265076	-0.000693665
339.695	0.252167	-0.000836792
340.305	0.240265	-0.00099884
340.916	0.228516	-0.00118164
341.526	0.216278	-0.00139099
342.136	0.203857	-0.00166443
342.747	0.191406	-0.00203796
343.357	0.178833	-0.00237946
343.967	0.167938	-0.00256897
344.578	0.155609	-0.00261658
345.188	0.143341	-0.00256866
345.799	0.130859	-0.00246979
346.409	0.1185	-0.00235748
347.019	0.105927	-0.00225372
347.63	0.0946045	-0.00216583
348.24	0.0820618	-0.00209015
348.85	0.0691833	-0.00202209
349.461	0.0574646	-0.0019577
350.071	0.0456451	-0.00189331
350.681	0.0334442	-0.00182892
351.292	0.0205902	-0.00176514
351.902	0.00786438	-0.00170258
352.512	-0.00408936	-0.00164276
353.123	-0.0155914	-0.00158661
353.733	-0.0275635	-0.00153412
354.343	-0.0406067	-0.0014859
354.954	-0.0530701	-0.00144196
355.564	-0.0649719	-0.00140167
356.174	-0.076416	-0.00136444
356.785	-0.0897522	-0.00133057
357.395	-0.101349	-0.00129974
358.006	-0.11319	-0.00127136
358.616	-0.126251	-0.00124542
359.226	-0.137604	-0.00122131
359.837	-0.150726	-0.00119934
360.447	-0.16272	-0.0011792
361.057	-0.174744	-0.00116058
361.668	-0.162872	-0.00109802
362.278	-0.150696	-0.00105011
362.888	-0.138153	-0.00100616
363.499	-0.125397	-0.000963745
364.109	-0.113525	-0.000923157
364.719	-0.101776	-0.000883179
365.33	-0.0895996	-0.000843506
365.94	-0.0765991	-0.000803528
366.55	-0.0646667	-0.000762939
367.161	-0.0531311	-0.000721741
367.771	-0.0398499	-0.000679016
368.381	-0.0276154	-0.000635071
368.992	-0.0157135	-0.000589294
369.602	-0.00359192	-0.000541687
370.213	0.00834656	-0.000491547
370.823	0.020694	-0.000439331
371.433	0.0327789	-0.000384613
372.044	0.045459	-0.000327209
372.654	0.0566406	-0.000266663
373.264	0.0690613	-0.000202728
373.875	0.0812988	-0.000135437
374.485	0.0935669	-6.44531e-05
375.095	0.10553	1.01227e-05
375.706	0.117218	8.8562e-05
376.316	0.129791	0.000171906
376.926	0.141632	0.000260193
377.537	0.154724	0.000354126
378.147	0.166901	0.00045462
378.757	0.179291	0.000563049
379.368	0.191071	0.000679321
379.978	0.20285	0.000803833
380.588	0.214996	0.000936279
381.199	0.227203	0.00107544
381.809	0.239868	0.00122284
382.42	0.252075	0.00138397
383.03	0.26358	0.00156677
383.64	0.276672	0.00178009
384.251	0.288757	0.00203064
384.861	0.299805	0.00229858
385.471	0.312592	0.00253632
386.082	0.324615	0.00267914
386.692	0.33667	0.00266968
387.302	0.349762	0.00247528
387.913	0.362	0.00214783
388.523	0.37326	0.00183624
389.133	0.386658	0.00160065
389.744	0.398956	0.00143188
390.354	0.410004	0.00130768
390.964	0.423157	0.00121155
391.575	0.43454	0.00113342
392.185	0.447266	0.00106812
392.795	0.459259	0.00101288
393.406	0.472107	0.000966187
394.016	0.483612	0.000927429
394.627	0.495422	0.000895386
395.237	0.507568	0.000869446
395.847	0.520538	0.000848083
396.458	0.532898	0.000830383
397.068	0.54422	0.000815125
397.678	0.556396	0.000802002
398.289	0.569611	0.00079071
398.899	0.58197	0.000780334
399.509	0.593262	0.000771179
400.12	0.605255	0.000762939
400.73	0.61734	0.00075592
401.34	0.625671	0.00073822
401.951	0.612671	0.000697327
402.561	0.600281	0.000665894
403.171	0.588135	0.000637817
403.782	0.576477	0.000611572
404.392	0.563751	0.000586853
405.002	0.551605	0.000562439
405.613	0.539276	0.000538635
406.223	0.527313	0.000514526
406.834	0.515015	0.000489685
407.444	0.503296	0.000463928
408.054	0.491058	0.000436493
408.665	0.478485	0.000406921
409.275	0.466705	0.000374695
409.885	0.454926	0.000339478
410.496	0.442505	0.000301025
411.106	0.430389	0.000259521
411.716	0.418518	0.000215485
412.327	0.405762	0.000169098
412.937	0.393188	0.000120911
413.547	0.381592	7.10754e-05
414.158	0.368713	1.90399e-05
414.768	0.357544	-3.51746e-05
415.378	0.344604	-9.26208e-05
415.989	0.332458	-0.000154907
416.599	0.321411	-0.000223175
417.209	0.308868	-0.000299744
417.82	0.296356	-0.000385651
418.43	0.284515	-0.000484863
419.041	0.271271	-0.00059967
419.651	0.259766	-0.000731812
420.261	0.246796	-0.000883179
420.872	0.235229	-0.00105408
421.482	0.223602	-0.00124725
422.092	0.21109	-0.00147705
422.703	0.199341	-0.00179993
423.313	0.187012	-0.00218414
423.923	0.174774	-0.00247253
424.534	0.162292	-0.00259888
425.144	0.150177	-0.00260101
425.754	0.138428	-0.00252533
426.365	0.126404	-0.00241516
426.975	0.114044	-0.00230286
427.585	0.101868	-0.00220398
428.196	0.0895081	-0.00211914
428.806	0.0764771	-0.00204407
429.416	0.0652161	-0.00197388
430.027	0.052948	-0.00190582
430.637	0.0406738	-0.00183838
431.248	0.0283142	-0.00177185
431.858	0.0161682	-0.00170715
432.468	0.00335693	-0.00164459
433.079	-0.00868225	-0.001586
433.689	-0.0212708	-0.00153107
434.299	-0.0335236	-0.00148041
434.91	-0.0456116	-0.00143341
435.52	-0.0579224	-0.00139069
436.13	-0.0698853	-0.00135132
436.741	-0.0823059	-0.00131531
437.351	-0.0941772	-0.00128235
437.961	-0.106049	-0.00125214
438.572	-0.117889	-0.00122498
439.182	-0.130371	-0.00119995
439.792	-0.143219	-0.00117737
440.403	-0.155365	-0.00115692
441.013	-0.167175	-0.0011377
441.623	-0.169861	-0.00109741
442.234	-0.157013	-0.00104614
442.844	-0.145691	-0.00100098
443.455	-0.133392	-0.000958252
444.065	-0.121124	-0.000917664
444.675	-0.108704	-0.000877991
445.286	-0.0969849	-0.000838928
445.896	-0.0847473	-0.000800171
446.506	-0.0726013	-0.000760498
447.117	-0.0603638	-0.00072052
447.727	-0.0479248	-0.000679321
448.337	-0.035495	-0.000636902
448.948	-0.0235168	-0.000592957
449.558	-0.0105316	-0.00054718
450.168	0.000646973	-0.000499268
450.779	0.0131317	-0.00044931
451.389	0.0250549	-0.000396851
451.999	0.0378967	-0.000341919
452.61	0.0498535	-0.000284027
453.22	0.0624695	-0.0002229
453.83	0.074646	-0.00015863
454.441	0.0860291	-9.05762e-05
455.051	0.0989685	-1.90033e-05
455.662	0.110199	5.64575e-05
456.272	0.122284	0.000136017
456.882	0.134216	0.000220337
457.493	0.146271	0.000309937
458.103	0.15918	0.000405518
458.713	0.171173	0.000508118
459.324	0.183258	0.000618896
459.934	0.196136	0.000737305
460.544	0.20871	0.000864868
461.155	0.21994	0.000999451
461.765	0.233002	0.00114105
462.375	0.244171	0.00129272
462.986	0.257355	0.00146118
463.596	0.268433	0.00165405
464.206	0.280823	0.0018808
464.817	0.293243	0.00214203
465.427	0.30484	0.00240479
466.037	0.317474	0.00261658
466.648	0.329254	0.00271027
467.258	0.342346	0.00263977
467.869	0.353577	0.00238373
468.479	0.366974	0.00204407
469.089	0.379089	0.00175568
469.7	0.390717	0.00154541
470.31	0.402649	0.00139465
470.92	0.415009	0.00128204
471.531	0.427216	0.00119385
472.141	0.439545	0.00112122
472.751	0.452362	0.00105988
473.362	0.464752	0.0010083
473.972	0.476166	0.000964966
474.582	0.488678	0.00092926
475.193	0.500458	0.000899963
475.803	0.512451	0.000875854
476.413	0.525391	0.000856018
477.024	0.536774	0.000839844
477.634	0.5495	0.000825806
478.244	0.561462	0.000813293
478.855	0.573822	0.000802612
479.465	0.585602	0.000793152
480.076	0.598938	0.000784607
480.686	0.611145	0.000777283
481.296	0.62262	0.000770874
481.907	0.619934	0.000737
482.517	0.607666	0.000701294
483.127	0.595886	0.000671387
483.738	0.583984	0.000643921
484.348	0.571136	0.000617981
484.958	0.559753	0.000592957
485.569	0.547455	0.000568542
486.179	0.535553	0.000544434
486.789	0.522705	0.000519714
487.4	0.510864	0.000494293
488.01	0.49826	0.000467712
488.62	0.486664	0.000439209
489.231	0.473907	0.000408447
489.841	0.461884	0.000374908
490.451	0.449219	0.000338226
491.062	0.437103	0.00029837
491.672	0.425171	0.00025592
492.283	0.412811	0.000210785
492.893	0.400482	0.000163666
493.503	0.389282	0.000114685
494.114	0.376251	6.42395e-05
494.724	0.363831	1.14502e-05
495.334	0.351715	-4.41589e-05
495.945	0.339905	-0.000103271
496.555	0.327545	-0.000167786
497.165	0.315399	-0.0002388
497.776	0.304047	-0.000319153
498.386	0.290741	-0.000410461
498.996	0.278534	-0.000516052
499.607	0.267029	-0.000637512
500.217	0.254089	-0.000777588
500.827	0.243134	-0.000937195
501.438	0.230957	-0.00111725
502.048	0.217621	-0.00132202
502.658	0.205536	-0.00158386
503.269	0.194061	-0.0019516
503.879	0.181396	-0.00231598
504.49	0.169952	-0.00254059
505.1	0.156891	-0.002612
505.71	0.144653	-0.00257599
506.321	0.133728	-0.00248047
506.931	0.120178	-0.00236481
507.541	0.108154	-0.00225555
508.152	0.0959167	-0.00216095
508.762	0.0848389	-0.00207794
509.372	0.0726624	-0.00200226
509.983	0.0595703	-0.00192993
510.593	0.047229	-0.00185944
511.203	0.0358765	-0.00179077
511.814	0.0226074	-0.00172424
512.424	0.0107178	-0.00166016
513.034	-0.0018219	-0.00159943
513.645	-0.0136993	-0.00154236
514.255	-0.0263367	-0.00148926
514.865	-0.0373871	-0.00144012
515.476	-0.049469	-0.00139496
516.086	-0.0620117	-0.00135315
516.697	-0.073822	-0.001315
517.307	-0.0866394	-0.00128021
517.917	-0.0993042	-0.00124847
518.528	-0.111115	-0.00121948
519.138	-0.122833	-0.00119293
519.748	-0.135345	-0.00116913
520.359	-0.148315	-0.00114746
520.969	-0.159607	-0.00112762
521.579	-0.171783	-0.00110931
522.19	-0.164246	-0.00105469
522.8	-0.153015	-0.00100677
523.41	-0.140656	-0.000963135
524.021	-0.128754	-0.000921936
524.631	-0.116394	-0.000881958
525.241	-0.103333	-0.000843201
525.852	-0.0910339	-0.000804443
526.462	-0.078949	-0.000765686
527.072	-0.0667114	-0.000726318
527.683	-0.0551758	-0.00068634
528.293	-0.0422455	-0.000644836
528.904	-0.0308105	-0.000602417
529.514	-0.0189178	-0.000558167
530.124	-0.00635986	-0.000512085
530.735	0.00551147	-0.000463715
531.345	0.0187103	-0.00041333
531.955	0.0298737	-0.000360413
532.566	0.0421265	-0.000304871
533.176	0.0547485	-0.000246185
533.786	0.0667114	-0.000184387
534.397	0.0794067	-0.000119019
535.007	0.0917664	-5.01404e-05
535.617	0.103851	2.2406e-05
536.228	0.115387	9.88464e-05
536.838	0.127899	0.0001796875
537.448	0.139008	0.000265564
538.059	0.152527	0.000356934
538.669	0.164398	0.000454407
539.279	0.176483	0.000559692
539.89	0.189026	0.000673218
540.5	0.201172	0.000794678
541.111	0.213257	0.000924683
541.721	0.225433	0.0010614
542.331	0.236908	0.00120667
542.942	0.249939	0.00136322
543.552	0.261658	0.00153992
544.162	0.273712	0.00174438
544.773	0.285645	0.00198608
545.383	0.297882	0.00225403
545.993	0.310608	0.00250336
546.604	0.322479	0.00267975
547.214	0.335022	0.00271729
547.824	0.346832	0.00257874
548.435	0.359467	0.00227112
549.045	0.371704	0.00193787
549.655	0.383118	0.00167725
550.266	0.39624	0.00149139
550.876	0.408386	0.00135651
551.486	0.420258	0.00125488
552.097	0.432953	0.0011734
552.707	0.445099	0.00110596
553.318	0.457428	0.00104889
553.928	0.468628	0.00100098
554.538	0.48172	0.000960693
555.149	0.493591	0.000927734
555.759	0.505981	0.000900574
556.369	0.518097	0.000878296
556.98	0.530212	0.000860291
557.59	0.542267	0.000845032
558.2	0.554718	0.000831909
558.811	0.567139	0.0008203125
559.421	0.579346	0.000810242
560.031	0.59137	0.000801392
560.642	0.602905	0.000793457
561.252	0.61496	0.000786743
561.862	0.627594	0.00078125
562.473	0.615814	0.000733948
563.083	0.604004	0.000700989
563.693	0.590973	0.000671997
564.304	0.578461	0.000645142
564.914	0.56662	0.000619507
565.525	0.554962	0.000594788
566.135	0.542206	0.000570068
566.745	0.529602	0.000545349
567.356	0.517517	0.000520325
567.966	0.50589	0.000494446
568.576	0.494171	0.00046698
569.187	0.480927	0.000437531
569.797	0.469269	0.000405518
570.407	0.45697	0.000370667
571.018	0.444427	0.000332794
571.628	0.433258	0.00029184
572.238	0.421051	0.000248383
572.849	0.407867	0.000202423
573.459	0.395599	0.000154755
574.069	0.383301	0.000105377
574.68	0.371094	5.41687e-05
575.29	0.359375	3.66211e-07
575.9	0.34787	-5.62134e-05
576.511	0.335907	-0.000117401
577.121	0.323883	-0.000184265
577.732	0.311188	-0.00025946
578.342	0.298157	-0.000343018
578.952	0.286285	-0.000439728
579.563	0.273621	-0.000551758
580.173	0.262604	-0.000680847
580.783	0.250427	-0.000828857
581.394	0.237457	-0.000996704
582.004	0.225372	-0.00118591
582.614	0.213226	-0.00140808
583.225	0.200623	-0.00171509
583.835	0.189148	-0.00210419
584.445	0.17746	-0.00242554
585.056	0.165039	-0.00258545
585.666	0.153168	-0.00260803
586.276	0.140259	-0.00254211
586.887	0.128143	-0.00243286
587.497	0.11557	-0.00231689
588.107	0.104004	-0.00221161
588.718	0.0919495	-0.00211975
589.328	0.079834	-0.00203705
589.939	0.0676575	-0.00195984
590.549	0.0551758	-0.00188599
591.159	0.0431488	-0.00181458
591.77	0.0298401	-0.00174591
592.38	0.0177063	-0.00167999
592.99	0.00552368	-0.00161713
593.601	-0.00628357	-0.00155762
594.211	-0.0179871	-0.00150238
594.821	-0.0299896	-0.00145081
595.432	-0.0433929	-0.0014032
596.042	-0.0551147	-0.00135956
596.652	-0.067749	-0.00131927
597.263	-0.0799255	-0.00128265
597.873	-0.0921936	-0.00124939
598.483	-0.103973	-0.00121857
599.094	-0.11557	-0.0011911
599.704	-0.127808	-0.00116608
600.314	-0.1409	-0.00114319
600.925	-0.153137	-0.00112244
601.535	-0.165344	-0.00110352
602.146	-0.172394	-0.00107269
602.756	-0.159302	-0.00101868
603.366	-0.147278	-0.000973206
603.977	-0.135742	-0.000931091
604.587	-0.12381	-0.000890503
605.197	-0.110809	-0.00085144
605.808	-0.0986938	-0.000812988
606.418	-0.0870972	-0.000774536
607.028	-0.0743713	-0.000735779
607.639	-0.0627136	-0.000696716
608.249	-0.0498352	-0.000656433
608.859	-0.037616	-0.000614929
609.47	-0.026358	-0.000571899
610.08	-0.0132904	-0.000527344
610.69	-0.000817871	-0.000480499
611.301	0.011322	-0.000431732
611.911	0.0237274	-0.000380707
612.521	0.0358185	-0.000327301
613.132	0.0478119	-0.000270905
613.742	0.059967	-0.000211334
614.353	0.071106	-0.000148712
614.963	0.0845337	-8.2428e-05
615.573	0.096344	-1.27747e-05
616.184	0.108704	6.10046e-05
616.794	0.120056	0.00013858
617.404	0.1328125	0.000221008
618.015	0.144104	0.00030838
618.625	0.157654	0.00040152
619.235	0.16861	0.000501709
619.846	0.180939	0.000609436
620.456	0.192963	0.000725708
621.066	0.205017	0.000850525
621.677	0.217285	0.000982666
622.287	0.229553	0.00112213
622.897	0.24176	0.00127075
623.508	0.25412	0.00143433
624.118	0.266022	0.00162018
624.728	0.278229	0.00183807
625.339	0.290619	0.0020932
625.949	0.302277	0.00236023
626.56	0.314972	0.00258972
627.17	0.327515	0.00271942
627.78	0.339752	0.00269653
628.391	0.352234	0.0024884
629.001	0.36377	0.00215027
629.611	0.376587	0.00183716
630.222	0.388	0.00160522
630.832	0.400513	0.00144104
631.442	0.412811	0.0013208
632.053	0.425476	0.00122803
632.663	0.437622	0.00115295
633.273	0.449738	0.00109009
633.884	0.461365	0.00103668
634.494	0.474579	0.000992126
635.104	0.486511	0.000954895
635.715	0.498993	0.000924683
636.325	0.511139	0.000899658
636.935	0.522949	0.000879211
637.546	0.534607	0.000862427
638.156	0.547455	0.000848389
638.767	0.559753	0.000836182
639.377	0.571198	0.0008255
639.987	0.58371	0.00081604
640.598	0.596375	0.0008078
641.208	0.607971	0.000800781
641.818	0.620087	0.000794678
642.429	0.622559	0.000768433
643.039	0.610107	0.000730286
643.649	0.597931	0.000699158
644.26	0.58606	0.000671082
644.87	0.574585	0.000644531
645.48	0.561432	0.000619202
646.091	0.549072	0.000594177
646.701	0.536774	0.000569763
647.311	0.524689	0.000544739
647.922	0.512817	0.000519409
648.532	0.500977	0.000492645
649.142	0.489105	0.000464294
649.753	0.476959	0.000433807
650.363	0.463867	0.000400787
650.974	0.45163	0.000364685
651.584	0.439941	0.000325531
652.194	0.427155	0.00028363
652.805	0.414978	0.000239075
653.415	0.40387	0.000192444
654.025	0.390717	0.000144104
654.636	0.378906	9.41162e-05
655.246	0.366302	4.18701e-05
655.856	0.354034	-1.28235e-05
656.467	0.342133	-7.09839e-05
657.077	0.330261	-0.000134338
657.687	0.31781	-0.000203705
658.298	0.306061	-0.000281982
658.908	0.29422	-0.000370667
659.518	0.281891	-0.000473145
660.129	0.269714	-0.000591736
660.739	0.25769	-0.000728455
661.349	0.244507	-0.000884399
661.96	0.232727	-0.0010611
662.57	0.220825	-0.00126099
663.181	0.208527	-0.0015097
663.791	0.195984	-0.00186493
664.401	0.184448	-0.0022464
665.012	0.171906	-0.00250885
665.622	0.160278	-0.00260895
666.232	0.147675	-0.00258972
666.843	0.135529	-0.00250061
667.453	0.123871	-0.00238434
668.063	0.111328	-0.0022702
668.674	0.0988464	-0.00216827
669.284	0.0869141	-0.00207764
669.894	0.0749512	-0.00199432
670.505	0.0617676	-0.0019162
671.115	0.0499878	-0.00184174
671.725	0.0373505	-0.00177063
672.336	0.0261353	-0.00170288
672.946	0.0127869	-0.00163818
673.556	0.000592041	-0.00157684
674.167	-0.0115784	-0.00151947
674.777	-0.0238037	-0.00146606
675.388	-0.0350098	-0.00141632
675.998	-0.0471954	-0.00137024
676.608	-0.0602722	-0.001328125
677.219	-0.0717163	-0.00128967
677.829	-0.0846863	-0.00125427
678.439	-0.0959778	-0.00122223
679.05	-0.109009	-0.00119293
679.66	-0.12085	-0.00116669
680.27	-0.133148	-0.00114288
680.881	-0.145691	-0.00112091
681.491	-0.157562	-0.00110138
682.101	-0.170166	-0.00108307
682.712	-0.167084	-0.00103607
683.322	-0.154602	-0.000987549
683.932	-0.142365	-0.000943909
684.543	-0.130127	-0.00090271
685.153	-0.118317	-0.000863037
685.763	-0.106506	-0.000824585
686.374	-0.0945129	-0.000786133
686.984	-0.0823669	-0.000747986
687.595	-0.0690918	-0.000709229
688.205	-0.058136	-0.000669861
688.815	-0.0449524	-0.000629272
689.426	-0.0334808	-0.000587463
690.036	-0.0213776	-0.000544434
690.646	-0.00922852	-0.000498962
691.257	0.00394287	-0.000451782
691.867	0.0161652	-0.000402588
692.477	0.0284302	-0.000350952
693.088	0.0401367	-0.000296906
693.698	0.0516357	-0.00023941
694.308	0.0638733	-0.000178955
694.919	0.0767517	-0.000115448
695.529	0.0890198	-4.78821e-05
696.139	0.101013	2.30103e-05
696.75	0.113586	9.78394e-05
697.36	0.125336	0.00017688
697.97	0.136414	0.000260956
698.581	0.1492	0.000350311
699.191	0.161377	0.000445404
699.802	0.173492	0.000548096
700.412	0.186035	0.000658875
701.022	0.198151	0.000777893
701.633	0.210327	0.000905457
702.243	0.223236	0.00104034
702.853	0.234924	0.00118256
703.464	0.247589	0.00133575
704.074	0.259735	0.00150696
704.684	0.272003	0.0017041
705.295	0.283966	0.00193695
705.905	0.29541	0.00220154
706.515	0.307281	0.00245941
707.126	0.320465	0.00265961
707.736	0.332611	0.00273621
708.346	0.343811	0.00264832
708.957	0.356384	0.0023761
709.567	0.369324	0.00203003
710.177	0.381653	0.00174438
710.788	0.39386	0.00154022
711.398	0.405396	0.00139496
712.009	0.417511	0.00128693
712.619	0.430115	0.00120148
713.229	0.442627	0.0011319
713.84	0.454346	0.001073
714.45	0.466339	0.00102356
715.06	0.478912	0.000982056
715.671	0.491516	0.000947876
716.281	0.502869	0.0009198
716.891	0.515137	0.000896912
717.502	0.528168	0.000877991
718.112	0.539398	0.000862427
718.722	0.551758	0.000849304
719.333	0.564728	0.000838013
719.943	0.576721	0.000827942
720.553	0.588074	0.000819397
721.164	0.600433	0.000811768
721.774	0.613251	0.000805359
722.384	0.625671	0.000799866
722.995	0.618103	0.000758972
723.605	0.606232	0.000724792
724.216	0.593079	0.000694885
724.826	0.581116	0.000667419
725.436	0.569641	0.000641479
726.047	0.556671	0.00061615
726.657	0.544739	0.000591125
727.267	0.53299	0.000566406
727.878	0.520813	0.000541382
728.488	0.507721	0.000515442
729.098	0.496429	0.000488068
729.709	0.483246	0.000458954
730.319	0.471863	0.000427521
730.929	0.459778	0.000393341
731.54	0.446808	0.000356079
732.15	0.435242	0.000315887
732.76	0.422546	0.000273041
733.371	0.410309	0.000227692
733.981	0.398773	0.000180389
734.591	0.385956	0.00013147
735.202	0.374481	8.09326e-05
735.812	0.362396	2.77985e-05
736.423	0.349823	-2.79663e-05
737.033	0.338257	-8.80127e-05
737.643	0.325745	-0.000153412
738.254	0.313416	-0.000225922
738.864	0.30188	-0.000308014
739.474	0.288513	-0.000401886
740.085	0.276581	-0.000510864
740.695	0.264862	-0.000635986
741.305	0.252716	-0.00078064
741.916	0.240601	-0.000944519
742.526	0.227509	-0.00113007
743.136	0.216217	-0.0013446
743.747	0.203857	-0.00163391
744.357	0.191559	-0.00202057
744.967	0.179321	-0.00236969
745.578	0.16745	-0.00256653
746.188	0.155029	-0.00261292
746.798	0.14267	-0.00255951
747.409	0.130188	-0.00245422
748.019	0.118774	-0.00233582
748.63	0.105804	-0.00222443
749.24	0.0936279	-0.00212463
749.85	0.0813293	-0.0020343
750.461	0.0691223	-0.00195038
751.071	0.057312	-0.00187195
751.681	0.0446838	-0.0017984
752.292	0.0325165	-0.00172821
752.902	0.0204865	-0.00166168
753.512	0.00820313	-0.00159882
754.123	-0.00328369	-0.00153961
754.733	-0.0155487	-0.00148407
755.343	-0.0286835	-0.0014325
755.954	-0.0399109	-0.00138458
756.564	-0.052063	-0.00134064
757.174	-0.0643311	-0.00130035
757.785	-0.07724	-0.00126343
758.395	-0.088623	-0.00122986
759.005	-0.101379	-0.00119904
759.616	-0.1138	-0.00117126
760.226	-0.126007	-0.00114594
760.837	-0.138245	-0.00112305
761.447	-0.150543	-0.00110229
762.057	-0.162354	-0.00108307
762.668	-0.173859	-0.00106598
763.278	-0.162109	-0.00100555
763.888	-0.149506	-0.000959473
764.499	-0.138336	-0.000917053
765.109	-0.125122	-0.00087677
765.719	-0.113708	-0.000837708
766.33	-0.101898	-0.000799561
766.94	-0.0890808	-0.000761414
767.55	-0.0771179	-0.000723267
768.161	-0.0652161	-0.000684509
768.771	-0.0527344	-0.000644531
769.381	-0.0402008	-0.000603638
769.992	-0.0278046	-0.000561523
770.602	-0.0154785	-0.000517578
771.212	-0.00331116	-0.000471771
771.823	0.00789795	-0.000424072
772.433	0.0201813	-0.000374115
773.044	0.0326294	-0.000321777
773.654	0.0455597	-0.000266663
774.264	0.0576172	-0.000208527
774.875	0.0689087	-0.000147186
775.485	0.0810547	-8.23059e-05
776.095	0.093811	-1.40869e-05
776.706	0.105164	5.8075e-05
777.316	0.117371	0.000134003
777.926	0.129822	0.000214813
778.537	0.141663	0.000300293
779.147	0.153992	0.000391571
779.757	0.167114	0.000489136
780.368	0.17865	0.000594482
780.978	0.190552	0.000708008
781.588	0.203552	0.000830383
782.199	0.215851	0.000960693
782.809	0.227112	0.00109772
783.419	0.239899	0.00124359
784.03	0.251526	0.00140228
784.64	0.263611	0.00158234
785.251	0.276337	0.00179199
785.861	0.288696	0.00203918
786.471	0.300507	0.00230713
787.082	0.313141	0.00255005
787.692	0.324554	0.00270996
788.302	0.33725	0.00272858
788.913	0.349091	0.00257111
789.523	0.361084	0.00225037
790.133	0.374237	0.00191589
790.744	0.386505	0.00166107
791.354	0.397919	0.00148163
791.964	0.410919	0.00135254
792.575	0.423065	0.00125458
793.185	0.434784	0.00117645
793.795	0.446777	0.00111145
794.406	0.458984	0.00105682
795.016	0.471802	0.00101074
795.626	0.483398	0.00097229
796.237	0.495697	0.000940857
796.847	0.5078125	0.000914917
797.458	0.520782	0.000894165
798.068	0.53244	0.00087677
798.678	0.544891	0.000862122
799.289	0.557343	0.000849915
799.899	0.569489	0.000839233
800.509	0.581207	0.000830078
801.12	0.59314	0.000821838
801.73	0.605286	0.000814819
802.34	0.617645	0.000808716
802.951	0.625	0.000791931
803.561	0.613525	0.000750427
804.171	0.600952	0.000718384
804.782	0.588318	0.000689697
805.392	0.576538	0.000662842
806.002	0.564636	0.000636902
806.613	0.551788	0.000611877
807.223	0.539612	0.000586853
807.833	0.528046	0.000561829
808.444	0.515106	0.000536499
809.054	0.502899	0.000510254
809.665	0.491089	0.000482208
810.275	0.479279	0.000452271
810.885	0.466492	0.00041983
811.496	0.454956	0.000384552
812.106	0.442627	0.000346191
812.716	0.43045	0.000304779
813.327	0.418304	0.000261017
813.937	0.405579	0.000214966
814.547	0.393158	0.000167114
815.158	0.381104	0.000117645
815.768	0.368927	6.61011e-05
816.378	0.357391	1.21429e-05
816.989	0.344879	-4.50439e-05
817.599	0.333313	-0.000106934
818.209	0.320862	-0.000174805
818.82	0.308167	-0.00025116