File: Edgar/20230626/20230626/electrodeposition_prussian_blue/voltametry_sample_D/good_data_voltammetry.txt
Potential applied (V);Time (s);WE(1).Current (A);WE(1).Potential (V);Scan;Index;Q+;Q-
0,25360107421875;937,06437263414;9,41009521484375E-06;0,25030517578125;1;1;0,112389933876693;-0,0832733988761901
0,30731201171875;939,74991262736;0,00109771728515625;0,307037353515625;1;23;0,112389933876693;-0,0832733988761901
0,36102294921875;942,435452620579;0,0008990478515625;0,360443115234375;1;45;0,112389933876693;-0,0832733988761901
0,41473388671875;945,120992613799;0,00068878173828125;0,41400146484375;1;67;0,112389933876693;-0,0832733988761901
0,46844482421875;947,806532607019;0,00055511474609375;0,4683837890625;1;89;0,112389933876693;-0,0832733988761901
0,52215576171875;950,492072600238;0,000496307373046875;0,521728515625;1;111;0,112389933876693;-0,0832733988761901
0,57586669921875;953,177612593458;0,000487457275390625;0,574920654296875;1;133;0,112389933876693;-0,0832733988761901
0,62957763671875;955,863152586678;0,00049957275390625;0,629302978515625;1;155;0,112389933876693;-0,0832733988761901
0,68328857421875;958,548692579897;0,00056182861328125;0,6824951171875;1;177;0,112389933876693;-0,0832733988761901
0,73699951171875;961,234232573117;0,00078948974609375;0,736480712890625;1;199;0,112389933876693;-0,0832733988761901
0,79071044921875;963,919772566337;0,000997314453125;0,79071044921875;1;221;0,112389933876693;-0,0832733988761901
0,84442138671875;966,605312559556;0,0011474609375;0,84381103515625;1;243;0,112389933876693;-0,0832733988761901
0,89813232421875;969,290852552776;0,00149932861328125;0,897216796875;1;265;0,112389933876693;-0,0832733988761901
0,95184326171875;971,976392545996;0,00217620849609375;0,9521484375;1;287;0,112389933876693;-0,0832733988761901
1,00555419921875;974,661932539215;0,00314605712890625;1,00494384765625;1;309;0,112389933876693;-0,0832733988761901
1,05926513671875;977,347472532435;0,004149169921875;1,0589599609375;1;331;0,112389933876693;-0,0832733988761901
1,11297607421875;980,033012525655;0,0046771240234375;1,112060546875;1;353;0,112389933876693;-0,0832733988761901
1,16668701171875;982,718552518874;0,00486175537109375;1,16607666015625;1;375;0,112389933876693;-0,0832733988761901
1,22039794921875;985,404092512094;0,00482666015625;1,219482421875;1;397;0,112389933876693;-0,0832733988761901
1,18133544921875;988,089632505313;0,00346405029296875;1,181640625;1;419;0,112389933876693;-0,0832733988761901
1,12762451171875;990,775172498533;0,00215789794921875;1,126708984375;1;441;0,112389933876693;-0,0832733988761901
1,07391357421875;993,460712491753;0,00122955322265625;1,07391357421875;1;463;0,112389933876693;-0,0832733988761901
1,02020263671875;996,146252484972;0,000426727294921875;1,019287109375;1;485;0,112389933876693;-0,0832733988761901
0,96649169921875;998,831792478192;-0,000352264404296875;0,96527099609375;1;507;0,112389933876693;-0,0832733988761901
0,91278076171875;1001,51733247141;-0,0011077880859375;0,9124755859375;1;529;0,112389933876693;-0,0832733988761901
0,85906982421875;1004,20287246463;-0,0016790771484375;0,85906982421875;1;551;0,112389933876693;-0,0832733988761901
0,80535888671875;1006,88841245785;-0,00150787353515625;0,80474853515625;1;573;0,112389933876693;-0,0832733988761901
0,75164794921875;1009,57395245107;-0,0007171630859375;0,750732421875;1;595;0,112389933876693;-0,0832733988761901
0,69793701171875;1012,25949244429;-0,00044842529296875;0,697113037109375;1;617;0,112389933876693;-0,0832733988761901
0,64422607421875;1014,94503243751;-0,000345123291015625;0,643524169921875;1;639;0,112389933876693;-0,0832733988761901
0,59051513671875;1017,63057243073;-0,000286041259765625;0,58966064453125;1;661;0,112389933876693;-0,0832733988761901
0,53680419921875;1020,31611242395;-0,000250701904296875;0,536529541015625;1;683;0,112389933876693;-0,0832733988761901
0,48309326171875;1023,00165241717;-0,000236053466796875;0,48272705078125;1;705;0,112389933876693;-0,0832733988761901
0,42938232421875;1025,68719241039;-0,00026837158203125;0,429718017578125;1;727;0,112389933876693;-0,0832733988761901
0,37567138671875;1028,37273240361;-0,000464263916015625;0,37554931640625;1;749;0,112389933876693;-0,0832733988761901
0,32196044921875;1031,05827239683;-0,00067840576171875;0,321502685546875;1;771;0,112389933876693;-0,0832733988761901
0,26824951171875;1033,74381239005;-0,00098785400390625;0,2689208984375;1;793;0,112389933876693;-0,0832733988761901
0,21453857421875;1036,42935238327;-0,00159149169921875;0,21429443359375;1;815;0,112389933876693;-0,0832733988761901
0,16082763671875;1039,11489237649;-0,0028277587890625;0,161346435546875;1;837;0,112389933876693;-0,0832733988761901
0,10711669921875;1041,80043236971;-0,00267913818359375;0,1072998046875;1;859;0,112389933876693;-0,0832733988761901
0,05340576171875;1044,48597236293;-0,00233062744140625;0,053955078125;1;881;0,112389933876693;-0,0832733988761901
-0,00030517578125;1047,17151235615;-0,00203857421875;-0,000436401367187506;1;903;0,112389933876693;-0,0832733988761901
-0,05401611328125;1049,85705234937;-0,00182464599609375;-0,053955078125;1;925;0,112389933876693;-0,0832733988761901
-0,10772705078125;1052,54259234259;-0,00168609619140625;-0,107086181640625;1;947;0,112389933876693;-0,0832733988761901
-0,16143798828125;1055,22813233581;-0,0015966796875;-0,16058349609375;1;969;0,112389933876693;-0,0832733988761901
-0,13702392578125;1057,91367232902;-0,00140289306640625;-0,135955810546875;1;991;0,112389933876693;-0,0832733988761901
-0,08331298828125;1060,59921232224;-0,00121551513671875;-0,082550048828125;1;1013;0,112389933876693;-0,0832733988761901
-0,02960205078125;1063,28475231546;-0,00102569580078125;-0,02969970703125;1;1035;0,112389933876693;-0,0832733988761901
0,02410888671875;1065,97029230868;-0,0008074951171875;0,0246246337890625;1;1057;0,112389933876693;-0,0832733988761901
0,07781982421875;1068,6558323019;-0,00053985595703125;0,0784912109375;1;1079;0,112389933876693;-0,0832733988761901
0,13153076171875;1071,34137229512;-0,00019927978515625;0,131591796875;1;1101;0,112389933876693;-0,0832733988761901
0,18524169921875;1074,02691228834;0,0002593994140625;0,184417724609375;1;1123;0,112389933876693;-0,0832733988761901
0,23895263671875;1076,71245228156;0,0008770751953125;0,2392578125;1;1145;0,112389933876693;-0,0832733988761901
0,29266357421875;1079,39799227478;0,001883544921875;0,292388916015625;2;1167;0,105122831836343;-0,094011826068163
0,34637451171875;1082,083532268;0,00200103759765625;0,34564208984375;2;1189;0,105122831836343;-0,094011826068163
0,40008544921875;1084,76907226122;0,0010418701171875;0,3994140625;2;1211;0,105122831836343;-0,094011826068163
0,45379638671875;1087,45461225444;0,00076995849609375;0,45294189453125;2;1233;0,105122831836343;-0,094011826068163
0,50750732421875;1090,14015224766;0,00063995361328125;0,50750732421875;2;1255;0,105122831836343;-0,094011826068163
0,56121826171875;1092,82569224088;0,0005804443359375;0,5609130859375;2;1277;0,105122831836343;-0,094011826068163
0,61492919921875;1095,5112322341;0,00054901123046875;0,6141357421875;2;1299;0,105122831836343;-0,094011826068163
0,66864013671875;1098,19677222732;0,00054290771484375;0,66790771484375;2;1321;0,105122831836343;-0,094011826068163
0,72235107421875;1100,88231222054;0,00063323974609375;0,721588134765625;2;1343;0,105122831836343;-0,094011826068163
0,77606201171875;1103,56785221376;0,00076904296875;0,7763671875;2;1365;0,105122831836343;-0,094011826068163
0,82977294921875;1106,25339220698;0,00094024658203125;0,83038330078125;2;1387;0,105122831836343;-0,094011826068163
0,88348388671875;1108,9389322002;0,001260986328125;0,88226318359375;2;1409;0,105122831836343;-0,094011826068163
0,93719482421875;1111,62447219342;0,0018280029296875;0,93780517578125;2;1431;0,105122831836343;-0,094011826068163
0,99090576171875;1114,31001218664;0,00263519287109375;0,99090576171875;2;1453;0,105122831836343;-0,094011826068163
1,04461669921875;1116,99555217986;0,0035321044921875;1,04400634765625;2;1475;0,105122831836343;-0,094011826068163
1,09832763671875;1119,68109217308;0,00419189453125;1,0986328125;2;1497;0,105122831836343;-0,094011826068163
1,15203857421875;1122,3666321663;0,00439544677734375;1,15081787109375;2;1519;0,105122831836343;-0,094011826068163
1,20574951171875;1125,05217215952;0,0042205810546875;1,20452880859375;2;1541;0,105122831836343;-0,094011826068163
1,19598388671875;1127,73771215274;0,00283935546875;1,19476318359375;2;1563;0,105122831836343;-0,094011826068163
1,14227294921875;1130,42325214596;0,00169952392578125;1,142578125;2;1585;0,105122831836343;-0,094011826068163
1,08856201171875;1133,10879213918;0,00090423583984375;1,087646484375;2;1607;0,105122831836343;-0,094011826068163
1,03485107421875;1135,7943321324;0,000214508056640625;1,033935546875;2;1629;0,105122831836343;-0,094011826068163
0,98114013671875;1138,47987212561;-0,000469451904296875;0,9814453125;2;1651;0,105122831836343;-0,094011826068163
0,92742919921875;1141,16541211883;-0,001173095703125;0,92742919921875;2;1673;0,105122831836343;-0,094011826068163
0,87371826171875;1143,85095211205;-0,00181732177734375;0,8734130859375;2;1695;0,105122831836343;-0,094011826068163
0,82000732421875;1146,53649210527;-0,00203643798828125;0,8203125;2;1717;0,105122831836343;-0,094011826068163
0,76629638671875;1149,22203209849;-0,0013116455078125;0,7666015625;2;1739;0,105122831836343;-0,094011826068163
0,71258544921875;1151,90757209171;-0,00075439453125;0,711883544921875;2;1761;0,105122831836343;-0,094011826068163
0,65887451171875;1154,59311208493;-0,00057403564453125;0,658294677734375;2;1783;0,105122831836343;-0,094011826068163
0,60516357421875;1157,27865207815;-0,000478424072265625;0,6048583984375;2;1805;0,105122831836343;-0,094011826068163
0,55145263671875;1159,96419207137;-0,00041876220703125;0,550872802734375;2;1827;0,105122831836343;-0,094011826068163
0,49774169921875;1162,64973206459;-0,00038311767578125;0,497467041015625;2;1849;0,105122831836343;-0,094011826068163
0,44403076171875;1165,33527205781;-0,000380126953125;0,44378662109375;2;1871;0,105122831836343;-0,094011826068163
0,39031982421875;1168,02081205103;-0,000540771484375;0,39044189453125;2;1893;0,105122831836343;-0,094011826068163
0,33660888671875;1170,70635204425;-0,00076812744140625;0,336761474609375;2;1915;0,105122831836343;-0,094011826068163
0,28289794921875;1173,39189203747;-0,00103668212890625;0,283416748046875;2;1937;0,105122831836343;-0,094011826068163
0,22918701171875;1176,07743203069;-0,001500244140625;0,22882080078125;2;1959;0,105122831836343;-0,094011826068163
0,17547607421875;1178,76297202391;-0,00260284423828125;0,17584228515625;2;1981;0,105122831836343;-0,094011826068163
0,12176513671875;1181,44851201713;-0,00290283203125;0,122039794921875;2;2003;0,105122831836343;-0,094011826068163
0,06805419921875;1184,13405201035;-0,00249542236328125;0,068817138671875;2;2025;0,105122831836343;-0,094011826068163
0,01434326171875;1186,81959200357;-0,00217498779296875;0,0153106689453125;2;2047;0,105122831836343;-0,094011826068163
-0,03936767578125;1189,50513199679;-0,00193023681640625;-0,038397216796875;2;2069;0,105122831836343;-0,094011826068163
-0,09307861328125;1192,19067199001;-0,00176849365234375;-0,092010498046875;2;2091;0,105122831836343;-0,094011826068163
-0,14678955078125;1194,87621198323;-0,00166717529296875;-0,145721435546875;2;2113;0,105122831836343;-0,094011826068163
-0,15167236328125;1197,56175197645;-0,00150604248046875;-0,150787353515625;2;2135;0,105122831836343;-0,094011826068163
-0,09796142578125;1200,24729196967;-0,00130950927734375;-0,096893310546875;2;2157;0,105122831836343;-0,094011826068163
-0,04425048828125;1202,93283196289;-0,00112152099609375;-0,043316650390625;2;2179;0,105122831836343;-0,094011826068163
0,00946044921875;1205,61837195611;-0,0009112548828125;0,00986633300781251;2;2201;0,105122831836343;-0,094011826068163
0,06317138671875;1208,30391194933;-0,00065673828125;0,063873291015625;2;2223;0,105122831836343;-0,094011826068163
0,11688232421875;1210,98945194255;-0,000336944580078125;0,116668701171875;2;2245;0,105122831836343;-0,094011826068163
0,17059326171875;1213,67499193577;7,9620361328125E-05;0,17083740234375;2;2267;0,105122831836343;-0,094011826068163
0,22430419921875;1216,36053192899;0,000645751953125;0,2237548828125;2;2289;0,105122831836343;-0,094011826068163
0,27801513671875;1219,0460719222;0,0015228271484375;0,277374267578125;3;2311;0,0986447416245937;-0,0939183745533228
0,33172607421875;1221,73161191542;0,0022515869140625;0,330810546875;3;2333;0,0986447416245937;-0,0939183745533228
0,38543701171875;1224,41715190864;0,00113250732421875;0,38482666015625;3;2355;0,0986447416245937;-0,0939183745533228
0,43914794921875;1227,10269190186;0,0007666015625;0,43853759765625;3;2377;0,0986447416245937;-0,0939183745533228
0,49285888671875;1229,78823189508;0,000615234375;0,49273681640625;3;2399;0,0986447416245937;-0,0939183745533228
0,54656982421875;1232,4737718883;0,00054351806640625;0,5455322265625;3;2421;0,0986447416245937;-0,0939183745533228
0,60028076171875;1235,15931188152;0,00050689697265625;0,599395751953125;3;2443;0,0986447416245937;-0,0939183745533228
0,65399169921875;1237,84485187474;0,000487152099609375;0,65283203125;3;2465;0,0986447416245937;-0,0939183745533228
0,70770263671875;1240,53039186796;0,00053466796875;0,706634521484375;3;2487;0,0986447416245937;-0,0939183745533228
0,76141357421875;1243,21593186118;0,00065338134765625;0,76019287109375;3;2509;0,0986447416245937;-0,0939183745533228
0,81512451171875;1245,9014718544;0,000823974609375;0,81390380859375;3;2531;0,0986447416245937;-0,0939183745533228
0,86883544921875;1248,58701184762;0,00111419677734375;0,867919921875;3;2553;0,0986447416245937;-0,0939183745533228
0,92254638671875;1251,27255184084;0,0016339111328125;0,9228515625;3;2575;0,0986447416245937;-0,0939183745533228
0,97625732421875;1253,95809183406;0,00239013671875;0,97503662109375;3;2597;0,0986447416245937;-0,0939183745533228
1,02996826171875;1256,64363182728;0,0032623291015625;1,0296630859375;3;2619;0,0986447416245937;-0,0939183745533228
1,08367919921875;1259,3291718205;0,00395965576171875;1,08367919921875;3;2641;0,0986447416245937;-0,0939183745533228
1,13739013671875;1262,01471181372;0,0041827392578125;1,13616943359375;3;2663;0,0986447416245937;-0,0939183745533228
1,19110107421875;1264,70025180694;0,003966064453125;1,1920166015625;3;2685;0,0986447416245937;-0,0939183745533228
1,21063232421875;1267,38579180016;0,00286468505859375;1,21063232421875;3;2707;0,0986447416245937;-0,0939183745533228
1,15692138671875;1270,07133179338;0,00165557861328125;1,15692138671875;3;2729;0,0986447416245937;-0,0939183745533228
1,10321044921875;1272,7568717866;0,00089141845703125;1,10321044921875;3;2751;0,0986447416245937;-0,0939183745533228
1,04949951171875;1275,44241177982;0,000264007568359375;1,048583984375;3;2773;0,0986447416245937;-0,0939183745533228
0,99578857421875;1278,12795177304;-0,000349578857421875;0,99609375;3;2795;0,0986447416245937;-0,0939183745533228
0,94207763671875;1280,81349176626;-0,00100341796875;0,941162109375;3;2817;0,0986447416245937;-0,0939183745533228
0,88836669921875;1283,49903175948;-0,00166259765625;0,88775634765625;3;2839;0,0986447416245937;-0,0939183745533228
0,83465576171875;1286,1845717527;-0,00210174560546875;0,833740234375;3;2861;0,0986447416245937;-0,0939183745533228
0,78094482421875;1288,87011174592;-0,0017205810546875;0,780029296875;3;2883;0,0986447416245937;-0,0939183745533228
0,72723388671875;1291,55565173914;-0,00093780517578125;0,727203369140625;3;2905;0,0986447416245937;-0,0939183745533228
0,67352294921875;1294,24119173236;-0,0006610107421875;0,67333984375;3;2927;0,0986447416245937;-0,0939183745533228
0,61981201171875;1296,92673172557;-0,0005328369140625;0,619659423828125;3;2949;0,0986447416245937;-0,0939183745533228
0,56610107421875;1299,61227171879;-0,000455963134765625;0,5662841796875;3;2971;0,0986447416245937;-0,0939183745533228
0,51239013671875;1302,29781171201;-0,000407928466796875;0,511688232421875;3;2993;0,0986447416245937;-0,0939183745533228
0,45867919921875;1304,98335170523;-0,000388031005859375;0,458740234375;3;3015;0,0986447416245937;-0,0939183745533228
0,40496826171875;1307,66889169845;-0,000448150634765625;0,405242919921875;3;3037;0,0986447416245937;-0,0939183745533228
0,35125732421875;1310,35443169167;-0,00070281982421875;0,350982666015625;3;3059;0,0986447416245937;-0,0939183745533228
0,29754638671875;1313,03997168489;-0,00095428466796875;0,29803466796875;3;3081;0,0986447416245937;-0,0939183745533228
0,24383544921875;1315,72551167811;-0,0013287353515625;0,24444580078125;3;3103;0,0986447416245937;-0,0939183745533228
0,19012451171875;1318,41105167133;-0,00210540771484375;0,190460205078125;3;3125;0,0986447416245937;-0,0939183745533228
0,13641357421875;1321,09659166455;-0,002921142578125;0,137115478515625;3;3147;0,0986447416245937;-0,0939183745533228
0,08270263671875;1323,78213165777;-0,00249755859375;0,082763671875;3;3169;0,0986447416245937;-0,0939183745533228
0,02899169921875;1326,46767165099;-0,00217742919921875;0,0291595458984375;3;3191;0,0986447416245937;-0,0939183745533228
-0,02471923828125;1329,15321164421;-0,0019287109375;-0,023883056640625;3;3213;0,0986447416245937;-0,0939183745533228
-0,07843017578125;1331,83875163743;-0,0017633056640625;-0,078125;3;3235;0,0986447416245937;-0,0939183745533228
-0,13214111328125;1334,52429163065;-0,0016571044921875;-0,131866455078125;3;3257;0,0986447416245937;-0,0939183745533228
-0,16632080078125;1337,20983162387;-0,00154052734375;-0,165313720703125;3;3279;0,0986447416245937;-0,0939183745533228
-0,11260986328125;1339,89537161709;-0,00133575439453125;-0,11181640625;3;3301;0,0986447416245937;-0,0939183745533228
-0,05889892578125;1342,58091161031;-0,001153564453125;-0,058990478515625;3;3323;0,0986447416245937;-0,0939183745533228
-0,00518798828125;1345,26645160353;-0,00095855712890625;-0,0052490234375;3;3345;0,0986447416245937;-0,0939183745533228
0,04852294921875;1347,95199159675;-0,0007281494140625;0,049169921875;3;3367;0,0986447416245937;-0,0939183745533228
0,10223388671875;1350,63753158997;-0,00043896484375;0,1021728515625;3;3389;0,0986447416245937;-0,0939183745533228
0,15594482421875;1353,32307158319;-6,9366455078125E-05;0,155517578125;3;3411;0,0986447416245937;-0,0939183745533228
0,20965576171875;1356,00861157641;0,00043243408203125;0,20904541015625;3;3433;0,0986447416245937;-0,0939183745533228
0,26336669921875;1358,69415156963;0,00115570068359375;0,263671875;4;3455;0,0879381462931634;-0,0554700002074242
0,31707763671875;1361,37969156285;0,00212738037109375;0,31707763671875;4;3477;0,0879381462931634;-0,0554700002074242
0,37078857421875;1364,06523155607;0,00131805419921875;0,371002197265625;4;3499;0,0879381462931634;-0,0554700002074242
0,42449951171875;1366,75077154929;0,0007763671875;0,42449951171875;4;3521;0,0879381462931634;-0,0554700002074242
0,47821044921875;1369,43631154251;0,0006072998046875;0,477142333984375;4;3543;0,0879381462931634;-0,0554700002074242
0,53192138671875;1372,12185153573;0,0005255126953125;0,53106689453125;4;3565;0,0879381462931634;-0,0554700002074242
0,58563232421875;1374,80739152895;0,000484100341796875;0,58502197265625;4;3587;0,0879381462931634;-0,0554700002074242
0,63934326171875;1377,49293152216;0,00045977783203125;0,639434814453125;4;3609;0,0879381462931634;-0,0554700002074242
0,69305419921875;1380,17847151538;0,000478240966796875;0,6923828125;4;3631;0,0879381462931634;-0,0554700002074242
0,74676513671875;1382,8640115086;0,000579833984375;0,74664306640625;4;3653;0,0879381462931634;-0,0554700002074242
0,80047607421875;1385,54955150182;0,000740966796875;0,8001708984375;4;3675;0,0879381462931634;-0,0554700002074242
0,85418701171875;1388,23509149504;0,00098846435546875;0,8544921875;4;3697;0,0879381462931634;-0,0554700002074242
0,90789794921875;1390,92063148826;0,00143890380859375;0,90728759765625;4;3719;0,0879381462931634;-0,0554700002074242
0,96160888671875;1393,60617148148;0,00212188720703125;0,9619140625;4;3741;0,0879381462931634;-0,0554700002074242
1,01531982421875;1396,2917114747;0,00295867919921875;1,01470947265625;4;3763;0,0879381462931634;-0,0554700002074242
1,06903076171875;1398,97725146792;0,0036859130859375;1,0693359375;4;3785;0,0879381462931634;-0,0554700002074242
1,12274169921875;1401,66279146114;0,00397308349609375;1,123046875;4;3807;0,0879381462931634;-0,0554700002074242
1,17645263671875;1404,34833145436;0,00365203857421875;1,17523193359375;4;3829;0,0879381462931634;-0,0554700002074242
1,22528076171875;1407,03387144758;0,00262420654296875;1,22528076171875;4;3851;0,0879381462931634;-0,0554700002074242
1,17156982421875;1409,7194114408;0,001214599609375;1,171875;4;3873;0,0879381462931634;-0,0554700002074242
1,11785888671875;1412,40495143402;0,0006298828125;1,116943359375;4;3895;0,0879381462931634;-0,0554700002074242
1,06414794921875;1415,09049142724;0,000271453857421875;1,06292724609375;4;3917;0,0879381462931634;-0,0554700002074242
1,01043701171875;1417,77603142046;-3,88427734375E-05;1,009521484375;4;3939;0,0879381462931634;-0,0554700002074242
0,95672607421875;1420,46157141368;-0,000371673583984375;0,95703125;4;3961;0,0879381462931634;-0,0554700002074242
0,90301513671875;1423,1471114069;-0,000712890625;0,90301513671875;4;3983;0,0879381462931634;-0,0554700002074242
0,84930419921875;1425,83265140012;-0,00087066650390625;0,849609375;4;4005;0,0879381462931634;-0,0554700002074242
0,79559326171875;1428,51819139334;-0,00065673828125;0,794677734375;4;4027;0,0879381462931634;-0,0554700002074242
0,74188232421875;1431,20373138656;-0,000425811767578125;0,741546630859375;4;4049;0,0879381462931634;-0,0554700002074242
0,68817138671875;1433,88927137978;-0,00030316162109375;0,687744140625;4;4071;0,0879381462931634;-0,0554700002074242
0,63446044921875;1436,574811373;-0,00023974609375;0,634063720703125;4;4093;0,0879381462931634;-0,0554700002074242
0,58074951171875;1439,26035136622;-0,000204681396484375;0,580963134765625;4;4115;0,0879381462931634;-0,0554700002074242
0,52703857421875;1441,94589135944;-0,0001864013671875;0,52703857421875;4;4137;0,0879381462931634;-0,0554700002074242
0,47332763671875;1444,63143135266;-0,0001876220703125;0,473602294921875;4;4159;0,0879381462931634;-0,0554700002074242
0,41961669921875;1447,31697134588;-0,000237518310546875;0,419219970703125;4;4181;0,0879381462931634;-0,0554700002074242
0,36590576171875;1450,0025113391;-0,00042584228515625;0,365478515625;4;4203;0,0879381462931634;-0,0554700002074242
0,31219482421875;1452,68805133232;-0,00073577880859375;0,312286376953125;4;4225;0,0879381462931634;-0,0554700002074242
0,25848388671875;1455,37359132554;-0,00097808837890625;0,25897216796875;4;4247;0,0879381462931634;-0,0554700002074242
0,20477294921875;1458,05913131875;-0,00130828857421875;0,205352783203125;4;4269;0,0879381462931634;-0,0554700002074242
0,15106201171875;1460,74467131197;-0,001494140625;0,151611328125;4;4291;0,0879381462931634;-0,0554700002074242
0,09735107421875;1463,43021130519;-0,00131591796875;0,097808837890625;4;4313;0,0879381462931634;-0,0554700002074242
0,04364013671875;1466,11575129841;-0,0012518310546875;0,0442535400390625;4;4335;0,0879381462931634;-0,0554700002074242
-0,01007080078125;1468,80129129163;-0,00122467041015625;-0,009124755859375;4;4357;0,0879381462931634;-0,0554700002074242
-0,06378173828125;1471,48683128485;-0,00120330810546875;-0,063873291015625;4;4379;0,0879381462931634;-0,0554700002074242
-0,11749267578125;1474,17237127807;-0,00118255615234375;-0,1173095703125;4;4401;0,0879381462931634;-0,0554700002074242
-0,17120361328125;1476,85791127129;-0,0011669921875;-0,17047119140625;4;4423;0,0879381462931634;-0,0554700002074242
-0,12725830078125;1479,54345126451;-0,00100433349609375;-0,127197265625;4;4445;0,0879381462931634;-0,0554700002074242
-0,07354736328125;1482,22899125773;-0,00086395263671875;-0,07293701171875;4;4467;0,0879381462931634;-0,0554700002074242
-0,01983642578125;1484,91453125095;-0,00073089599609375;-0,019488525390625;4;4489;0,0879381462931634;-0,0554700002074242
0,03387451171875;1487,60007124417;-0,0005914306640625;0,03402099609375;4;4511;0,0879381462931634;-0,0554700002074242
0,08758544921875;1490,28561123739;-0,00043157958984375;0,08831787109375;4;4533;0,0879381462931634;-0,0554700002074242
0,14129638671875;1492,97115123061;-0,000236358642578125;0,141021728515625;4;4555;0,0879381462931634;-0,0554700002074242
0,19500732421875;1495,65669122383;2,44049072265625E-05;0,195159912109375;4;4577;0,0879381462931634;-0,0554700002074242
0,24871826171875;1498,34223121705;0,000422027587890625;0,248199462890625;4;4599;0,0879381462931634;-0,0554700002074242
0,30242919921875;1501,02777121027;0,00088226318359375;0,30267333984375;5;4621;0,0435631196945906;-0,0371700432151556
0,35614013671875;1503,71331120349;0,00055389404296875;0,35540771484375;5;4643;0,0435631196945906;-0,0371700432151556
0,40985107421875;1506,39885119671;0,00044537353515625;0,41021728515625;5;4665;0,0435631196945906;-0,0371700432151556
0,46356201171875;1509,08439118993;0,000397705078125;0,462921142578125;5;4687;0,0435631196945906;-0,0371700432151556
0,51727294921875;1511,76993118315;0,00036468505859375;0,517364501953125;5;4709;0,0435631196945906;-0,0371700432151556
0,57098388671875;1514,45547117637;0,000343292236328125;0,57086181640625;5;4731;0,0435631196945906;-0,0371700432151556
0,62469482421875;1517,14101116959;0,000328948974609375;0,624176025390625;5;4753;0,0435631196945906;-0,0371700432151556
0,67840576171875;1519,82655116281;0,0003277587890625;0,6773681640625;5;4775;0,0435631196945906;-0,0371700432151556
0,73211669921875;1522,51209115603;0,000377227783203125;0,731048583984375;5;4797;0,0435631196945906;-0,0371700432151556
0,78582763671875;1525,19763114925;0,00046221923828125;0,784912109375;5;4819;0,0435631196945906;-0,0371700432151556
0,83953857421875;1527,88317114247;0,000540771484375;0,83984375;5;4841;0,0435631196945906;-0,0371700432151556
0,89324951171875;1530,56871113569;0,000716552734375;0,89263916015625;5;4863;0,0435631196945906;-0,0371700432151556
0,94696044921875;1533,25425112891;0,0010467529296875;0,947265625;5;4885;0,0435631196945906;-0,0371700432151556
1,00067138671875;1535,93979112212;0,00146484375;0,99945068359375;5;4907;0,0435631196945906;-0,0371700432151556
1,05438232421875;1538,62533111534;0,00175079345703125;1,05499267578125;5;4929;0,0435631196945906;-0,0371700432151556
1,10809326171875;1541,31087110856;0,00173553466796875;1,10748291015625;5;4951;0,0435631196945906;-0,0371700432151556
1,16180419921875;1543,99641110178;0,0014739990234375;1,16241455078125;5;4973;0,0435631196945906;-0,0371700432151556
1,21551513671875;1546,681951095;0,0011773681640625;1,2164306640625;5;4995;0,0435631196945906;-0,0371700432151556
1,18621826171875;1549,36749108822;0,0007281494140625;1,1865234375;5;5017;0,0435631196945906;-0,0371700432151556
1,13250732421875;1552,05303108144;0,0004625244140625;1,1328125;5;5039;0,0435631196945906;-0,0371700432151556
1,07879638671875;1554,73857107466;0,00026788330078125;1,077880859375;5;5061;0,0435631196945906;-0,0371700432151556
1,02508544921875;1557,42411106788;9,576416015625E-05;1,025390625;5;5083;0,0435631196945906;-0,0371700432151556
0,97137451171875;1560,1096510611;-8,0718994140625E-05;0,97198486328125;5;5105;0,0435631196945906;-0,0371700432151556
0,91766357421875;1562,79519105432;-0,000262908935546875;0,91796875;5;5127;0,0435631196945906;-0,0371700432151556
0,86395263671875;1565,48073104754;-0,000376129150390625;0,86395263671875;5;5149;0,0435631196945906;-0,0371700432151556
0,81024169921875;1568,16627104076;-0,000327239990234375;0,80963134765625;5;5171;0,0435631196945906;-0,0371700432151556
0,75653076171875;1570,85181103398;-0,000241424560546875;0,7562255859375;5;5193;0,0435631196945906;-0,0371700432151556
0,70281982421875;1573,5373510272;-0,000165313720703125;0,70263671875;5;5215;0,0435631196945906;-0,0371700432151556
0,64910888671875;1576,22289102042;-0,0001163330078125;0,648468017578125;5;5237;0,0435631196945906;-0,0371700432151556
0,59539794921875;1578,90843101364;-9,3292236328125E-05;0,5955810546875;5;5259;0,0435631196945906;-0,0371700432151556
0,54168701171875;1581,59397100686;-8,4228515625E-05;0,541961669921875;5;5281;0,0435631196945906;-0,0371700432151556
0,48797607421875;1584,27951100008;-8,9691162109375E-05;0,4876708984375;5;5303;0,0435631196945906;-0,0371700432151556
0,43426513671875;1586,9650509933;-0,000132415771484375;0,434234619140625;5;5325;0,0435631196945906;-0,0371700432151556
0,38055419921875;1589,65059098652;-0,00026446533203125;0,38092041015625;5;5347;0,0435631196945906;-0,0371700432151556
0,32684326171875;1592,33613097974;-0,0005157470703125;0,326568603515625;5;5369;0,0435631196945906;-0,0371700432151556
0,27313232421875;1595,02167097296;-0,00067718505859375;0,273162841796875;5;5391;0,0435631196945906;-0,0371700432151556
0,21942138671875;1597,70721096618;-0,0008477783203125;0,219268798828125;5;5413;0,0435631196945906;-0,0371700432151556
0,16571044921875;1600,3927509594;-0,0009075927734375;0,166229248046875;5;5435;0,0435631196945906;-0,0371700432151556
0,11199951171875;1603,07829095262;-0,00084686279296875;0,112274169921875;5;5457;0,0435631196945906;-0,0371700432151556
0,05828857421875;1605,76383094584;-0,00085113525390625;0,0587158203125;5;5479;0,0435631196945906;-0,0371700432151556
0,00457763671875;1608,44937093906;-0,00087554931640625;0,00496826171875001;5;5501;0,0435631196945906;-0,0371700432151556
-0,04913330078125;1611,13491093228;-0,00090057373046875;-0,0483306884765625;5;5523;0,0435631196945906;-0,0371700432151556
-0,10284423828125;1613,8204509255;-0,0009124755859375;-0,102569580078125;5;5545;0,0435631196945906;-0,0371700432151556
-0,15655517578125;1616,50599091871;-0,00092071533203125;-0,15582275390625;5;5567;0,0435631196945906;-0,0371700432151556
-0,14190673828125;1619,19153091193;-0,00082275390625;-0,141021728515625;5;5589;0,0435631196945906;-0,0371700432151556
-0,08819580078125;1621,87707090515;-0,000699462890625;-0,0880126953125;5;5611;0,0435631196945906;-0,0371700432151556
-0,03448486328125;1624,56261089837;-0,0005902099609375;-0,03367919921875;5;5633;0,0435631196945906;-0,0371700432151556
0,01922607421875;1627,24815089159;-0,0004847412109375;0,0190673828125;5;5655;0,0435631196945906;-0,0371700432151556
0,07293701171875;1629,93369088481;-0,00037689208984375;0,072662353515625;5;5677;0,0435631196945906;-0,0371700432151556
0,12664794921875;1632,61923087803;-0,000259124755859375;0,12689208984375;5;5699;0,0435631196945906;-0,0371700432151556
0,18035888671875;1635,30477087125;-0,000118316650390625;0,180145263671875;5;5721;0,0435631196945906;-0,0371700432151556
0,23406982421875;1637,99031086447;7,55615234375E-05;0,234130859375;5;5743;0,0435631196945906;-0,0371700432151556
0,28778076171875;1640,67585085769;0,000403350830078125;0,28765869140625;6;5765;0,0281889382749796;-0,0316347014158964
0,34149169921875;1643,36139085091;0,000362152099609375;0,341064453125;6;5787;0,0281889382749796;-0,0316347014158964
0,39520263671875;1646,04693084413;0,00033587646484375;0,39471435546875;6;5809;0,0281889382749796;-0,0316347014158964
0,44891357421875;1648,73247083735;0,00032073974609375;0,449066162109375;6;5831;0,0281889382749796;-0,0316347014158964
0,50262451171875;1651,41801083057;0,0003050537109375;0,501922607421875;6;5853;0,0281889382749796;-0,0316347014158964
0,55633544921875;1654,10355082379;0,00029241943359375;0,556182861328125;6;5875;0,0281889382749796;-0,0316347014158964
0,61004638671875;1656,78909081701;0,000282806396484375;0,60968017578125;6;5897;0,0281889382749796;-0,0316347014158964
0,66375732421875;1659,47463081023;0,00027838134765625;0,662994384765625;6;5919;0,0281889382749796;-0,0316347014158964
0,71746826171875;1662,16017080345;0,0002967529296875;0,717254638671875;6;5941;0,0281889382749796;-0,0316347014158964
0,77117919921875;1664,84571079667;0,000357086181640625;0,77178955078125;6;5963;0,0281889382749796;-0,0316347014158964
0,82489013671875;1667,53125078989;0,00038458251953125;0,82550048828125;6;5985;0,0281889382749796;-0,0316347014158964
0,87860107421875;1670,21679078311;0,000415130615234375;0,87799072265625;6;6007;0,0281889382749796;-0,0316347014158964
0,93231201171875;1672,90233077633;0,00052398681640625;0,9326171875;6;6029;0,0281889382749796;-0,0316347014158964
0,98602294921875;1675,58787076955;0,00069488525390625;0,986328125;6;6051;0,0281889382749796;-0,0316347014158964
1,03973388671875;1678,27341076277;0,00083526611328125;1,03973388671875;6;6073;0,0281889382749796;-0,0316347014158964
1,09344482421875;1680,95895075599;0,0009033203125;1,09344482421875;6;6095;0,0281889382749796;-0,0316347014158964
1,14715576171875;1683,64449074921;0,0009185791015625;1,1468505859375;6;6117;0,0281889382749796;-0,0316347014158964
1,20086669921875;1686,33003074243;0,000906982421875;1,20025634765625;6;6139;0,0281889382749796;-0,0316347014158964
1,20086669921875;1689,01557073565;0,00069915771484375;1,20086669921875;6;6161;0,0281889382749796;-0,0316347014158964
1,14715576171875;1691,70111072887;0,00046551513671875;1,14715576171875;6;6183;0,0281889382749796;-0,0316347014158964
1,09344482421875;1694,38665072209;0,000292510986328125;1,092529296875;6;6205;0,0281889382749796;-0,0316347014158964
1,03973388671875;1697,0721907153;0,000143280029296875;1,04034423828125;6;6227;0,0281889382749796;-0,0316347014158964
0,98602294921875;1699,75773070852;-3,8665771484375E-06;0,9857177734375;6;6249;0,0281889382749796;-0,0316347014158964
0,93231201171875;1702,44327070174;-0,00015667724609375;0,931396484375;6;6271;0,0281889382749796;-0,0316347014158964
0,87860107421875;1705,12881069496;-0,000285430908203125;0,8782958984375;6;6293;0,0281889382749796;-0,0316347014158964
0,82489013671875;1707,81435068818;-0,0002822265625;0,8251953125;6;6315;0,0281889382749796;-0,0316347014158964
0,77117919921875;1710,4998906814;-0,0002149658203125;0,7708740234375;6;6337;0,0281889382749796;-0,0316347014158964
0,71746826171875;1713,18543067462;-0,000149078369140625;0,716796875;6;6359;0,0281889382749796;-0,0316347014158964
0,66375732421875;1715,87097066784;-9,5062255859375E-05;0,663848876953125;6;6381;0,0281889382749796;-0,0316347014158964
0,61004638671875;1718,55651066106;-6,82373046875E-05;0,610015869140625;6;6403;0,0281889382749796;-0,0316347014158964
0,55633544921875;1721,24205065428;-5,76171875E-05;0,555633544921875;6;6425;0,0281889382749796;-0,0316347014158964
0,50262451171875;1723,9275906475;-5,9600830078125E-05;0,5029296875;6;6447;0,0281889382749796;-0,0316347014158964
0,44891357421875;1726,61313064072;-8,6883544921875E-05;0,448272705078125;6;6469;0,0281889382749796;-0,0316347014158964
0,39520263671875;1729,29867063394;-0,000173675537109375;0,395111083984375;6;6491;0,0281889382749796;-0,0316347014158964
0,34149169921875;1731,98421062716;-0,00035003662109375;0,34173583984375;6;6513;0,0281889382749796;-0,0316347014158964
0,28778076171875;1734,66975062038;-0,00050628662109375;0,288055419921875;6;6535;0,0281889382749796;-0,0316347014158964
0,23406982421875;1737,3552906136;-0,000648193359375;0,2342529296875;6;6557;0,0281889382749796;-0,0316347014158964
0,18035888671875;1740,04083060682;-0,0008154296875;0,180633544921875;6;6579;0,0281889382749796;-0,0316347014158964
0,12664794921875;1742,72637060004;-0,0007415771484375;0,126983642578125;6;6601;0,0281889382749796;-0,0316347014158964
0,07293701171875;1745,41191059326;-0,0007440185546875;0,073577880859375;6;6623;0,0281889382749796;-0,0316347014158964
0,01922607421875;1748,09745058648;-0,000760498046875;0,019195556640625;6;6645;0,0281889382749796;-0,0316347014158964
-0,03448486328125;1750,7829905797;-0,0007879638671875;-0,0337066650390625;6;6667;0,0281889382749796;-0,0316347014158964
-0,08819580078125;1753,46853057292;-0,00080718994140625;-0,0875244140625;6;6689;0,0281889382749796;-0,0316347014158964
-0,14190673828125;1756,15407056614;-0,00082000732421875;-0,1416015625;6;6711;0,0281889382749796;-0,0316347014158964
-0,15655517578125;1758,83961055936;-0,00076751708984375;-0,155853271484375;6;6733;0,0281889382749796;-0,0316347014158964
-0,10284423828125;1761,52515055258;-0,000643310546875;-0,10211181640625;6;6755;0,0281889382749796;-0,0316347014158964
-0,04913330078125;1764,2106905458;-0,00053680419921875;-0,0491424560546875;6;6777;0,0281889382749796;-0,0316347014158964
0,00457763671875;1766,89623053902;-0,00043792724609375;0,00479736328124999;6;6799;0,0281889382749796;-0,0316347014158964
0,05828857421875;1769,58177053224;-0,000341278076171875;0,058929443359375;6;6821;0,0281889382749796;-0,0316347014158964
0,11199951171875;1772,26731052546;-0,000241607666015625;0,1126708984375;6;6843;0,0281889382749796;-0,0316347014158964
0,16571044921875;1774,95285051867;-0,00013177490234375;0,165130615234375;6;6865;0,0281889382749796;-0,0316347014158964
0,21942138671875;1777,63839051189;5,13916015625E-06;0,21875;6;6887;0,0281889382749796;-0,0316347014158964
0,27313232421875;1780,32393050511;0,00027386474609375;0,27178955078125;7;6909;0,0255501255393028;-0,0276088751852512
0,32684326171875;1783,00947049833;0,000335174560546875;0,3270263671875;7;6931;0,0255501255393028;-0,0276088751852512
0,38055419921875;1785,69501049155;0,0003128662109375;0,379730224609375;7;6953;0,0255501255393028;-0,0276088751852512
0,43426513671875;1788,38055048477;0,000303985595703125;0,433502197265625;7;6975;0,0255501255393028;-0,0276088751852512
0,48797607421875;1791,06609047799;0,0002940673828125;0,487762451171875;7;6997;0,0255501255393028;-0,0276088751852512
0,54168701171875;1793,75163047121;0,0002847900390625;0,5416259765625;7;7019;0,0255501255393028;-0,0276088751852512
0,59539794921875;1796,43717046443;0,000276611328125;0,594573974609375;7;7041;0,0255501255393028;-0,0276088751852512
0,64910888671875;1799,12271045765;0,000271087646484375;0,648406982421875;7;7063;0,0255501255393028;-0,0276088751852512
0,70281982421875;1801,80825045087;0,000276336669921875;0,7017822265625;7;7085;0,0255501255393028;-0,0276088751852512
0,75653076171875;1804,49379044409;0,000321136474609375;0,755615234375;7;7107;0,0255501255393028;-0,0276088751852512
0,81024169921875;1807,17933043731;0,0003575439453125;0,810546875;7;7129;0,0255501255393028;-0,0276088751852512
0,86395263671875;1809,86487043053;0,0003607177734375;0,863037109375;7;7151;0,0255501255393028;-0,0276088751852512
0,91766357421875;1812,55041042375;0,000417694091796875;0,916748046875;7;7173;0,0255501255393028;-0,0276088751852512
0,97137451171875;1815,23595041697;0,0005389404296875;0,9710693359375;7;7195;0,0255501255393028;-0,0276088751852512
1,02508544921875;1817,92149041019;0,000667724609375;1,02386474609375;7;7217;0,0255501255393028;-0,0276088751852512
1,07879638671875;1820,60703040341;0,00076171875;1,07757568359375;7;7239;0,0255501255393028;-0,0276088751852512
1,13250732421875;1823,29257039663;0,00081268310546875;1,13128662109375;7;7261;0,0255501255393028;-0,0276088751852512
1,18621826171875;1825,97811038985;0,00083221435546875;1,18621826171875;7;7283;0,0255501255393028;-0,0276088751852512
1,21551513671875;1828,66365038307;0,0007391357421875;1,214599609375;7;7305;0,0255501255393028;-0,0276088751852512
1,16180419921875;1831,34919037629;0,00049774169921875;1,160888671875;7;7327;0,0255501255393028;-0,0276088751852512
1,10809326171875;1834,03473036951;0,000327667236328125;1,10748291015625;7;7349;0,0255501255393028;-0,0276088751852512
1,05438232421875;1836,72027036273;0,0001854248046875;1,05438232421875;7;7371;0,0255501255393028;-0,0276088751852512
1,00067138671875;1839,40581035595;4,974365234375E-05;0,99945068359375;7;7393;0,0255501255393028;-0,0276088751852512
0,94696044921875;1842,09135034917;-9,0484619140625E-05;0,946044921875;7;7415;0,0255501255393028;-0,0276088751852512
0,89324951171875;1844,77689034239;-0,0002279052734375;0,89263916015625;7;7437;0,0255501255393028;-0,0276088751852512
0,83953857421875;1847,46243033561;-0,000270355224609375;0,8392333984375;7;7459;0,0255501255393028;-0,0276088751852512
0,78582763671875;1850,14797032883;-0,000215240478515625;0,7855224609375;7;7481;0,0255501255393028;-0,0276088751852512
0,73211669921875;1852,83351032205;-0,00015240478515625;0,73223876953125;7;7503;0,0255501255393028;-0,0276088751852512
0,67840576171875;1855,51905031526;-9,4635009765625E-05;0,6785888671875;7;7525;0,0255501255393028;-0,0276088751852512
0,62469482421875;1858,20459030848;-6,1370849609375E-05;0,624481201171875;7;7547;0,0255501255393028;-0,0276088751852512
0,57098388671875;1860,8901303017;-4,7760009765625E-05;0,5709228515625;7;7569;0,0255501255393028;-0,0276088751852512
0,51727294921875;1863,57567029492;-4,60205078125E-05;0,517547607421875;7;7591;0,0255501255393028;-0,0276088751852512
0,46356201171875;1866,26121028814;-6,134033203125E-05;0,462890625;7;7613;0,0255501255393028;-0,0276088751852512
0,40985107421875;1868,94675028136;-0,0001143798828125;0,410369873046875;7;7635;0,0255501255393028;-0,0276088751852512
0,35614013671875;1871,63229027458;-0,000217193603515625;0,356536865234375;7;7657;0,0255501255393028;-0,0276088751852512
0,30242919921875;1874,3178302678;-0,000342529296875;0,301910400390625;7;7679;0,0255501255393028;-0,0276088751852512
0,24871826171875;1877,00337026102;-0,000472320556640625;0,24822998046875;7;7701;0,0255501255393028;-0,0276088751852512
0,19500732421875;1879,68891025424;-0,00070404052734375;0,194854736328125;7;7723;0,0255501255393028;-0,0276088751852512
0,14129638671875;1882,37445024746;-0,00064361572265625;0,1409912109375;7;7745;0,0255501255393028;-0,0276088751852512
0,08758544921875;1885,05999024068;-0,0006494140625;0,08837890625;7;7767;0,0255501255393028;-0,0276088751852512
0,03387451171875;1887,7455302339;-0,0006671142578125;0,03472900390625;7;7789;0,0255501255393028;-0,0276088751852512
-0,01983642578125;1890,43107022712;-0,0007000732421875;-0,0193939208984375;7;7811;0,0255501255393028;-0,0276088751852512
-0,07354736328125;1893,11661022034;-0,0007281494140625;-0,073272705078125;7;7833;0,0255501255393028;-0,0276088751852512
-0,12725830078125;1895,80215021356;-0,00074737548828125;-0,127044677734375;7;7855;0,0255501255393028;-0,0276088751852512
-0,17120361328125;1898,48769020678;-0,00074432373046875;-0,170196533203125;7;7877;0,0255501255393028;-0,0276088751852512
-0,11749267578125;1901,1732302;-0,00061676025390625;-0,117034912109375;7;7899;0,0255501255393028;-0,0276088751852512
-0,06378173828125;1903,85877019322;-0,00051239013671875;-0,064056396484375;7;7921;0,0255501255393028;-0,0276088751852512
-0,01007080078125;1906,54431018644;-0,000417327880859375;-0,0091278076171875;7;7943;0,0255501255393028;-0,0276088751852512
0,04364013671875;1909,22985017966;-0,000326446533203125;0,0441680908203125;7;7965;0,0255501255393028;-0,0276088751852512
0,09735107421875;1911,91539017288;-0,000235076904296875;0,097564697265625;7;7987;0,0255501255393028;-0,0276088751852512
0,15106201171875;1914,6009301661;-0,000138641357421875;0,151702880859375;7;8009;0,0255501255393028;-0,0276088751852512
0,20477294921875;1917,28647015932;-2,63519287109375E-05;0,204833984375;7;8031;0,0255501255393028;-0,0276088751852512
0,25848388671875;1919,97201015254;0,000167510986328125;0,258514404296875;8;8053;0,0241653323173523;-0,0249507743865252
0,31219482421875;1922,65755014576;0,0003165283203125;0,311676025390625;8;8075;0,0241653323173523;-0,0249507743865252
0,36590576171875;1925,34309013898;0,00029132080078125;0,366180419921875;8;8097;0,0241653323173523;-0,0249507743865252
0,41961669921875;1928,0286301322;0,00028271484375;0,41912841796875;8;8119;0,0241653323173523;-0,0249507743865252
0,47332763671875;1930,71417012542;0,00027789306640625;0,473297119140625;8;8141;0,0241653323173523;-0,0249507743865252
0,52703857421875;1933,39971011864;0,000271942138671875;0,526092529296875;8;8163;0,0241653323173523;-0,0249507743865252
0,58074951171875;1936,08525011185;0,000266387939453125;0,580352783203125;8;8185;0,0241653323173523;-0,0249507743865252
0,63446044921875;1938,77079010507;0,000261810302734375;0,63348388671875;8;8207;0,0241653323173523;-0,0249507743865252
0,68817138671875;1941,45633009829;0,000262939453125;0,687408447265625;8;8229;0,0241653323173523;-0,0249507743865252
0,74188232421875;1944,14187009151;0,000290802001953125;0,7408447265625;8;8251;0,0241653323173523;-0,0249507743865252
0,79559326171875;1946,82741008473;0,000336090087890625;0,79559326171875;8;8273;0,0241653323173523;-0,0249507743865252
0,84930419921875;1949,51295007795;0,000339996337890625;0,8489990234375;8;8295;0,0241653323173523;-0,0249507743865252
0,90301513671875;1952,19849007117;0,000372283935546875;0,9033203125;8;8317;0,0241653323173523;-0,0249507743865252
0,95672607421875;1954,88403006439;0,00046710205078125;0,95611572265625;8;8339;0,0241653323173523;-0,0249507743865252
1,01043701171875;1957,56957005761;0,00058685302734375;1,01043701171875;8;8361;0,0241653323173523;-0,0249507743865252
1,06414794921875;1960,25511005083;0,00068695068359375;1,0638427734375;8;8383;0,0241653323173523;-0,0249507743865252
1,11785888671875;1962,94065004405;0,00075103759765625;1,11785888671875;8;8405;0,0241653323173523;-0,0249507743865252
1,17156982421875;1965,62619003727;0,00078155517578125;1,171875;8;8427;0,0241653323173523;-0,0249507743865252
1,22528076171875;1968,31173003049;0,0007928466796875;1,224365234375;8;8449;0,0241653323173523;-0,0249507743865252
1,17645263671875;1970,99727002371;0,00053375244140625;1,1767578125;8;8471;0,0241653323173523;-0,0249507743865252
1,12274169921875;1973,68281001693;0,00036395263671875;1,12274169921875;8;8493;0,0241653323173523;-0,0249507743865252
1,06903076171875;1976,36835001015;0,000225006103515625;1,068115234375;8;8515;0,0241653323173523;-0,0249507743865252
1,01531982421875;1979,05389000337;9,6649169921875E-05;1,015625;8;8537;0,0241653323173523;-0,0249507743865252
0,96160888671875;1981,73942999659;-3,404541015625E-05;0,96099853515625;8;8559;0,0241653323173523;-0,0249507743865252
0,90789794921875;1984,42496998981;-0,000169403076171875;0,90728759765625;8;8581;0,0241653323173523;-0,0249507743865252
0,85418701171875;1987,11050998303;-0,00025323486328125;0,85357666015625;8;8603;0,0241653323173523;-0,0249507743865252
0,80047607421875;1989,79604997625;-0,000220306396484375;0,8001708984375;8;8625;0,0241653323173523;-0,0249507743865252
0,74676513671875;1992,48158996947;-0,000158447265625;0,746124267578125;8;8647;0,0241653323173523;-0,0249507743865252
0,69305419921875;1995,16712996269;-9,9822998046875E-05;0,69317626953125;8;8669;0,0241653323173523;-0,0249507743865252
0,63934326171875;1997,85266995591;-6,0577392578125E-05;0,63934326171875;8;8691;0,0241653323173523;-0,0249507743865252
0,58563232421875;2000,53820994913;-4,3792724609375E-05;0,5849609375;8;8713;0,0241653323173523;-0,0249507743865252
0,53192138671875;2003,22374994235;-3,92059326171875E-05;0,53143310546875;8;8735;0,0241653323173523;-0,0249507743865252
0,47821044921875;2005,90928993557;-4,8004150390625E-05;0,478057861328125;8;8757;0,0241653323173523;-0,0249507743865252
0,42449951171875;2008,59482992879;-8,3740234375E-05;0,423980712890625;8;8779;0,0241653323173523;-0,0249507743865252
0,37078857421875;2011,28036992201;-0,000154296875;0,370941162109375;8;8801;0,0241653323173523;-0,0249507743865252
0,31707763671875;2013,96590991523;-0,00024713134765625;0,316741943359375;8;8823;0,0241653323173523;-0,0249507743865252
0,26336669921875;2016,65144990844;-0,000349334716796875;0,263885498046875;8;8845;0,0241653323173523;-0,0249507743865252
0,20965576171875;2019,33698990166;-0,00063385009765625;0,210205078125;8;8867;0,0241653323173523;-0,0249507743865252
0,15594482421875;2022,02252989488;-0,0005718994140625;0,155426025390625;8;8889;0,0241653323173523;-0,0249507743865252
0,10223388671875;2024,7080698881;-0,0005743408203125;0,102081298828125;8;8911;0,0241653323173523;-0,0249507743865252
0,04852294921875;2027,39360988132;-0,0005975341796875;0,0489654541015625;8;8933;0,0241653323173523;-0,0249507743865252
-0,00518798828125;2030,07914987454;-0,0006329345703125;-0,004473876953125;8;8955;0,0241653323173523;-0,0249507743865252
-0,05889892578125;2032,76468986776;-0,00066802978515625;-0,059051513671875;8;8977;0,0241653323173523;-0,0249507743865252
-0,11260986328125;2035,45022986098;-0,00069366455078125;-0,11248779296875;8;8999;0,0241653323173523;-0,0249507743865252
-0,16632080078125;2038,1357698542;-0,00071380615234375;-0,16546630859375;8;9021;0,0241653323173523;-0,0249507743865252
-0,13214111328125;2040,82130984742;-0,0006097412109375;-0,131561279296875;8;9043;0,0241653323173523;-0,0249507743865252
-0,07843017578125;2043,50684984064;-0,00050567626953125;-0,078521728515625;8;9065;0,0241653323173523;-0,0249507743865252
-0,02471923828125;2046,19238983386;-0,000412628173828125;-0,023858642578125;8;9087;0,0241653323173523;-0,0249507743865252
0,02899169921875;2048,87792982708;-0,000324859619140625;0,0296630859375;8;9109;0,0241653323173523;-0,0249507743865252
0,08270263671875;2051,5634698203;-0,000238372802734375;0,0823974609375;8;9131;0,0241653323173523;-0,0249507743865252
0,13641357421875;2054,24900981352;-0,000149566650390625;0,13671875;8;9153;0,0241653323173523;-0,0249507743865252
0,19012451171875;2056,93454980674;-5,1239013671875E-05;0,18988037109375;8;9175;0,0241653323173523;-0,0249507743865252
0,24383544921875;2059,62008979996;8,36181640625E-05;0,243072509765625;8;9197;0,0241653323173523;-0,0249507743865252
0,29754638671875;2062,30562979318;0,000298675537109375;0,297210693359375;9;9219;0,00989346951246262;0
0,35125732421875;2064,9911697864;0,000281646728515625;0,3507080078125;9;9241;0,00989346951246262;0
0,40496826171875;2067,67670977962;0,0002679443359375;0,404541015625;9;9263;0,00989346951246262;0
0,45867919921875;2070,36224977284;0,000265960693359375;0,458770751953125;9;9285;0,00989346951246262;0
0,51239013671875;2073,04778976606;0,00026239013671875;0,51226806640625;9;9307;0,00989346951246262;0
0,56610107421875;2075,73332975928;0,000258453369140625;0,56610107421875;9;9329;0,00989346951246262;0
0,61981201171875;2078,4188697525;0,00025469970703125;0,618896484375;9;9351;0,00989346951246262;0
0,67352294921875;2081,10440974572;0,000254974365234375;0,67315673828125;9;9373;0,00989346951246262;0
0,72723388671875;2083,78994973894;0,000269927978515625;0,726165771484375;9;9395;0,00989346951246262;0
0,78094482421875;2086,47548973216;0,000311309814453125;0,78033447265625;9;9417;0,00989346951246262;0
0,83465576171875;2089,16102972538;0,00032659912109375;0,8343505859375;9;9439;0,00989346951246262;0
0,88836669921875;2091,8465697186;0,00034271240234375;0,887451171875;9;9461;0,00989346951246262;0
0,94207763671875;2094,53210971181;0,000413055419921875;0,94207763671875;9;9483;0,00989346951246262;0
0,94696044921875;2094,7762497112;0,00042193603515625;0,94635009765625;9;9485;0,00989346951246262;0