File: Edgar/20230626/20230626/electrodeposition_prussian_blue/voltametry_sample_D/OCP_1
Time (s)	WE(1).Potential (V)
4.60529	0.433685
4.70529	0.433777
4.80529	0.433868
4.90529	0.43396
5.00529	0.434052
5.10529	0.434143
5.20529	0.434235
5.30529	0.434326
5.40529	0.434418
5.50529	0.434509
5.60529	0.434601
5.70529	0.434692
5.80529	0.434784
5.90529	0.434875
6.00529	0.434967
6.10529	0.435089
6.20529	0.435181
6.30529	0.435272
6.40529	0.435364
6.50529	0.435455
6.60529	0.435547
6.70529	0.435638
6.80529	0.43573
6.90529	0.435822
7.00529	0.435913
7.10529	0.436035
7.20529	0.436127
7.30529	0.436218
7.40529	0.43631
7.50529	0.436401
7.60529	0.436493
7.70529	0.436584
7.80529	0.436676
7.90529	0.436768
8.00529	0.43689
8.10529	0.436981
8.20529	0.437073
8.30529	0.437164
8.40529	0.437256
8.50529	0.437347
8.60529	0.437469
8.70529	0.437561
8.80529	0.437653
8.90529	0.437744
9.00529	0.437836
9.10529	0.437927
9.20529	0.438049
9.30529	0.438141
9.40529	0.438232
9.50529	0.438324
9.60529	0.438416
9.70529	0.438507
9.80529	0.438629
9.90529	0.438721
10.0053	0.438812
10.1053	0.438904
10.2053	0.438995
10.3053	0.439117
10.4053	0.439209
10.5053	0.439301
10.6053	0.439392
10.7053	0.439484
10.8053	0.439606
10.9053	0.439697
11.0053	0.439789
11.1053	0.43988
11.2053	0.439972
11.3053	0.440094
11.4053	0.440186
11.5053	0.440277
11.6053	0.440369
11.7053	0.44046
11.8053	0.440582
11.9053	0.440674
12.0053	0.440765
12.1053	0.440857
12.2053	0.440979
12.3053	0.441071
12.4053	0.441162
12.5053	0.441254
12.6053	0.441345
12.7053	0.441467
12.8053	0.441559
12.9053	0.44165
13.0053	0.441742
13.1053	0.441833
13.2053	0.441956
13.3053	0.442047
13.4053	0.442139
13.5053	0.44223
13.6053	0.442322
13.7053	0.442444
13.8053	0.442535
13.9053	0.442627
14.0053	0.442719
14.1053	0.44281
14.2053	0.442932
14.3053	0.443024
14.4053	0.443115
14.5053	0.443207
14.6053	0.443298
14.7053	0.44342
14.8053	0.443512
14.9053	0.443604
15.0053	0.443695
15.1053	0.443787
15.2053	0.443909
15.3053	0.444
15.4053	0.444092
15.5053	0.444183
15.6053	0.444275
15.7053	0.444397
15.8053	0.444489
15.9053	0.44458
16.0053	0.444672
16.1053	0.444763
16.2053	0.444855
16.3053	0.444946
16.4053	0.445068
16.5053	0.44516
16.6053	0.445251
16.7053	0.445343
16.8053	0.445435
16.9053	0.445526
17.0053	0.445618
17.1053	0.445709
17.2053	0.445831
17.3053	0.445923
17.4053	0.446014
17.5053	0.446106
17.6053	0.446198
17.7053	0.446289
17.8053	0.446381
17.9053	0.446472
18.0053	0.446594
18.1053	0.446686
18.2053	0.446777
18.3053	0.446869
18.4053	0.44696
18.5053	0.447052
18.6053	0.447144
18.7053	0.447235
18.8053	0.447327
18.9053	0.447418
19.0053	0.44754
19.1053	0.447632
19.2053	0.447723
19.3053	0.447815
19.4053	0.447906
19.5053	0.447998
19.6053	0.44809
19.7053	0.448181
19.8053	0.448273
19.9053	0.448364
20.0053	0.448456
20.1053	0.448547
20.2053	0.448639
20.3053	0.44873
20.4053	0.448822
20.5053	0.448914
20.6053	0.449005
20.7053	0.449097
20.8053	0.449188
20.9053	0.44928
21.0053	0.449371
21.1053	0.449463
21.2053	0.449554
21.3053	0.449646
21.4053	0.449738
21.5053	0.449829
21.6053	0.449921
21.7053	0.450012
21.8053	0.450104
21.9053	0.450195
22.0053	0.450287
22.1053	0.450378
22.2053	0.45047
22.3053	0.450562
22.4053	0.450653
22.5053	0.450745
22.6053	0.450836
22.7053	0.450928
22.8053	0.451019
22.9053	0.451111
23.0053	0.451172
23.1053	0.451263
23.2053	0.451355
23.3053	0.451447
23.4053	0.451538
23.5053	0.45163
23.6053	0.451721
23.7053	0.451813
23.8053	0.451904
23.9053	0.451996
24.0053	0.452057
24.1053	0.452148
24.2053	0.45224
24.3053	0.452332
24.4053	0.452423
24.5053	0.452515
24.6053	0.452576
24.7053	0.452667
24.8053	0.452759
24.9053	0.45285
25.0053	0.452942
25.1053	0.453003
25.2053	0.453094
25.3053	0.453186
25.4053	0.453278
25.5053	0.453369
25.6053	0.45343
25.7053	0.453522
25.8053	0.453613
25.9053	0.453705
26.0053	0.453796
26.1053	0.453857
26.2053	0.453949
26.3053	0.454041
26.4053	0.454102
26.5053	0.454193
26.6053	0.454285
26.7053	0.454376
26.8053	0.454437
26.9053	0.454529
27.0053	0.45462
27.1053	0.454712
27.2053	0.454773
27.3053	0.454865
27.4053	0.454956
27.5053	0.455017
27.6053	0.455109
27.7053	0.4552
27.8053	0.455261
27.9053	0.455353
28.0053	0.455444
28.1053	0.455505
28.2053	0.455597
28.3053	0.455658
28.4053	0.45575
28.5053	0.455841
28.6053	0.455902
28.7053	0.455994
28.8053	0.456085
28.9053	0.456146
29.0053	0.456238
29.1053	0.456299
29.2053	0.45639
29.3053	0.456482
29.4053	0.456543
29.5053	0.456635
29.6053	0.456696
29.7053	0.456787
29.8053	0.456848
29.9053	0.45694
30.0053	0.457031
30.1053	0.457092
30.2053	0.457184
30.3053	0.457245
30.4053	0.457336
30.5053	0.457397
30.6053	0.457489
30.7053	0.45755
30.8053	0.457642
30.9053	0.457703
31.0053	0.457794
31.1053	0.457855
31.2053	0.457947
31.3053	0.458008
31.4053	0.458099
31.5053	0.45816
31.6053	0.458221
31.7053	0.458313
31.8053	0.458374
31.9053	0.458466
32.0053	0.458527
32.1053	0.458618
32.2053	0.458679
32.3053	0.458771
32.4053	0.458832
32.5053	0.458893
32.6053	0.458984
32.7053	0.459045
32.8053	0.459137
32.9053	0.459198
33.0053	0.459259
33.1053	0.459351
33.2053	0.459412
33.3053	0.459473
33.4053	0.459564
33.5053	0.459625
33.6053	0.459717
33.7053	0.459778
33.8053	0.459839
33.9053	0.45993
34.0053	0.459991
34.1053	0.460052
34.2053	0.460144
34.3053	0.460205
34.4053	0.460266
34.5053	0.460358
34.6053	0.460419
34.7053	0.46048
34.8053	0.460541
34.9053	0.460632
35.0053	0.460693
35.1053	0.460754
35.2053	0.460815
35.3053	0.460907
35.4053	0.460968
35.5053	0.461029
35.6053	0.46109
35.7053	0.461182
35.8053	0.461243
35.9053	0.461304
36.0053	0.461365
36.1053	0.461456
36.2053	0.461517
36.3053	0.461578
36.4053	0.461639
36.5053	0.4617
36.6053	0.461761
36.7053	0.461853
36.8053	0.461914
36.9053	0.461975
37.0053	0.462036
37.1053	0.462097
37.2053	0.462189
37.3053	0.46225
37.4053	0.462311
37.5053	0.462372
37.6053	0.462433
37.7053	0.462494
37.8053	0.462555
37.9053	0.462646
38.0053	0.462708
38.1053	0.462769
38.2053	0.46283
38.3053	0.462891
38.4053	0.462952
38.5053	0.463013
38.6053	0.463074
38.7053	0.463135
38.8053	0.463196
38.9053	0.463287
39.0053	0.463348
39.1053	0.463409
39.2053	0.46347
39.3053	0.463531
39.4053	0.463593
39.5053	0.463654
39.6053	0.463715
39.7053	0.463776
39.8053	0.463837
39.9053	0.463898
40.0053	0.463959
40.1053	0.46402
40.2053	0.464081
40.3053	0.464142
40.4053	0.464203
40.5053	0.464264
40.6053	0.464325
40.7053	0.464386
40.8053	0.464447
40.9053	0.464508
41.0053	0.464569
41.1053	0.46463
41.2053	0.464691
41.3053	0.464752
41.4053	0.464813
41.5053	0.464874
41.6053	0.464935
41.7053	0.464996
41.8053	0.465057
41.9053	0.465118
42.0053	0.465179
42.1053	0.46524
42.2053	0.465302
42.3053	0.465332
42.4053	0.465393
42.5053	0.465454
42.6053	0.465515
42.7053	0.465576
42.8053	0.465637
42.9053	0.465698
43.0053	0.465759
43.1053	0.46582
43.2053	0.465851
43.3053	0.465912
43.4053	0.465973
43.5053	0.466034
43.6053	0.466095
43.7053	0.466156
43.8053	0.466217
43.9053	0.466248
44.0053	0.466309
44.1053	0.46637
44.2053	0.466431
44.3053	0.466492
44.4053	0.466553
44.5053	0.466583
44.6053	0.466644
44.7053	0.466705
44.8053	0.466766
44.9053	0.466827
45.0053	0.466858
45.1053	0.466919
45.2053	0.46698
45.3053	0.467041
45.4053	0.467072
45.5053	0.467133
45.6053	0.467194
45.7053	0.467255
45.8053	0.467316
45.9053	0.467346
46.0053	0.467407
46.1053	0.467468
46.2053	0.467529
46.3053	0.46756
46.4053	0.467621
46.5053	0.467682
46.6053	0.467712
46.7053	0.467773
46.8053	0.467834
46.9053	0.467896
47.0053	0.467926
47.1053	0.467987
47.2053	0.468048
47.3053	0.468079
47.4053	0.46814
47.5053	0.468201
47.6053	0.468231
47.7053	0.468292
47.8053	0.468353
47.9053	0.468414
48.0053	0.468445
48.1053	0.468506
48.2053	0.468536
48.3053	0.468597
48.4053	0.468658
48.5053	0.468689
48.6053	0.46875
48.7053	0.468811
48.8053	0.468842
48.9053	0.468903
49.0053	0.468933
49.1053	0.468994
49.2053	0.469055
49.3053	0.469086
49.4053	0.469147
49.5053	0.469177
49.6053	0.469238
49.7053	0.469299
49.8053	0.46933
49.9053	0.469391
50.0053	0.469421
50.1053	0.469482
50.2053	0.469513
50.3053	0.469574
50.4053	0.469635
50.5053	0.469666
50.6053	0.469727
50.7053	0.469757
50.8053	0.469818
50.9053	0.469849
51.0053	0.46991
51.1053	0.46994
51.2053	0.470001
51.3053	0.470032
51.4053	0.470093
51.5053	0.470154
51.6053	0.470184
51.7053	0.470215
51.8053	0.470276
51.9053	0.470306
52.0053	0.470367
52.1053	0.470428
52.2053	0.470459
52.3053	0.47052
52.4053	0.470551
52.5053	0.470581
52.6053	0.470642
52.7053	0.470673
52.8053	0.470734
52.9053	0.470764
53.0053	0.470825
53.1053	0.470856
53.2053	0.470917
53.3053	0.470947
53.4053	0.471008
53.5053	0.471039
53.6053	0.471069
53.7053	0.47113
53.8053	0.471161
53.9053	0.471222
54.0053	0.471252
54.1053	0.471313
54.2053	0.471344
54.3053	0.471375
54.4053	0.471436
54.5053	0.471466
54.6053	0.471527
54.7053	0.471558
54.8053	0.471588
54.9053	0.471649
55.0053	0.47168
55.1053	0.471741
55.2053	0.471771
55.3053	0.471802
55.4053	0.471863
55.5053	0.471893
55.6053	0.471954
55.7053	0.471985
55.8053	0.472015
55.9053	0.472076
56.0053	0.472107
56.1053	0.472137
56.2053	0.472198
56.3053	0.472229
56.4053	0.47226
56.5053	0.472321
56.6053	0.472351
56.7053	0.472412
56.8053	0.472443
56.9053	0.472473
57.0053	0.472504
57.1053	0.472565
57.2053	0.472595
57.3053	0.472626
57.4053	0.472687
57.5053	0.472717
57.6053	0.472748
57.7053	0.472809
57.8053	0.472839
57.9053	0.47287
58.0053	0.472931
58.1053	0.472961
58.2053	0.472992
58.3053	0.473022
58.4053	0.473083
58.5053	0.473114
58.6053	0.473145
58.7053	0.473206
58.8053	0.473236
58.9053	0.473267
59.0053	0.473297
59.1053	0.473358
59.2053	0.473389
59.3053	0.473419
59.4053	0.47345
59.5053	0.473511
59.6053	0.473541
59.7053	0.473572
59.8053	0.473602
59.9053	0.473663
60.0053	0.473694
60.1053	0.473724
60.2053	0.473755
60.3053	0.473816
60.4053	0.473846
60.5053	0.473877
60.6053	0.473907
60.7053	0.473938
60.8053	0.473999
60.9053	0.47403
61.0053	0.47406
61.1053	0.474091
61.2053	0.474121
61.3053	0.474182
61.4053	0.474213
61.5053	0.474243
61.6053	0.474274
61.7053	0.474304
61.8053	0.474365
61.9053	0.474396
62.0053	0.474426
62.1053	0.474457
62.2053	0.474487
62.3053	0.474518
62.4053	0.474579
62.5053	0.474609
62.6053	0.47464
62.7053	0.47467
62.8053	0.474701
62.9053	0.474731
63.0053	0.474792
63.1053	0.474823
63.2053	0.474854
63.3053	0.474884
63.4053	0.474915
63.5053	0.474945
63.6053	0.474976
63.7053	0.475037
63.8053	0.475067
63.9053	0.475098
64.0053	0.475128
64.1053	0.475159
64.2053	0.475189
64.3053	0.47522
64.4053	0.47525
64.5053	0.475311