File: Edgar/20230626/20230626/electrodeposition_prussian_blue/voltametry_sample_D/OCP_3
Time (s)	WE(1).Potential (V)
818.931	0.313873
819.031	0.313538
819.131	0.31311
819.231	0.312653
819.331	0.312164
819.431	0.311676
819.531	0.311188
819.631	0.310699
819.731	0.310181
819.831	0.309692
819.931	0.309204
820.031	0.308716
820.131	0.308197
820.231	0.307739
820.331	0.307251
820.431	0.306763
820.531	0.306305
820.631	0.305817
820.731	0.305359
820.831	0.304901
820.931	0.304474
821.031	0.304016
821.131	0.303589
821.231	0.303131
821.331	0.302704
821.431	0.302277
821.531	0.30188
821.631	0.301453
821.731	0.301056
821.831	0.300629
821.931	0.300232
822.031	0.299835
822.131	0.299469
822.231	0.299072
822.331	0.298706
822.431	0.298309
822.531	0.297943
822.631	0.297577
822.731	0.297211
822.831	0.296875
822.931	0.296509
823.031	0.296173
823.131	0.295837
823.231	0.295502
823.331	0.295166
823.431	0.29483
823.531	0.294495
823.631	0.294189
823.731	0.293854
823.831	0.293549
823.931	0.293243
824.031	0.292908
824.131	0.292633
824.231	0.292328
824.331	0.292023
824.431	0.291718
824.531	0.291443
824.631	0.291138
824.731	0.290863
824.831	0.290588
824.931	0.290314
825.031	0.290039
825.131	0.289764
825.231	0.28952
825.331	0.289246
825.431	0.288971
825.531	0.288727
825.631	0.288483
825.731	0.288208
825.831	0.287964
825.931	0.28772
826.031	0.287476
826.131	0.287231
826.231	0.286987
826.331	0.286743
826.431	0.28653
826.531	0.286285
826.631	0.286072
826.731	0.285828
826.831	0.285614
826.931	0.28537
827.031	0.285156
827.131	0.284943
827.231	0.284729
827.331	0.284515
827.431	0.284302
827.531	0.284088
827.631	0.283875
827.731	0.283691
827.831	0.283478
827.931	0.283295
828.031	0.283081
828.131	0.282898
828.231	0.282684
828.331	0.282501
828.431	0.282318
828.531	0.282104
828.631	0.281921
828.731	0.281738
828.831	0.281555
828.931	0.281372
829.031	0.281189
829.131	0.281006
829.231	0.280823
829.331	0.28067
829.431	0.280487
829.531	0.280304
829.631	0.280151
829.731	0.279968
829.831	0.279816
829.931	0.279633
830.031	0.27948
830.131	0.279297
830.231	0.279144
830.331	0.278992
830.431	0.278839
830.531	0.278656
830.631	0.278503
830.731	0.278351
830.831	0.278198
830.931	0.278046
831.031	0.277893
831.131	0.27774
831.231	0.277588
831.331	0.277435
831.431	0.277313
831.531	0.277161
831.631	0.277008
831.731	0.276855
831.831	0.276733
831.931	0.276581
832.031	0.276459
832.131	0.276306
832.231	0.276184
832.331	0.276031
832.431	0.275909
832.531	0.275757
832.631	0.275635
832.731	0.275513
832.831	0.27536
832.931	0.275238
833.031	0.275116
833.131	0.274994
833.231	0.274872
833.331	0.274719
833.431	0.274597
833.531	0.274475
833.631	0.274353
833.731	0.274231
833.831	0.274109
833.931	0.273987
834.031	0.273895
834.131	0.273773
834.231	0.273651
834.331	0.273529
834.431	0.273407
834.531	0.273315
834.631	0.273193
834.731	0.273071
834.831	0.27298
834.931	0.272858
835.031	0.272736
835.131	0.272644
835.231	0.272522
835.331	0.27243
835.431	0.272308
835.531	0.272217
835.631	0.272095
835.731	0.272003
835.831	0.271881
835.931	0.27179
836.031	0.271698
836.131	0.271576
836.231	0.271484
836.331	0.271393
836.431	0.271271
836.531	0.271179
836.631	0.271088
836.731	0.270996
836.831	0.270874
836.931	0.270782
837.031	0.270691
837.131	0.270599
837.231	0.270508
837.331	0.270416
837.431	0.270325
837.531	0.270233
837.631	0.270142
837.731	0.27005
837.831	0.269958
837.931	0.269867
838.031	0.269775
838.131	0.269684
838.231	0.269592
838.331	0.269501
838.431	0.269409
838.531	0.269318
838.631	0.269226
838.731	0.269165
838.831	0.269073
838.931	0.268982
839.031	0.26889
839.131	0.268799
839.231	0.268738
839.331	0.268646
839.431	0.268555
839.531	0.268494
839.631	0.268402
839.731	0.268311
839.831	0.26825
839.931	0.268158
840.031	0.268097
840.131	0.268005
840.231	0.267914
840.331	0.267853
840.431	0.267761
840.531	0.2677
840.631	0.267609
840.731	0.267548
840.831	0.267487
840.931	0.267395
841.031	0.267334
841.131	0.267242
841.231	0.267181
841.331	0.26709
841.431	0.267029
841.531	0.266968
841.631	0.266876
841.731	0.266815
841.831	0.266754
841.931	0.266663
842.031	0.266602
842.131	0.266541
842.231	0.266479
842.331	0.266388
842.431	0.266327
842.531	0.266266
842.631	0.266205
842.731	0.266113
842.831	0.266052
842.931	0.265991
843.031	0.26593
843.131	0.265869
843.231	0.265808
843.331	0.265747
843.431	0.265656
843.531	0.265594
843.631	0.265533
843.731	0.265472
843.831	0.265411
843.931	0.26535
844.031	0.265289
844.131	0.265228
844.231	0.265167
844.331	0.265106
844.431	0.265045
844.531	0.264984
844.631	0.264923
844.731	0.264862
844.831	0.264801
844.931	0.26474
845.031	0.264679
845.131	0.264618
845.231	0.264557
845.331	0.264496
845.431	0.264465
845.531	0.264404
845.631	0.264343
845.731	0.264282
845.831	0.264221
845.931	0.26416
846.031	0.264099
846.131	0.264069
846.231	0.264008
846.331	0.263947
846.431	0.263885
846.531	0.263824
846.631	0.263794
846.731	0.263733
846.831	0.263672
846.931	0.263611
847.031	0.26358
847.131	0.263519
847.231	0.263458
847.331	0.263428
847.431	0.263367
847.531	0.263306
847.631	0.263245
847.731	0.263214
847.831	0.263153
847.931	0.263092
848.031	0.263062
848.131	0.263
848.231	0.26297
848.331	0.262909
848.431	0.262848
848.531	0.262817
848.631	0.262756
848.731	0.262695
848.831	0.262665
848.931	0.262604
849.031	0.262573
849.131	0.262512
849.231	0.262482
849.331	0.262421
849.431	0.26239
849.531	0.262329
849.631	0.262299
849.731	0.262238
849.831	0.262177
849.931	0.262146
850.031	0.262085
850.131	0.262054
850.231	0.262024
850.331	0.261963
850.431	0.261932
850.531	0.261871
850.631	0.261841
850.731	0.26178
850.831	0.261749
850.931	0.261688
851.031	0.261658
851.131	0.261627
851.231	0.261566
851.331	0.261536
851.431	0.261475
851.531	0.261444
851.631	0.261414
851.731	0.261353
851.831	0.261322
851.931	0.261261
852.031	0.26123
852.131	0.2612
852.231	0.261139
852.331	0.261108
852.431	0.261078
852.531	0.261017
852.631	0.260986
852.731	0.260956
852.831	0.260925
852.931	0.260864
853.031	0.260834
853.131	0.260803
853.231	0.260742
853.331	0.260712
853.431	0.260681
853.531	0.260651
853.631	0.26059
853.731	0.260559
853.831	0.260529
853.931	0.260498
854.031	0.260437
854.131	0.260406
854.231	0.260376
854.331	0.260345
854.431	0.260315
854.531	0.260254
854.631	0.260223
854.731	0.260193
854.831	0.260162
854.931	0.260132
855.031	0.260071
855.131	0.26004
855.231	0.26001
855.331	0.259979
855.431	0.259949
855.531	0.259918
855.631	0.259857
855.731	0.259827
855.831	0.259796
855.931	0.259766
856.031	0.259735
856.131	0.259705
856.231	0.259674
856.331	0.259644
856.431	0.259583
856.531	0.259552
856.631	0.259521
856.731	0.259491
856.831	0.25946
856.931	0.25943
857.031	0.259399
857.131	0.259369
857.231	0.259338
857.331	0.259308
857.431	0.259277
857.531	0.259247
857.631	0.259216
857.731	0.259186
857.831	0.259155
857.931	0.259125
858.031	0.259064
858.131	0.259033
858.231	0.259003
858.331	0.258972
858.431	0.258942
858.531	0.258911
858.631	0.258881
858.731	0.25885
858.831	0.25882
858.931	0.258789
859.031	0.258759
859.131	0.258728
859.231	0.258698
859.331	0.258698
859.431	0.258636
859.531	0.258636
859.631	0.258606
859.731	0.258575
859.831	0.258545
859.931	0.258514
860.031	0.258484
860.131	0.258453
860.231	0.258423
860.331	0.258392
860.431	0.258362
860.531	0.258331
860.631	0.258301
860.731	0.25827
860.831	0.25824
860.931	0.25824
861.031	0.258209
861.131	0.258179
861.231	0.258148
861.331	0.258118
861.431	0.258087
861.531	0.258057
861.631	0.258026
861.731	0.257996
861.831	0.257965
861.931	0.257965
862.031	0.257935
862.131	0.257904
862.231	0.257874
862.331	0.257843
862.431	0.2578125
862.531	0.2578125
862.631	0.257782
862.731	0.257751
862.831	0.257721
862.931	0.25769
863.031	0.25766
863.131	0.25766
863.231	0.257629
863.331	0.257599
863.431	0.257568
863.531	0.257538
863.631	0.257507
863.731	0.257507
863.831	0.257477
863.931	0.257446
864.031	0.257416
864.131	0.257385
864.231	0.257385
864.331	0.257355
864.431	0.257324
864.531	0.257294
864.631	0.257263
864.731	0.257263
864.831	0.257233
864.931	0.257202
865.031	0.257172
865.131	0.257172
865.231	0.257141
865.331	0.257111
865.431	0.25708
865.531	0.25708
865.631	0.25705
865.731	0.257019
865.831	0.256989
865.931	0.256989
866.031	0.256958
866.131	0.256927
866.231	0.256897
866.331	0.256897
866.431	0.256866
866.531	0.256836
866.631	0.256805
866.731	0.256805
866.831	0.256775
866.931	0.256744
867.031	0.256714
867.131	0.256714
867.231	0.256683
867.331	0.256653
867.431	0.256653
867.531	0.256622
867.631	0.256592
867.731	0.256592
867.831	0.256561
867.931	0.256531
868.031	0.256531
868.131	0.2565
868.231	0.25647
868.331	0.25647
868.431	0.256439
868.531	0.256409
868.631	0.256409
868.731	0.256378
868.831	0.256348
868.931	0.256348
869.031	0.256317
869.131	0.256287
869.231	0.256287
869.331	0.256256
869.431	0.256226
869.531	0.256226
869.631	0.256195
869.731	0.256165
869.831	0.256165
869.931	0.256134
870.031	0.256104
870.131	0.256104
870.231	0.256073
870.331	0.256073
870.431	0.256042
870.531	0.256012
870.631	0.256012
870.731	0.255981
870.831	0.255951
870.931	0.255951
871.031	0.25592
871.131	0.25592
871.231	0.25589
871.331	0.255859
871.431	0.255859
871.531	0.255829
871.631	0.255798
871.731	0.255798
871.831	0.255768
871.931	0.255768
872.031	0.255737
872.131	0.255737
872.231	0.255707
872.331	0.255676
872.431	0.255676
872.531	0.255646
872.631	0.255646
872.731	0.255615
872.831	0.255615
872.931	0.255585
873.031	0.255554
873.131	0.255554
873.231	0.255524
873.331	0.255524
873.431	0.255493
873.531	0.255463
873.631	0.255463
873.731	0.255432
873.831	0.255432
873.931	0.255402
874.031	0.255402
874.131	0.255371
874.231	0.255371
874.331	0.255341
874.431	0.255341
874.531	0.25531
874.631	0.25531
874.731	0.25528
874.831	0.255249
874.931	0.255249
875.031	0.255219
875.131	0.255219
875.231	0.255188
875.331	0.255188
875.431	0.255157
875.531	0.255157
875.631	0.255127
875.731	0.255127
875.831	0.255096
875.931	0.255096
876.031	0.255066
876.131	0.255066
876.231	0.255035
876.331	0.255035
876.431	0.255005
876.531	0.255005
876.631	0.254974
876.731	0.254974
876.831	0.254944
876.931	0.254944
877.031	0.254913
877.131	0.254913
877.231	0.254883
877.331	0.254883
877.431	0.254852
877.531	0.254852
877.631	0.254822
877.731	0.254822
877.831	0.254791
877.931	0.254791
878.031	0.254761
878.131	0.254761
878.231	0.25473
878.331	0.25473
878.431	0.2547
878.531	0.2547
878.631	0.2547
878.731	0.254669
878.831	0.254669
878.931	0.254639
879.031	0.254639
879.131	0.254608
879.231	0.254608
879.331	0.254578
879.431	0.254578
879.531	0.254547
879.631	0.254547
879.731	0.254517
879.831	0.254517
879.931	0.254517
880.031	0.254486
880.131	0.254486
880.231	0.254456
880.331	0.254456
880.431	0.254425
880.531	0.254425
880.631	0.254425
880.731	0.254395
880.831	0.254395
880.931	0.254364
881.031	0.254364
881.131	0.254333
881.231	0.254333
881.331	0.254303
881.431	0.254303
881.531	0.254303
881.631	0.254272
881.731	0.254272
881.831	0.254242
881.931	0.254242
882.031	0.254242
882.131	0.254211
882.231	0.254211
882.331	0.254181
882.431	0.254181
882.531	0.25415
882.631	0.25415
882.731	0.25415
882.831	0.25412
882.931	0.25412
883.031	0.254089
883.131	0.254089
883.231	0.254089
883.331	0.254059
883.431	0.254059
883.531	0.254028
883.631	0.254028
883.731	0.254028
883.831	0.253998
883.931	0.253998
884.031	0.253967
884.131	0.253967
884.231	0.253967
884.331	0.253937
884.431	0.253937
884.531	0.253906
884.631	0.253906
884.731	0.253906
884.831	0.253876
884.931	0.253876
885.031	0.253876
885.131	0.253845
885.231	0.253845
885.331	0.253815
885.431	0.253815
885.531	0.253815
885.631	0.253784
885.731	0.253784
885.831	0.253784
885.931	0.253754
886.031	0.253754
886.131	0.253754
886.231	0.253723
886.331	0.253723
886.431	0.253693
886.531	0.253693
886.631	0.253693
886.731	0.253662
886.831	0.253662
886.931	0.253662
887.031	0.253632
887.131	0.253632
887.231	0.253632
887.331	0.253601
887.431	0.253601
887.531	0.253601
887.631	0.253571
887.731	0.253571
887.831	0.253571
887.931	0.25354
888.031	0.25354
888.131	0.25351
888.231	0.25351
888.331	0.25351
888.431	0.253479
888.531	0.253479
888.631	0.253479
888.731	0.253448
888.831	0.253448
888.931	0.253448
889.031	0.253448
889.131	0.253418
889.231	0.253418
889.331	0.253387
889.431	0.253387
889.531	0.253387
889.631	0.253357
889.731	0.253357
889.831	0.253357
889.931	0.253326
890.031	0.253326
890.131	0.253326
890.231	0.253326
890.331	0.253296
890.431	0.253296
890.531	0.253296
890.631	0.253265
890.731	0.253265
890.831	0.253265
890.931	0.253235
891.031	0.253235
891.131	0.253235
891.231	0.253204
891.331	0.253204
891.431	0.253204
891.531	0.253174
891.631	0.253174
891.731	0.253174
891.831	0.253174
891.931	0.253143
892.031	0.253143
892.131	0.253143
892.231	0.253113
892.331	0.253113
892.431	0.253113
892.531	0.253113
892.631	0.253082
892.731	0.253082
892.831	0.253082
892.931	0.253052
893.031	0.253052
893.131	0.253052
893.231	0.253021
893.331	0.253021
893.431	0.253021
893.531	0.253021
893.631	0.252991
893.731	0.252991
893.831	0.252991
893.931	0.25296
894.031	0.25296
894.131	0.25296
894.231	0.25296
894.331	0.25293
894.431	0.25293
894.531	0.25293
894.631	0.252899
894.731	0.252899
894.831	0.252899
894.931	0.252899
895.031	0.252869
895.131	0.252869
895.231	0.252869
895.331	0.252869
895.431	0.252838
895.531	0.252838
895.631	0.252838
895.731	0.252838
895.831	0.252808
895.931	0.252808
896.031	0.252808
896.131	0.252777
896.231	0.252777
896.331	0.252777
896.431	0.252777
896.531	0.252747
896.631	0.252747
896.731	0.252747
896.831	0.252747
896.931	0.252716
897.031	0.252716
897.131	0.252716
897.231	0.252716
897.331	0.252686
897.431	0.252686
897.531	0.252686
897.631	0.252686
897.731	0.252655
897.831	0.252655
897.931	0.252655
898.031	0.252655
898.131	0.252625
898.231	0.252625
898.331	0.252625
898.431	0.252625
898.531	0.252594
898.631	0.252594
898.731	0.252594
898.831	0.252594
898.931	0.252563
899.031	0.252563
899.131	0.252563
899.231	0.252563
899.331	0.252563
899.431	0.252533
899.531	0.252533
899.631	0.252533
899.731	0.252502
899.831	0.252502
899.931	0.252502
900.031	0.252502
900.131	0.252502
900.231	0.252472
900.331	0.252472
900.431	0.252472
900.531	0.252472
900.631	0.252441
900.731	0.252441
900.831	0.252441
900.931	0.252441
901.031	0.252411
901.131	0.252411
901.231	0.252411
901.331	0.252411
901.431	0.252411
901.531	0.25238
901.631	0.25238
901.731	0.25238
901.831	0.25238
901.931	0.25235
902.031	0.25235
902.131	0.25235
902.231	0.25235
902.331	0.25235
902.431	0.252319
902.531	0.252319
902.631	0.252319
902.731	0.252319
902.831	0.252289
902.931	0.252289
903.031	0.252289
903.131	0.252289
903.231	0.252289
903.331	0.252258
903.431	0.252258
903.531	0.252258
903.631	0.252258
903.731	0.252258
903.831	0.252228
903.931	0.252228
904.031	0.252228
904.131	0.252228
904.231	0.252228
904.331	0.252197
904.431	0.252197
904.531	0.252197
904.631	0.252197
904.731	0.252167
904.831	0.252167
904.931	0.252167
905.031	0.252167
905.131	0.252167
905.231	0.252136
905.331	0.252136
905.431	0.252136
905.531	0.252136
905.631	0.252136
905.731	0.252136
905.831	0.252106
905.931	0.252106
906.031	0.252106
906.131	0.252106
906.231	0.252106
906.331	0.252075
906.431	0.252075
906.531	0.252075
906.631	0.252075
906.731	0.252075
906.831	0.252045
906.931	0.252045
907.031	0.252045
907.131	0.252045
907.231	0.252045
907.331	0.252045
907.431	0.252014
907.531	0.252014
907.631	0.252014
907.731	0.252014
907.831	0.252014
907.931	0.251984
908.031	0.251984
908.131	0.251984
908.231	0.251984
908.331	0.251984
908.431	0.251953
908.531	0.251953
908.631	0.251953
908.731	0.251953
908.831	0.251953
908.931	0.251953
909.031	0.251923
909.131	0.251923
909.231	0.251923
909.331	0.251923
909.431	0.251923
909.531	0.251892
909.631	0.251892
909.731	0.251892
909.831	0.251892
909.931	0.251892
910.031	0.251892
910.131	0.251862
910.231	0.251862
910.331	0.251862
910.431	0.251862
910.531	0.251862
910.631	0.251862
910.731	0.251831
910.831	0.251831
910.931	0.251831
911.031	0.251831
911.131	0.251831
911.231	0.251831
911.331	0.251801
911.431	0.251801
911.531	0.251801
911.631	0.251801
911.731	0.251801
911.831	0.251801
911.931	0.25177
912.031	0.25177
912.131	0.25177
912.231	0.25177
912.331	0.25177
912.431	0.25177
912.531	0.25174
912.631	0.25174
912.731	0.25174
912.831	0.25174
912.931	0.25174
913.031	0.25174
913.131	0.25174
913.231	0.251709
913.331	0.251709
913.431	0.251709
913.531	0.251709
913.631	0.251709
913.731	0.251709
913.831	0.251678
913.931	0.251678
914.031	0.251678
914.131	0.251678
914.231	0.251678
914.331	0.251678
914.431	0.251678
914.531	0.251648
914.631	0.251648
914.731	0.251648
914.831	0.251648
914.931	0.251648
915.031	0.251648
915.131	0.251648
915.231	0.251617
915.331	0.251617
915.431	0.251617
915.531	0.251617
915.631	0.251617
915.731	0.251617
915.831	0.251617
915.931	0.251587
916.031	0.251587
916.131	0.251587
916.231	0.251587
916.331	0.251587
916.431	0.251587
916.531	0.251587
916.631	0.251556
916.731	0.251556
916.831	0.251556
916.931	0.251556
917.031	0.251556
917.131	0.251556
917.231	0.251556
917.331	0.251526
917.431	0.251526
917.531	0.251526
917.631	0.251526
917.731	0.251526
917.831	0.251526
917.931	0.251526
918.031	0.251495
918.131	0.251495
918.231	0.251495
918.331	0.251495
918.431	0.251495
918.531	0.251495
918.631	0.251495
918.731	0.251465
918.831	0.251465
918.931	0.251465
919.031	0.251465
919.131	0.251465
919.231	0.251465
919.331	0.251465
919.431	0.251465
919.531	0.251465
919.631	0.251434
919.731	0.251434
919.831	0.251434
919.931	0.251434
920.031	0.251434
920.131	0.251434
920.231	0.251434
920.331	0.251404
920.431	0.251404
920.531	0.251404
920.631	0.251404
920.731	0.251404
920.831	0.251404
920.931	0.251404
921.031	0.251404
921.131	0.251404
921.231	0.251373
921.331	0.251373
921.431	0.251373
921.531	0.251373
921.631	0.251373
921.731	0.251373
921.831	0.251373
921.931	0.251343
922.031	0.251343
922.131	0.251343
922.231	0.251343
922.331	0.251343
922.431	0.251343
922.531	0.251343
922.631	0.251343
922.731	0.251343
922.831	0.251312
922.931	0.251312
923.031	0.251312
923.131	0.251312
923.231	0.251312
923.331	0.251312
923.431	0.251312
923.531	0.251312
923.631	0.251312
923.731	0.251312
923.831	0.251282
923.931	0.251282
924.031	0.251282
924.131	0.251282