File: Edgar/20240607/20240607/electrodeposition_pulsed_potential_20240607_C/pulses_3000_to_4000.txt
Time (s)	WE(1).Potential (V)	WE(1).Current (A)
2307.95	-0.698486	-0.0210297
2308.41	0.000650024	0.00322205
2308.89	-0.000341797	0.00679291
2309.35	-0.698608	-0.0183594
2309.81	-0.000473022	0.00441162
2310.29	0.000146484	0.007265625
2310.75	-0.6987	-0.0181122
2311.21	-0.000454712	0.00455505
2311.69	0.000204468	0.00733887
2312.15	-0.698639	-0.0180511
2312.61	-0.000183105	0.00459412
2313.09	0.000579834	0.00736572
2313.55	-0.698975	-0.018042
2314.01	0.000292969	0.00460907
2314.49	0.000527954	0.00738098
2314.95	-0.697937	-0.0180298
2315.41	0.000619507	0.00461548
2315.89	-0.000622559	0.00739807
2316.35	-0.698761	-0.0180206
2316.81	-0.00043335	0.00463135
2317.29	-0.000460815	0.00740631
2317.75	-0.698792	-0.0180054
2318.21	-0.000238037	0.00463898
2318.69	0.000656128	0.00740356
2319.15	-0.697845	-0.0180084
2319.61	0.000616455	0.00463623
2320.09	0.000308228	0.00741211
2320.55	-0.697815	-0.0180084
2321.01	0.000421143	0.00464325
2321.49	0.000418091	0.00741699
2321.95	-0.697754	-0.0179993
2322.41	0.000112915	0.00464569
2322.89	0.000604248	0.00741455
2323.35	-0.697723	-0.0179993
2323.81	-0.000405884	0.00465363
2324.29	0.000622559	0.0074173
2324.75	-0.697876	-0.0179901
2325.21	0.000332642	0.00465424
2325.69	-0.000128174	0.00742401
2326.15	-0.697723	-0.0179962
2326.61	-0.000427246	0.00465973
2327.09	0.00010376	0.00742737
2327.55	-0.698761	-0.0179901
2328.01	-0.000152588	0.00465881
2328.49	-0.000509644	0.00742981
2328.95	-0.697937	-0.0179901
2329.41	0.000720215	0.00465698
2329.89	-1.52588e-05	0.00742859
2330.35	-0.69873	-0.0179871
2330.81	-0.000143433	0.00466278
2331.29	0.000393677	0.00742615
2331.75	-0.697632	-0.017981
2332.21	0.000827026	0.00466156
2332.69	0.000686646	0.00742737
2333.15	-0.6987	-0.017984
2333.61	-0.000384521	0.00467041
2334.09	0.000582886	0.00742432
2334.55	-0.698364	-0.0179749
2335.01	0.000735474	0.00466309
2335.49	-0.000500488	0.00743073
2335.95	-0.697693	-0.017984
2336.41	0.000128174	0.00466675
2336.89	-0.000531006	0.00743195
2337.35	-0.698639	-0.017981
2337.81	-0.000286865	0.0046698
2338.29	-0.000128174	0.00743317
2338.75	-0.698639	-0.0179749
2339.21	-0.000100708	0.00467438
2339.69	-3.35693e-05	0.00743164
2340.15	-0.698853	-0.01796875
2340.61	-0.000439453	0.00467529
2341.09	-0.000106812	0.00743256
2341.55	-0.698883	-0.0179657
2342.01	0.000656128	0.00466858
2342.49	-0.000540161	0.00743347
2342.95	-0.69873	-0.0179718
2343.41	0.000106812	0.00467712
2343.89	0.000698853	0.00742798
2344.35	-0.697693	-0.0179749
2344.81	0.000512695	0.00467407
2345.29	-0.00038147	0.00743164
2345.75	-0.698517	-0.0179626
2346.21	-0.000283813	0.00468079
2346.69	0.000689697	0.00742554
2347.15	-0.69873	-0.0179596
2347.61	0.000741577	0.00467316
2348.09	-0.000476074	0.00743286
2348.55	-0.698059	-0.01796875
2349.01	-0.000354004	0.00467957
2349.49	-0.000558472	0.00743042
2349.95	-0.697845	-0.0179718
2350.41	-0.000427246	0.00468475
2350.89	0.000320435	0.00742554
2351.35	-0.697815	-0.0179718
2351.81	0.000735474	0.00467804
2352.29	7.62939e-05	0.00742584
2352.75	-0.698425	-0.0179504
2353.21	0.000732422	0.00467804
2353.69	-0.000543213	0.00743134
2354.15	-0.697784	-0.01796875
2354.61	-0.000314331	0.00468628
2355.09	0.00045166	0.00742706
2355.55	-0.698395	-0.0179657
2356.01	0.000732422	0.00467834
2356.49	0.000177002	0.00742737
2356.95	-0.697784	-0.0179596
2357.41	0.000473022	0.00468231
2357.89	2.13623e-05	0.00742523
2358.35	-0.697571	-0.0179657
2358.81	-0.000326538	0.00468536
2359.29	0.000595093	0.00742218
2359.75	-0.697693	-0.0179596
2360.21	0.00027771	0.00468048
2360.69	-0.000268555	0.00743042
2361.15	-0.697723	-0.0179657
2361.61	0.000668335	0.0046814
2362.09	0.000442505	0.007421875
2362.55	-0.698944	-0.0179535
2363.01	-0.00022583	0.00468811
2363.49	0.000668335	0.00742157
2363.95	-0.697754	-0.0179565
2364.41	9.15527e-05	0.00468872
2364.89	-0.000506592	0.00742828
2365.35	-0.698944	-0.0179474
2365.81	0.000686646	0.00468323
2366.29	-0.000338745	0.00742432
2366.75	-0.697906	-0.0179535
2367.21	0.000524902	0.00468414
2367.69	0.000259399	0.00742035
2368.15	-0.69754	-0.0179535
2368.61	0.000598145	0.00468658
2369.09	0.000198364	0.0074234
2369.55	-0.697723	-0.0179535
2370.01	0.000286865	0.00469055
2370.49	-0.000543213	0.00742706
2370.95	-0.698517	-0.0179474
2371.41	-0.000314331	0.00469513
2371.89	-0.000576782	0.00742554
2372.35	-0.697693	-0.0179504
2372.81	0.000350952	0.00468781
2373.29	0.000610352	0.0074176
2373.75	-0.697601	-0.0179504
2374.21	0.000109863	0.00469452
2374.69	0.000106812	0.00741974
2375.15	-0.697693	-0.0179565
2375.61	0.000457764	0.00468872
2376.09	-0.00038147	0.00742523
2376.55	-0.698792	-0.0179443
2377.01	0.000769043	0.00468903
2377.49	-8.54492e-05	0.00742065
2377.95	-0.697693	-0.0179443
2378.41	0.000558472	0.00469177
2378.89	-0.000177002	0.00741974
2379.35	-0.698914	-0.0179504
2379.81	0.000259399	0.00469421
2380.29	0.000482178	0.00741577
2380.75	-0.697723	-0.0179474
2381.21	4.88281e-05	0.00469666
2381.69	0.000735474	0.00741608
2382.15	-0.69873	-0.0179413
2382.61	-0.000439453	0.00469971
2383.09	0.000366211	0.00741516
2383.55	-0.6987	-0.0179413
2384.01	0.000592041	0.00469238
2384.49	-0.000454712	0.00741913
2384.95	-0.697998	-0.0179504
2385.41	0.000784302	0.0046936
2385.89	0.000598145	0.00741241
2386.35	-0.698578	-0.0179382
2386.81	-0.00032959	0.00470062
2387.29	0.000479126	0.00741577
2387.75	-0.698822	-0.0179413
2388.21	0.000723267	0.00469849
2388.69	-0.000247192	0.00741577
2389.15	-0.697632	-0.0179474
2389.61	0.000534058	0.00469604
2390.09	0.000201416	0.00741455
2390.55	-0.698608	-0.0179352
2391.01	-0.000396729	0.00470154
2391.49	0.000189209	0.0074115
2391.95	-0.698853	-0.0179382
2392.41	0.000250244	0.0046991
2392.89	-0.000616455	0.00741608
2393.35	-0.698364	-0.0179352
2393.81	0.000640869	0.00469574
2394.29	-0.000201416	0.00741669
2394.75	-0.697784	-0.0179382
2395.21	0.000726318	0.00469666
2395.69	0.000204468	0.00741211
2396.15	-0.698395	-0.0179443
2396.61	0.000424194	0.00469696
2397.09	-0.000460815	0.00741638
2397.55	-0.698792	-0.0179352
2398.01	0.000640869	0.00469696
2398.49	-0.00050354	0.00741608
2398.95	-0.698822	-0.0179352
2399.41	0.000436401	0.00469604
2399.89	0.000427246	0.00740723
2400.35	-0.698242	-0.0179413
2400.81	-0.000320435	0.00470276
2401.29	0.00065918	0.00740479
2401.75	-0.698212	-0.0179382
2402.21	-0.000430298	0.00470581
2402.69	0.000631714	0.00740631
2403.15	-0.697968	-0.0179382
2403.61	-0.000366211	0.00470337
2404.09	-0.000134277	0.00741241
2404.55	-0.698303	-0.0179291
2405.01	-0.000393677	0.0047049
2405.49	-0.000476074	0.00740875
2405.95	-0.69873	-0.0179291
2406.41	0.000497437	0.00470367
2406.89	-0.00010376	0.0074054
2407.35	-0.698181	-0.0179413
2407.81	0.000558472	0.00470184
2408.29	-0.000314331	0.00740845
2408.75	-0.698639	-0.0179291
2409.21	-0.000366211	0.00470398
2409.69	0.000762939	0.00740204
2410.15	-0.697968	-0.017926
2410.61	0.000744629	0.00470123
2411.09	0.000341797	0.00740326
2411.55	-0.698822	-0.017923
2412.01	-0.000402832	0.00470917
2412.49	5.18799e-05	0.00740204
2412.95	-0.698456	-0.0179291
2413.41	0.000411987	0.00470306
2413.89	0.000579834	0.00740021
2414.35	-0.697937	-0.0179321
2414.81	0.000604248	0.00470734
2415.29	0.000698853	0.00739929
2415.75	-0.697693	-0.0179321
2416.21	-0.00043335	0.00471008
2416.69	0.000473022	0.00740051
2417.15	-0.698761	-0.0179291
2417.61	-9.15527e-05	0.00470856
2418.09	0.000616455	0.00739868
2418.55	-0.698792	-0.0179321
2419.01	-3.96729e-05	0.00470734
2419.49	0.000286865	0.00739594
2419.95	-0.698669	-0.0179169
2420.41	-0.000497437	0.00471191
2420.89	0.000665283	0.00739594
2421.35	-0.698853	-0.017926
2421.81	0.000671387	0.0047052
2422.29	-9.76562e-05	0.00740112
2422.75	-0.697601	-0.017926
2423.21	0.000167847	0.004711
2423.69	-0.000177002	0.00740051
2424.15	-0.697815	-0.0179291
2424.61	-0.000418091	0.00471313
2425.09	0.000674438	0.00739594
2425.55	-0.69873	-0.0179169
2426.01	0.000784302	0.00470612
2426.49	0.000646973	0.00739258
2426.95	-0.697693	-0.0179291
2427.41	-5.18799e-05	0.00471222
2427.89	-5.49316e-05	0.00739807
2428.35	-0.698242	-0.0179291
2428.81	-0.000457764	0.00471436
2429.29	-0.000454712	0.00739746
2429.75	-0.697815	-0.0179169
2430.21	-0.000436401	0.00471375
2430.69	-5.79834e-05	0.00739838
2431.15	-0.698212	-0.017926
2431.61	-2.74658e-05	0.00471619
2432.09	3.96729e-05	0.00739166
2432.55	-0.697998	-0.0179291
2433.01	0.000778198	0.00470947
2433.49	0.000283813	0.00738983
2433.95	-0.697632	-0.0179169
2434.41	0.000601196	0.00470856
2434.89	0.00065918	0.00738953
2435.35	-0.6987	-0.0179138
2435.81	7.93457e-05	0.00471161
2436.29	0.000344849	0.00738647
2436.75	-0.698822	-0.0179138
2437.21	0.00067749	0.00470917
2437.69	-0.000488281	0.00739532
2438.15	-0.697998	-0.0179169
2438.61	0.00065918	0.00471039
2439.09	-0.000488281	0.00739288
2439.55	-0.69873	-0.0179108
2440.01	-0.000378418	0.00471741
2440.49	0.000424194	0.00738892
2440.95	-0.697662	-0.017923
2441.41	0.000656128	0.00471466
2441.89	0.000653076	0.00738403
2442.35	-0.698334	-0.017926
2442.81	-0.000100708	0.00471649
2443.29	-0.000326538	0.00739166
2443.75	-0.698792	-0.0179199
2444.21	-0.000439453	0.00471924
2444.69	0.000506592	0.00738586
2445.15	-0.697815	-0.0179077
2445.61	0.000137329	0.00471527
2446.09	0.00055542	0.00738434
2446.55	-0.697662	-0.0179199
2447.01	-0.000335693	0.00472076
2447.49	0.000564575	0.00738068
2447.95	-0.698456	-0.0179077
2448.41	-0.000421143	0.00472046
2448.89	-0.00038147	0.00738617
2449.35	-0.698853	-0.0179077
2449.81	-0.000286865	0.00472046
2450.29	0.000622559	0.00738007
2450.75	-0.698517	-0.0179077
2451.21	-0.000430298	0.00472168
2451.69	-0.000515747	0.0073877
2452.15	-0.698883	-0.0179077
2452.61	-9.46045e-05	0.00471497
2453.09	-0.000515747	0.00738617
2453.55	-0.697937	-0.017923
2454.01	-5.79834e-05	0.00471832
2454.49	-0.000531006	0.00738556
2454.95	-0.698608	-0.0179077
2455.41	0.000686646	0.00471375
2455.89	-4.57764e-05	0.00738037
2456.35	-0.6987	-0.0179108
2456.81	0.000643921	0.00471619
2457.29	0.000192261	0.00738373
2457.75	-0.698792	-0.0179077
2458.21	0.000863647	0.00471771
2458.69	0.000592041	0.00737701
2459.15	-0.698761	-0.0179016
2459.61	-8.23975e-05	0.00472351
2460.09	0.00055542	0.0073761
2460.55	-0.697632	-0.0179138
2461.01	0.000335693	0.00472046
2461.49	-0.000537109	0.00738068
2461.95	-0.698944	-0.0179016
2462.41	0.000283813	0.00472107
2462.89	-0.000564575	0.00738068
2463.35	-0.698822	-0.0178986
2463.81	0.000460815	0.0047168
2464.29	-0.000488281	0.00737946
2464.75	-0.698547	-0.0178955
2465.21	0.000527954	0.00472046
2465.69	-4.88281e-05	0.00737885
2466.15	-0.697632	-0.0179077
2466.61	0.000323486	0.00471924
2467.09	-0.000115967	0.00737793
2467.55	-0.698547	-0.0179016
2468.01	-0.000411987	0.00472351
2468.49	0.000509644	0.00737
2468.95	-0.697937	-0.0179108
2469.41	0.00067749	0.00471832
2469.89	-0.000198364	0.00737732
2470.35	-0.698212	-0.0179138
2470.81	-0.000286865	0.00472473
2471.29	-0.000408936	0.00737762
2471.75	-0.698853	-0.0178986
2472.21	-0.00039978	0.00472748
2472.69	0.00027771	0.00737122
2473.15	-0.697723	-0.0179077
2473.61	0.000610352	0.00472076
2474.09	0.000344849	0.00737396
2474.55	-0.697845	-0.0179108
2475.01	-0.00020752	0.00472626
2475.49	-0.000375366	0.00737488
2475.95	-0.698944	-0.0178955
2476.41	-7.93457e-05	0.00472687
2476.89	-0.000540161	0.00737518
2477.35	-0.698456	-0.0178986
2477.81	0.000738525	0.00472229
2478.29	-0.000534058	0.00737305
2478.75	-0.698883	-0.0179016
2479.21	-0.000540161	0.00472839
2479.69	0.00055542	0.00736816
2480.15	-0.69809	-0.0179047
2480.61	0.000723267	0.00472229
2481.09	0.000375366	0.00736786
2481.55	-0.698669	-0.0179016
2482.01	0.000161743	0.00472504
2482.49	-0.000521851	0.00737152
2482.95	-0.698212	-0.0179047
2483.41	0.000750732	0.0047229
2483.89	0.00072937	0.00736511
2484.35	-0.697723	-0.0178955
2484.81	0.000305176	0.00473053
2485.29	0.000634766	0.00736328
2485.75	-0.698822	-0.0178925
2486.21	-0.00010376	0.00473083
2486.69	0.000482178	0.00736389
2487.15	-0.698181	-0.0179047
2487.61	-0.00039978	0.00473114
2488.09	-0.000546265	0.00736725
2488.55	-0.698212	-0.0179016
2489.01	0.000518799	0.00472717
2489.49	-0.000424194	0.00736298
2489.95	-0.698547	-0.0178925
2490.41	0.000817871	0.00472809
2490.89	-0.00045166	0.00736389
2491.35	-0.697815	-0.0178925
2491.81	0.000552368	0.004729
2492.29	-0.000259399	0.00736511
2492.75	-0.698883	-0.0178925
2493.21	0.000292969	0.00473114
2493.69	0.00065918	0.0073587
2494.15	-0.698059	-0.0178955
2494.61	0.000762939	0.00472595
2495.09	-0.000372314	0.00735901
2495.55	-0.697662	-0.0178955
2496.01	-0.000509644	0.00473419
2496.49	0.000170898	0.00735718
2496.95	-0.698792	-0.0178925
2497.41	-6.10352e-05	0.00473358
2497.89	0.000650024	0.00735413
2498.35	-0.697571	-0.0178864
2498.81	0.000344849	0.00472809
2499.29	-0.000271606	0.00736176
2499.75	-0.698853	-0.0178833
2500.21	-1.52588e-05	0.00473419
2500.69	-0.0006073	0.00735992
2501.15	-0.697998	-0.0178955
2501.61	-0.000509644	0.00473389
2502.09	0.000488281	0.00735565
2502.55	-0.697693	-0.0178955
2503.01	0.000234985	0.00473053
2503.49	0.000674438	0.00735413
2503.95	-0.699005	-0.0178925
2504.41	-0.000454712	0.00473694
2504.89	0.000671387	0.00735168
2505.35	-0.697693	-0.0178955
2505.81	0.000244141	0.00473389
2506.29	-0.000421143	0.00735962
2506.75	-0.698853	-0.0178864
2507.21	-0.000137329	0.00473328
2507.69	-0.000469971	0.00735779
2508.15	-0.697937	-0.0178864
2508.61	0.00057373	0.00472992
2509.09	0.000692749	0.00734894
2509.55	-0.69873	-0.0178955
2510.01	0.000732422	0.00473145
2510.49	-0.000415039	0.00735596
2510.95	-0.697784	-0.0178925
2511.41	0.000820923	0.00473145
2511.89	4.88281e-05	0.00734741
2512.35	-0.698639	-0.0178802
2512.81	0.000683594	0.00473175
2513.29	0.0006073	0.00734833
2513.75	-0.698822	-0.0178802
2514.21	0.000735474	0.00473236
2514.69	-0.000128174	0.00735291
2515.15	-0.698853	-0.0178802
2515.61	0.000726318	0.00473358
2516.09	0.000354004	0.00734589
2516.55	-0.698547	-0.0178864
2517.01	0.000375366	0.00473846
2517.49	-0.000622559	0.00735107
2517.95	-0.698425	-0.0178802
2518.41	0.00072937	0.0047348
2518.89	0.000137329	0.00734558
2519.35	-0.697601	-0.0178864
2519.81	0.000421143	0.0047348
2520.29	-0.000268555	0.00734955
2520.75	-0.69873	-0.0178772
2521.21	-2.13623e-05	0.0047406
2521.69	0.000247192	0.0073465
2522.15	-0.697723	-0.0178925
2522.61	0.000650024	0.00473816
2523.09	5.49316e-05	0.00734253
2523.55	-0.698822	-0.0178833
2524.01	-5.49316e-05	0.0047406
2524.49	-0.000146484	0.00734772
2524.95	-0.697754	-0.0178864
2525.41	-0.000396729	0.00474335
2525.89	0.000524902	0.00734283
2526.35	-0.697754	-0.0178864
2526.81	-0.000332642	0.00474213
2527.29	0.000579834	0.00733948
2527.75	-0.698578	-0.0178741
2528.21	0.00078125	0.00473907
2528.69	0.000436401	0.00734283
2529.15	-0.698822	-0.0178772
2529.61	-0.00022583	0.00474182
2530.09	-0.000531006	0.00734619
2530.55	-0.698914	-0.0178833
2531.01	0.000576782	0.0047403
2531.49	0.000509644	0.00733673
2531.95	-0.697723	-0.0178864
2532.41	0.000680542	0.00473694
2532.89	-0.000637817	0.00734406
2533.35	-0.698456	-0.0178802
2533.81	-0.000491333	0.00474213
2534.29	-0.000131226	0.00734039
2534.75	-0.698853	-0.0178741
2535.21	5.79834e-05	0.00474091
2535.69	-0.000485229	0.00734375
2536.15	-0.698181	-0.0178711
2536.61	-0.000402832	0.00474518
2537.09	0.000268555	0.00733978
2537.55	-0.698822	-0.0178772
2538.01	0.000158691	0.00474121
2538.49	-0.000115967	0.0073349
2538.95	-0.698914	-0.0178741
2539.41	0.000753784	0.00473969
2539.89	-0.000244141	0.007341
2540.35	-0.698822	-0.0178711
2540.81	-0.000228882	0.00474426
2541.29	-0.00032959	0.007341
2541.75	-0.697815	-0.0178802
2542.21	-0.000463867	0.00474792
2542.69	-0.000393677	0.00733917
2543.15	-0.698639	-0.0178741
2543.61	-0.000100708	0.00474823
2544.09	-0.000585937	0.00733643
2544.55	-0.697937	-0.0178802
2545.01	0.000390625	0.00474426
2545.49	-0.000143433	0.00733337
2545.95	-0.697693	-0.0178741
2546.41	0.00038147	0.00474396
2546.89	-8.8501e-05	0.00733521
2547.35	-0.697632	-0.0178802
2547.81	-0.000231934	0.00474915
2548.29	0.000219727	0.0073288
2548.75	-0.698669	-0.0178619
2549.21	3.05176e-05	0.00474976
2549.69	-0.000531006	0.00733276
2550.15	-0.698822	-0.0178711
2550.61	0.000735474	0.00474274
2551.09	-0.000430298	0.00733246
2551.55	-0.698608	-0.0178619
2552.01	-0.000393677	0.00474976
2552.49	0.000662231	0.00732635
2552.95	-0.698181	-0.0178772
2553.41	-3.66211e-05	0.00474609
2553.89	0.000469971	0.00733032
2554.35	-0.697815	-0.0178772
2554.81	-0.00020752	0.00475098
2555.29	0.000326538	0.00732513
2555.75	-0.698883	-0.0178711
2556.21	0.000701904	0.00474274
2556.69	-0.000253296	0.00733185
2557.15	-0.697632	-0.0178772
2557.61	-0.000167847	0.00475067
2558.09	-0.000506592	0.00733124
2558.55	-0.697632	-0.017868
2559.01	-7.32422e-05	0.00474915
2559.49	-7.01904e-05	0.00733154
2559.95	-0.698517	-0.0178619
2560.41	0.000604248	0.00474426
2560.89	-0.000256348	0.00732697
2561.35	-0.697693	-0.017868
2561.81	0.000732422	0.00474457
2562.29	0.000543213	0.00732178
2562.75	-0.698944	-0.0178711
2563.21	-1.52588e-05	0.0047522
2563.69	-0.000457764	0.00732605
2564.15	-0.698364	-0.0178558
2564.61	-0.000415039	0.00475281
2565.09	6.10352e-06	0.00731995
2565.55	-0.698303	-0.0178741
2566.01	-0.000265503	0.00475403
2566.49	-0.000149536	0.00732635
2566.95	-0.698151	-0.017865
2567.41	0.000701904	0.0047464
2567.89	-0.000460815	0.00732483
2568.35	-0.698212	-0.0178711
2568.81	-0.000357056	0.00475342
2569.29	-3.05176e-05	0.00732391
2569.75	-0.697662	-0.017865
2570.21	0.000552368	0.00474579
2570.69	-0.000195313	0.00732544
2571.15	-0.698334	-0.0178558
2571.61	-0.000115967	0.00475037
2572.09	-0.000326538	0.00732391
2572.55	-0.698761	-0.0178558
2573.01	0.00062561	0.00474701
2573.49	-0.000344849	0.00732391
2573.95	-0.69809	-0.0178619
2574.41	0.000326538	0.00474915
2574.89	-0.000393677	0.0073233
2575.35	-0.697662	-0.017865
2575.81	0.000790405	0.00474915
2576.29	7.93457e-05	0.00732086
2576.75	-0.697723	-0.0178619
2577.21	-4.88281e-05	0.0047522
2577.69	0.000497437	0.00731659
2578.15	-0.697662	-0.017865
2578.61	0.000616455	0.0047525
2579.09	-0.000415039	0.00731934
2579.55	-0.69809	-0.017865
2580.01	3.35693e-05	0.00475281
2580.49	-0.000482178	0.00731873
2580.95	-0.698822	-0.0178497
2581.41	-0.000384521	0.00475922
2581.89	0.000357056	0.00731628
2582.35	-0.698792	-0.0178467
2582.81	0.000125122	0.00475708
2583.29	0.000613403	0.00731201
2583.75	-0.697723	-0.0178558
2584.21	-0.000350952	0.00475983
2584.69	0.000164795	0.00731506
2585.15	-0.6987	-0.0178558
2585.61	-0.000442505	0.00475861
2586.09	-1.2207e-05	0.0073172
2586.55	-0.698578	-0.0178497
2587.01	0.000811768	0.00475403
2587.49	0.000656128	0.00730957
2587.95	-0.698914	-0.0178497
2588.41	-0.000375366	0.00476074
2588.89	0.00038147	0.00731293
2589.35	-0.698486	-0.0178619
2589.81	-0.000164795	0.00475677
2590.29	-0.000515747	0.00731689
2590.75	-0.698303	-0.0178528
2591.21	0.000698853	0.00475311
2591.69	0.000128174	0.00731598
2592.15	-0.697845	-0.0178619
2592.61	-0.000299072	0.00476318
2593.09	-0.000421143	0.00731354
2593.55	-0.698853	-0.0178467
2594.01	-0.000350952	0.00476257
2594.49	0.000634766	0.00730682
2594.95	-0.698029	-0.0178436
2595.41	0.000344849	0.00475616
2595.89	8.54492e-05	0.00730804
2596.35	-0.697998	-0.0178528
2596.81	0.000137329	0.00476318
2597.29	-0.000408936	0.00730835
2597.75	-0.698547	-0.0178467
2598.21	7.32422e-05	0.00475861
2598.69	0.000683594	0.00730408
2599.15	-0.697815	-0.0178589
2599.61	0.000250244	0.00475769
2600.09	-0.000256348	0.00731018
2600.55	-0.697662	-0.0178619
2601.01	0.000598145	0.00475922
2601.49	0.000579834	0.00730286
2601.95	-0.697723	-0.0178467
2602.41	-0.000350952	0.004765625
2602.89	0.000195313	0.00730957
2603.35	-0.6987	-0.0178406
2603.81	-0.000445557	0.00476501
2604.29	-0.000314331	0.00730743
2604.75	-0.6987	-0.0178375
2605.21	0.000180054	0.00476227
2605.69	-0.000308228	0.00730591
2606.15	-0.698395	-0.0178467
2606.61	0.000643921	0.00476013
2607.09	-0.000384521	0.00730927
2607.55	-0.698761	-0.0178375
2608.01	0.000765991	0.00475891
2608.49	-0.000482178	0.00730652
2608.95	-0.697968	-0.0178467
2609.41	0.000708008	0.00476044
2609.89	0.00057373	0.0072998
2610.35	-0.698639	-0.0178497
2610.81	-0.000323486	0.00476715
2611.29	-0.000222778	0.00730347
2611.75	-0.698883	-0.0178406
2612.21	0.000747681	0.00475952
2612.69	-0.000506592	0.00730682
2613.15	-0.698059	-0.0178497
2613.61	-0.000268555	0.0047699
2614.09	0.000161743	0.00729767
2614.55	-0.697876	-0.0178467
2615.01	-0.0003479	0.00477051
2615.49	0.000515747	0.00729553
2615.95	-0.698212	-0.0178375
2616.41	-0.000418091	0.00476929
2616.89	0.000601196	0.00729553
2617.35	-0.698883	-0.0178436
2617.81	-0.000439453	0.0047699
2618.29	0.000457764	0.0072934
2618.75	-0.698639	-0.0178375
2619.21	0.000671387	0.00476074
2619.69	-0.000247192	0.00730164
2620.15	-0.698853	-0.0178314
2620.61	0.000741577	0.00476257
2621.09	0.000564575	0.0072937
2621.55	-0.697693	-0.0178436
2622.01	-0.000216675	0.00477051
2622.49	-0.000497437	0.00730072
2622.95	-0.697693	-0.0178467
2623.41	2.13623e-05	0.00476471
2623.89	0.000527954	0.00729187
2624.35	-0.698669	-0.0178436
2624.81	0.000744629	0.00476379
2625.29	0.000390625	0.00729492
2625.75	-0.697662	-0.0178406
2626.21	-0.000271606	0.00476807
2626.69	0.000640869	0.00729065
2627.15	-0.698792	-0.0178375
2627.61	0.000125122	0.0047699
2628.09	-0.000274658	0.00729462
2628.55	-0.6987	-0.0178375
2629.01	0.000765991	0.00476501
2629.49	0.000363159	0.00728943
2629.95	-0.69873	-0.0178345
2630.41	0.000714111	0.00476685
2630.89	0.000570679	0.00729065
2631.35	-0.697662	-0.0178406
2631.81	0.00067749	0.00476715
2632.29	-0.000427246	0.00729675
2632.75	-0.69812	-0.0178345
2633.21	0.000320435	0.00476654
2633.69	-0.000604248	0.00729492
2634.15	-0.698303	-0.0178375
2634.61	-0.000473022	0.00477203
2635.09	0.000286865	0.00729065
2635.55	-0.698883	-0.0178284
2636.01	3.05176e-06	0.00477386
2636.49	0.000534058	0.0072879
2636.95	-0.697723	-0.0178314
2637.41	0.000668335	0.00476929
2637.89	0.000302124	0.00728607
2638.35	-0.697693	-0.0178345
2638.81	0.000567627	0.00476776
2639.29	0.000588989	0.00728455
2639.75	-0.698425	-0.0178375
2640.21	0.000772095	0.00476776
2640.69	0.000634766	0.00728546
2641.15	-0.697632	-0.0178345
2641.61	0.000256348	0.00476898
2642.09	0.000598145	0.00728455
2642.55	-0.698425	-0.0178375
2643.01	0.000183105	0.0047702
2643.49	0.000640869	0.00728363
2643.95	-0.697693	-0.0178314
2644.41	-0.00045166	0.00477783
2644.89	-3.66211e-05	0.0072821
2645.35	-0.697723	-0.0178314
2645.81	0.000115967	0.00477142
2646.29	-0.000521851	0.00728912
2646.75	-0.697998	-0.0178314
2647.21	-0.000302124	0.00477478
2647.69	0.000280762	0.00728577
2648.15	-0.698792	-0.0178253
2648.61	-0.00043335	0.00477722
2649.09	0.000540161	0.00728302
2649.55	-0.697876	-0.0178314
2650.01	-0.00050354	0.00477753
2650.49	0.000753784	0.00728088
2650.95	-0.698364	-0.0178223
2651.41	0.000189209	0.00477814
2651.89	0.000271606	0.00728058
2652.35	-0.697937	-0.0178345
2652.81	0.000488281	0.00477509
2653.29	0.000558472	0.00727844
2653.75	-0.698425	-0.0178284
2654.21	-0.000299072	0.00478027
2654.69	0.00045166	0.00728058
2655.15	-0.697693	-0.0178284
2655.61	0.000653076	0.00477692
2656.09	-0.000527954	0.00728363
2656.55	-0.698395	-0.0178314
2657.01	-0.000405884	0.00477905
2657.49	0.000570679	0.00727814
2657.95	-0.697693	-0.0178223
2658.41	-0.000335693	0.00477844
2658.89	0.000265503	0.00727936
2659.35	-0.698425	-0.0178192
2659.81	-0.000283813	0.00477875
2660.29	-0.000585937	0.00728241
2660.75	-0.697754	-0.0178253
2661.21	0.000601196	0.00477325
2661.69	0.00055542	0.00727692
2662.15	-0.697815	-0.0178253
2662.61	0.000143433	0.004776
2663.09	-1.83105e-05	0.00728058
2663.55	-0.697845	-0.0178162
2664.01	0.000231934	0.004776
2664.49	0.000119019	0.00727905
2664.95	-0.697723	-0.0178192
2665.41	-0.000415039	0.00478241
2665.89	-3.96729e-05	0.00728058
2666.35	-0.69812	-0.0178131
2666.81	0.000787354	0.00477631
2667.29	0.000424194	0.00727173
2667.75	-0.698334	-0.0178131
2668.21	0.000488281	0.00477966
2668.69	0.000363159	0.00727264
2669.15	-0.698883	-0.0178253
2669.61	-0.000439453	0.00478424
2670.09	-0.000372314	0.00727905
2670.55	-0.698822	-0.0178131
2671.01	0.000820923	0.00477814
2671.49	0.000714111	0.00727112
2671.95	-0.697662	-0.0178192
2672.41	3.05176e-05	0.00478302
2672.89	-0.000488281	0.0072757
2673.35	-0.698761	-0.0178223
2673.81	-9.15527e-05	0.00478088
2674.29	-0.000146484	0.00727539
2674.75	-0.6987	-0.0178162
2675.21	-0.000109863	0.00478455
2675.69	0.000286865	0.00726898
2676.15	-0.697693	-0.0178162
2676.61	0.000393677	0.00478363
2677.09	-0.000112915	0.00727539
2677.55	-0.697754	-0.0178162
2678.01	-0.000384521	0.00478638
2678.49	-0.00010376	0.00727325
2678.95	-0.699005	-0.0178192
2679.41	-0.000375366	0.00478485
2679.89	-0.000485229	0.00727478
2680.35	-0.698761	-0.0178162
2680.81	0.000149536	0.00478119
2681.29	-0.000100708	0.00727417
2681.75	-0.697998	-0.0178223
2682.21	0.000231934	0.00478668
2682.69	-0.000137329	0.00727203
2683.15	-0.698486	-0.0178162
2683.61	0.000375366	0.0047818
2684.09	0.000643921	0.00726471
2684.55	-0.69873	-0.0178192
2685.01	0.000723267	0.00478088
2685.49	0.000463867	0.00726624
2685.95	-0.6987	-0.0178162
2686.41	0.000726318	0.00478088
2686.89	0.000308228	0.00726837
2687.35	-0.698883	-0.017804
2687.81	0.000720215	0.00478333
2688.29	-0.000479126	0.00726929
2688.75	-0.698639	-0.017807
2689.21	0.000292969	0.00478241
2689.69	-0.000567627	0.00726898
2690.15	-0.69809	-0.0178009
2690.61	-0.000100708	0.00478638
2691.09	0.000521851	0.00726196
2691.55	-0.698486	-0.017804
2692.01	0.000137329	0.0047821
2692.49	-0.000308228	0.00726135
2692.95	-0.697723	-0.0178101
2693.41	0.000485229	0.00478149
2693.89	0.000473022	0.00725983
2694.35	-0.697937	-0.0178131
2694.81	0.000531006	0.00478516
2695.29	0.000640869	0.00725891
2695.75	-0.697815	-0.0178131
2696.21	0.000253296	0.0047879
2696.69	0.000610352	0.0072583
2697.15	-0.69812	-0.0178101
2697.61	0.000302124	0.00478333
2698.09	-0.000308228	0.00726624
2698.55	-0.698334	-0.0177979
2699.01	0.000576782	0.00478455
2699.49	-0.000497437	0.00726593
2699.95	-0.698334	-0.017804
2700.41	0.000384521	0.00478851
2700.89	-0.000241089	0.00726135
2701.35	-0.6987	-0.017807
2701.81	-0.000112915	0.00479248
2702.29	0.00022583	0.00725708
2702.75	-0.698883	-0.017804
2703.21	0.00039978	0.00479187
2703.69	-0.000479126	0.00726379
2704.15	-0.69812	-0.0178131
2704.61	-4.57764e-05	0.00479218
2705.09	0.000341797	0.0072583
2705.55	-0.698914	-0.017804
2706.01	0.000662231	0.00478821
2706.49	-0.000485229	0.00726379
2706.95	-0.697754	-0.017807
2707.41	-8.54492e-05	0.00479309
2707.89	-0.000637817	0.00725952
2708.35	-0.69812	-0.0177979
2708.81	-0.000415039	0.00479065
2709.29	0.000384521	0.00725616
2709.75	-0.698242	-0.0178009
2710.21	0.000100708	0.00479065
2710.69	-6.10352e-05	0.00725586
2711.15	-0.698792	-0.0177979
2711.61	-0.000250244	0.00479553
2712.09	-1.2207e-05	0.00725525
2712.55	-0.698822	-0.017807
2713.01	-0.000448608	0.00479614
2713.49	0.000549316	0.00725708
2713.95	-0.698212	-0.0178131
2714.41	0.000466919	0.00478912
2714.89	-0.000512695	0.00725983
2715.35	-0.697815	-0.0178101
2715.81	0.000683594	0.00479065
2716.29	0.000665283	0.0072522
2716.75	-0.697998	-0.017804
2717.21	0.000198364	0.00479218
2717.69	-3.05176e-06	0.0072525
2718.15	-0.697632	-0.017804
2718.61	-0.000143433	0.00479279
2719.09	-0.000506592	0.0072583
2719.55	-0.698822	-0.0178009
2720.01	-0.000271606	0.00479736
2720.49	-0.000436401	0.00725464
2720.95	-0.697601	-0.017804
2721.41	-0.000427246	0.00479828
2721.89	-0.000506592	0.00725494
2722.35	-0.697662	-0.017804
2722.81	-0.00045166	0.00479889
2723.29	-0.000299072	0.00725555
2723.75	-0.697906	-0.017804
2724.21	9.46045e-05	0.00479156
2724.69	-0.000518799	0.00725342
2725.15	-0.697693	-0.017807
2725.61	-0.00017395	0.00479675
2726.09	0.000650024	0.00724518
2726.55	-0.698944	-0.0177887
2727.01	0.000131226	0.00479523
2727.49	-0.000500488	0.00725311
2727.95	-0.698669	-0.0177948
2728.41	-0.000222778	0.00479706
2728.89	-0.000228882	0.00725189
2729.35	-0.698883	-0.0177887
2729.81	0.000793457	0.00479218
2730.29	-0.000292969	0.0072525
2730.75	-0.697876	-0.017804
2731.21	0.000268555	0.00479462
2731.69	2.13623e-05	0.00724579
2732.15	-0.697845	-0.0177917
2732.61	0.000720215	0.00479309
2733.09	-0.000402832	0.00725128
2733.55	-0.698151	-0.0177948
2734.01	-0.00027771	0.00480103
2734.49	-0.000515747	0.00724701
2734.95	-0.698883	-0.0177917
2735.41	0.000775146	0.00479492
2735.89	0.000311279	0.00724152
2736.35	-0.698517	-0.0177979
2736.81	-0.000222778	0.00480255
2737.29	0.00057373	0.00723999
2737.75	-0.697906	-0.017804
2738.21	-0.000405884	0.00480255
2738.69	0.000628662	0.00723999
2739.15	-0.698914	-0.0177917
2739.61	-0.000469971	0.00480377
2740.09	-0.00055542	0.0072464
2740.55	-0.698608	-0.0177948
2741.01	0.000408936	0.00479645
2741.49	0.000579834	0.00723938
2741.95	-0.698486	-0.0177856
2742.41	-0.000332642	0.00480103
2742.89	-0.000509644	0.00724548
2743.35	-0.698639	-0.0177917
2743.81	-0.00010376	0.0047995
2744.29	-0.00055542	0.00724518
2744.75	-0.698456	-0.0177917
2745.21	-0.00050354	0.00480408
2745.69	0.000646973	0.00723785
2746.15	-0.69873	-0.0177887
2746.61	-0.000442505	0.00480377
2747.09	0.000561523	0.00723694
2747.55	-0.698944	-0.0177856
2748.01	-0.000436401	0.00480408
2748.49	0.000576782	0.00723724
2748.95	-0.697754	-0.0177948
2749.41	-0.000338745	0.00480408
2749.89	-0.000183105	0.00724365
2750.35	-0.698212	-0.0177948
2750.81	0.000741577	0.0047998
2751.29	0.000646973	0.0072348
2751.75	-0.698914	-0.0177856
2752.21	-0.000378418	0.00480713
2752.69	0.000384521	0.00723297
2753.15	-0.697784	-0.0177917
2753.61	0.000604248	0.00480133
2754.09	-7.01904e-05	0.0072403
2754.55	-0.697754	-0.0177826
2755.01	-0.000466919	0.00480743
2755.49	-0.000366211	0.00724121
2755.95	-0.698151	-0.0177887
2756.41	-0.000439453	0.00480804
2756.89	-0.000326538	0.00723846
2757.35	-0.698151	-0.0177795
2757.81	-0.00032959	0.00480743
2758.29	0.000366211	0.0072348
2758.75	-0.697906	-0.0177887
2759.21	-5.49316e-05	0.00480682
2759.69	0.000619507	0.00723236
2760.15	-0.697815	-0.0177795
2760.61	0.000430298	0.00479919
2761.09	-0.000112915	0.00723145
2761.55	-0.69809	-0.0177887
2762.01	6.40869e-05	0.00480316
2762.49	-0.000442505	0.00723694
2762.95	-0.697601	-0.0177826
2763.41	0.000393677	0.0047995
2763.89	-0.000183105	0.00720032
2764.35	-0.69809	-0.017749
2764.81	0.000424194	0.00478058
2765.29	0.000210571	0.00718018
2765.75	-0.698822	-0.0178009
2766.21	0.000540161	0.00477112
2766.69	0.000460815	0.00719391
2767.15	-0.698578	-0.017804
2767.61	-0.000274658	0.00477112
2768.09	0.000582886	0.0071875
2768.55	-0.69812	-0.0178009
2769.01	-0.000170898	0.00477051
2769.49	-0.000350952	0.00718994
2769.95	-0.698853	-0.017807
2770.41	-7.62939e-05	0.00476166
2770.89	0.00072937	0.00718018
2771.35	-0.698273	-0.0178192
2771.81	0.000204468	0.00476013
2772.29	0.000125122	0.00718292
2772.75	-0.697754	-0.0178162
2773.21	0.00050354	0.00476227
2773.69	0.000326538	0.00718079
2774.15	-0.698822	-0.0178162
2774.61	-0.000457764	0.00476868
2775.09	-0.000296021	0.0071991
2775.55	-0.698822	-0.0178345
2776.01	-0.000537109	0.00476959
2776.49	-0.000149536	0.00719543
2776.95	-0.69812	-0.0178375
2777.41	-6.71387e-05	0.00477356
2777.89	7.62939e-05	0.00719696
2778.35	-0.698792	-0.017868
2778.81	-0.00022583	0.00477844
2779.29	-0.00050354	0.00721649
2779.75	-0.697693	-0.0178741
2780.21	-0.000344849	0.00478149
2780.69	0.000247192	0.00721252
2781.15	-0.698792	-0.0178619
2781.61	0.000799561	0.00477753
2782.09	0.000195313	0.00721405
2782.55	-0.698151	-0.0178589
2783.01	-0.000375366	0.00478577
2783.49	0.000469971	0.00721069
2783.95	-0.697845	-0.017865
2784.41	0.000473022	0.00477997
2784.89	-0.000238037	0.00721588
2785.35	-0.697723	-0.017865
2785.81	-0.000424194	0.00478882
2786.29	-0.000302124	0.00721558
2786.75	-0.698853	-0.0178497
2787.21	0.000332642	0.00479065
2787.69	0.000201416	0.00721771
2788.15	-0.698181	-0.0178497
2788.61	0.000183105	0.00479065
2789.09	-0.000222778	0.00721802
2789.55	-0.69809	-0.0178558
2790.01	-0.000198364	0.00479126
2790.49	-0.000473022	0.00722076
2790.95	-0.698059	-0.0178619
2791.41	0.000189209	0.00479553
2791.89	0.000210571	0.00722107
2792.35	-0.698853	-0.0178467
2792.81	0.000305176	0.00479095
2793.29	0.000531006	0.00721649
2793.75	-0.697632	-0.0178528
2794.21	0.000643921	0.00479309
2794.69	-0.000180054	0.00722015
2795.15	-0.697693	-0.0178436
2795.61	-0.000415039	0.0047995
2796.09	0.000686646	0.0072168
2796.55	-0.697784	-0.0178406
2797.01	-0.000454712	0.00479797
2797.49	-0.000531006	0.00722351
2797.95	-0.698547	-0.0178375
2798.41	-0.00010376	0.00480164
2798.89	-0.000415039	0.00722198
2799.35	-0.697754	-0.0178467
2799.81	0.000323486	0.00479767
2800.29	9.76562e-05	0.00722168
2800.75	-0.697815	-0.0178436
2801.21	-0.000216675	0.00480133
2801.69	0.000579834	0.00721527
2802.15	-0.698914	-0.0178375
2802.61	-0.000479126	0.0048056
2803.09	-3.05176e-05	0.00721832
2803.55	-0.6987	-0.0178406
2804.01	0.000268555	0.00480316
2804.49	-0.000143433	0.00721924
2804.95	-0.699005	-0.0178345
2805.41	0.000112915	0.00480499
2805.89	-0.000457764	0.00722229
2806.35	-0.698303	-0.0178375
2806.81	0.000106812	0.00480072
2807.29	-0.00027771	0.0072168
2807.75	-0.698608	-0.0178375
2808.21	0.000744629	0.00480133
2808.69	-0.000222778	0.0072226
2809.15	-0.697693	-0.0178375
2809.61	-0.000146484	0.00480927
2810.09	-0.000518799	0.00722198
2810.55	-0.697693	-0.0178375
2811.01	-0.000344849	0.00481018
2811.49	0.000125122	0.00721649
2811.95	-0.697998	-0.0178314
2812.41	0.000796509	0.00480316
2812.89	-8.54492e-05	0.00721619
2813.35	-0.698364	-0.0178253
2813.81	0.000125122	0.00480438
2814.29	-0.000335693	0.00722015
2814.75	-0.698914	-0.0178314
2815.21	0.000753784	0.00480408
2815.69	0.000610352	0.00721619
2816.15	-0.698547	-0.0178284
2816.61	-0.000424194	0.00481262
2817.09	-0.000378418	0.00721863
2817.55	-0.698334	-0.0178253
2818.01	-0.000479126	0.00481293
2818.49	0.000579834	0.00721313
2818.95	-0.698669	-0.0178192
2819.41	0.000762939	0.00480591
2819.89	0.000436401	0.00721619
2820.35	-0.6987	-0.0178314
2820.81	0.000753784	0.00480743
2821.29	0.000125122	0.0072171
2821.75	-0.697876	-0.0178345
2822.21	-0.000302124	0.00481628
2822.69	0.000717163	0.00721222
2823.15	-0.698792	-0.0178162
2823.61	0.000622559	0.00480743
2824.09	0.000454712	0.00721191
2824.55	-0.697754	-0.0178284
2825.01	0.000714111	0.00480896
2825.49	0.0006073	0.0072113
2825.95	-0.699005	-0.0178223
2826.41	-0.00038147	0.0048175
2826.89	5.18799e-05	0.00721619
2827.35	-0.698273	-0.0178192
2827.81	-0.000500488	0.0048175
2828.29	0.000387573	0.00721649
2828.75	-0.698547	-0.0178345
2829.21	-0.000186157	0.00481506
2829.69	-0.000244141	0.00721375
2830.15	-0.698242	-0.0178253
2830.61	-0.000418091	0.00481812
2831.09	-0.000308228	0.00721619
2831.55	-0.698425	-0.0178284
2832.01	0.000646973	0.00481232
2832.49	0.000415039	0.007211
2832.95	-0.698578	-0.0178162
2833.41	0.000793457	0.00481049
2833.89	-7.62939e-05	0.00721039
2834.35	-0.697998	-0.0178284
2834.81	0.000601196	0.00481079
2835.29	0.000579834	0.00720917
2835.75	-0.69812	-0.0178314
2836.21	-0.000369263	0.00481781
2836.69	-0.000418091	0.00721527
2837.15	-0.698761	-0.0178192
2837.61	0.000750732	0.00481323
2838.09	-0.000549316	0.00721466
2838.55	-0.697784	-0.0178253
2839.01	0.000683594	0.00481232
2839.49	0.000534058	0.00720581
2839.95	-0.698761	-0.0178101
2840.41	-0.000408936	0.00482147
2840.89	-0.000152588	0.00721191
2841.35	-0.698669	-0.0178101
2841.81	0.00071106	0.00481476
2842.29	-0.000515747	0.00721161
2842.75	-0.698761	-0.0178223
2843.21	-0.00039978	0.00482208
2843.69	-0.000579834	0.00721161
2844.15	-0.698578	-0.0178131
2844.61	-0.000259399	0.00481842
2845.09	0.000592041	0.00720459
2845.55	-0.697906	-0.0178223
2846.01	-8.23975e-05	0.00481812
2846.49	-0.000320435	0.0072113
2846.95	-0.697632	-0.0178131
2847.41	0.000619507	0.00481476
2847.89	0.000637817	0.00720459
2848.35	-0.698364	-0.0178101
2848.81	0.000750732	0.00481476
2849.29	-0.000283813	0.00720398
2849.75	-0.698883	-0.0178101
2850.21	-3.05176e-05	0.00482178
2850.69	-0.000527954	0.00720978
2851.15	-0.698822	-0.0178101
2851.61	0.000613403	0.00481476
2852.09	-0.000131226	0.00720551
2852.55	-0.698639	-0.0178101
2853.01	-0.000460815	0.00482422
2853.49	-0.000283813	0.00720428
2853.95	-0.698395	-0.0178223
2854.41	-0.000292969	0.00482605
2854.89	0.000158691	0.00720642
2855.35	-0.697876	-0.0178101
2855.81	-7.32422e-05	0.00482391
2856.29	0.000238037	0.00720093
2856.75	-0.697632	-0.017807
2857.21	-0.000354004	0.0048233
2857.69	-0.000302124	0.00720795
2858.15	-0.698395	-0.0178162
2858.61	0.00072937	0.00481842
2859.09	-0.000546265	0.00720459
2859.55	-0.697784	-0.0178101
2860.01	-0.000241089	0.00482239
2860.49	0.000292969	0.00720367
2860.95	-0.698914	-0.017807
2861.41	-1.52588e-05	0.0048233
2861.89	3.05176e-05	0.00720001
2862.35	-0.698059	-0.0178162
2862.81	0.000195313	0.00482239
2863.29	-0.000524902	0.0072049
2863.75	-0.698578	-0.0178131
2864.21	0.000256348	0.00482147
2864.69	-0.000183105	0.0072049
2865.15	-0.697723	-0.0178101
2865.61	-0.000338745	0.00482483
2866.09	0.00055542	0.00719818
2866.55	-0.698639	-0.0178009
2867.01	-0.000411987	0.00482758
2867.49	-0.000512695	0.00720398
2867.95	-0.698303	-0.0178009
2868.41	-0.000375366	0.00482727
2868.89	-0.00017395	0.00720276
2869.35	-0.698639	-0.017807
2869.81	0.000579834	0.00482605
2870.29	-0.000509644	0.00720245
2870.75	-0.697937	-0.0178131
2871.21	0.000402832	0.00482483
2871.69	-0.000299072	0.00719818
2872.15	-0.698944	-0.0178101
2872.61	0.000656128	0.00482239
2873.09	0.000457764	0.0071933
2873.55	-0.698425	-0.0177948
2874.02	-0.000360107	0.00483032
2874.5	0.000662231	0.00719299
2874.96	-0.697876	-0.0178101
2875.42	-4.57764e-05	0.00482452
2875.9	0.000201416	0.00719757
2876.36	-0.698883	-0.0178009
2876.82	0.000738525	0.0048233
2877.3	0.000488281	0.00719269
2877.76	-0.697632	-0.017807
2878.22	0.000286865	0.00482483
2878.7	0.000198364	0.00719635
2879.16	-0.697845	-0.017804
2879.62	0.000564575	0.00482544
2880.1	0.000292969	0.00719116
2880.56	-0.69812	-0.017804
2881.02	-9.15527e-05	0.00482666
2881.5	0.000247192	0.00719177
2881.96	-0.698029	-0.0177979
2882.42	-0.000128174	0.00483246
2882.9	-0.000466919	0.00719818
2883.36	-0.698822	-0.0177979
2883.82	0.000476074	0.00482819
2884.3	0.000579834	0.00718994
2884.76	-0.697662	-0.017804
2885.22	-3.66211e-05	0.00483398
2885.7	-0.000170898	0.00719666
2886.16	-0.698883	-0.0177917
2886.62	-0.000335693	0.00483398
2887.1	0.000494385	0.00718933
2887.56	-0.69812	-0.017804
2888.02	0.000540161	0.00482849
2888.5	-0.000427246	0.00719452
2888.96	-0.6987	-0.0177917
2889.42	0.000531006	0.00482666
2889.9	-0.000564575	0.0071936
2890.36	-0.697815	-0.0177979
2890.82	-0.000286865	0.00483612
2891.3	0.000469971	0.0071875
2891.76	-0.698761	-0.0177856
2892.22	0.000753784	0.00482697
2892.7	0.000546265	0.00718719
2893.16	-0.698975	-0.0177948
2893.62	-0.000296021	0.00483551
2894.1	-0.00038147	0.00719238
2894.56	-0.697662	-0.0177979
2895.02	0.000784302	0.00482971
2895.5	0.000646973	0.00718567
2895.96	-0.698853	-0.0177948
2896.42	-0.000454712	0.00483551
2896.9	-0.000506592	0.00719238
2897.36	-0.698486	-0.0177979
2897.82	-0.000100708	0.00483246
2898.3	-0.000421143	0.00719269
2898.76	-0.698547	-0.0177887
2899.22	-0.00043335	0.00483612
2899.7	0.000244141	0.00718842
2900.16	-0.697693	-0.0177948
2900.62	0.000531006	0.00483368
2901.1	-0.000189209	0.00718719
2901.56	-0.697784	-0.0177948
2902.02	-0.000363159	0.00482391
2902.5	-0.000473022	0.00714111
2902.96	-0.697723	-0.0177399
2903.42	-0.000405884	0.00476898
2903.9	0.000588989	0.00708893
2904.36	-0.697723	-0.0177246
2904.82	-0.000405884	0.00475433
2905.3	-0.000592041	0.00709412
2905.76	-0.69812	-0.017804
2906.22	0.000354004	0.00475494
2906.7	0.000646973	0.00707642
2907.16	-0.698914	-0.017807
2907.62	0.000106812	0.00475861
2908.1	-0.000189209	0.00707886
2908.56	-0.698761	-0.0178162
2909.02	0.000494385	0.00475708
2909.5	-0.000418091	0.00708344
2909.96	-0.698517	-0.017807
2910.42	0.000732422	0.0047583
2910.9	0.000320435	0.00707611
2911.36	-0.698914	-0.017804
2911.82	0.000546265	0.00476105
2912.3	0.00050354	0.0070816
2912.76	-0.697784	-0.0178192
2913.22	0.000469971	0.00476868
2913.7	-1.83105e-05	0.00712921
2914.16	-0.697632	-0.0178772
2914.62	0.000189209	0.00477753
2915.1	0.000671387	0.00712585
2915.56	-0.698181	-0.017868
2916.02	0.00027771	0.00478271
2916.5	-0.000125122	0.00713654
2916.96	-0.697815	-0.0178741
2917.42	0.000616455	0.00478241
2917.9	0.000189209	0.00713257
2918.36	-0.69809	-0.0178528
2918.82	6.10352e-06	0.00478699
2919.3	-0.000491333	0.0071402
2919.76	-0.697632	-0.0178619
2920.22	0.000259399	0.00479248
2920.7	0.000524902	0.00713959
2921.16	-0.69812	-0.0178619
2921.62	-0.000485229	0.00479797
2922.1	-0.000140381	0.00714417
2922.56	-0.697937	-0.0178589
2923.02	0.000476074	0.00479736
2923.5	-0.000180054	0.00714661
2923.96	-0.698822	-0.0178406
2924.42	-0.000311279	0.00480438
2924.9	-0.000314331	0.00714661
2925.36	-0.697784	-0.0178497
2925.82	-0.000445557	0.00480774
2926.3	-3.96729e-05	0.00715118
2926.76	-0.697937	-0.0178406
2927.22	-0.000396729	0.00480988
2927.7	0.000476074	0.00714447
2928.16	-0.698914	-0.0178345
2928.62	0.000756836	0.00480499
2929.1	0.000161743	0.00714996
2929.56	-0.698334	-0.0178406
2930.02	-0.000259399	0.00481537
2930.5	8.8501e-05	0.00714844
2930.96	-0.697784	-0.0178345
2931.42	-0.000408936	0.0048172
2931.9	-9.46045e-05	0.00714935
2932.36	-0.697937	-0.0178345
2932.82	-0.000427246	0.00481873
2933.3	-0.000497437	0.00715515
2933.76	-0.698944	-0.0178284
2934.22	-0.000445557	0.00482056
2934.7	-0.000372314	0.00715515
2935.16	-0.698029	-0.0178314
2935.62	-0.000448608	0.00482117
2936.1	0.000723267	0.00715027
2936.56	-0.697784	-0.0178284
2937.02	-0.000341797	0.00482391
2937.5	0.000393677	0.00715393
2937.96	-0.69809	-0.0178284
2938.42	0.000704956	0.0048175
2938.9	0.000588989	0.00715118
2939.36	-0.697693	-0.0178284
2939.82	-0.00020752	0.00482147
2940.3	0.000411987	0.00715271
2940.76	-0.697754	-0.0178253
2941.22	0.00067749	0.00482239
2941.7	0.000216675	0.00715149
2942.16	-0.698792	-0.0178253
2942.62	0.000372314	0.00482117
2943.1	0.00032959	0.00715302
2943.56	-0.698853	-0.0178192
2944.02	0.000314331	0.00482391
2944.5	9.15527e-06	0.00715485
2944.96	-0.698212	-0.0178101
2945.42	-0.000411987	0.00483154
2945.9	6.10352e-06	0.00715515
2946.36	-0.697754	-0.0178223
2946.82	0.000296021	0.00483124
2947.3	0.000540161	0.00715485
2947.76	-0.69873	-0.017804
2948.22	-0.000421143	0.00483246
2948.7	-0.000497437	0.00716034
2949.16	-0.698975	-0.0178101
2949.62	0.000112915	0.00483154
2950.1	-0.000360107	0.00716156
2950.56	-0.698792	-0.0178162
2951.02	0.000698853	0.00482758
2951.5	0.000213623	0.00715302
2951.96	-0.698914	-0.017807
2952.42	0.000552368	0.00483246
2952.9	0.000213623	0.00715454
2953.36	-0.69873	-0.0178131
2953.82	0.000732422	0.0048288
2954.3	0.000387573	0.00715424
2954.76	-0.697906	-0.0178131
2955.22	0.000448608	0.0048291
2955.7	0.000634766	0.00715302
2956.16	-0.698517	-0.0178009
2956.62	-0.000164795	0.00483276
2957.1	-0.000259399	0.00716187
2957.56	-0.698792	-0.017804
2958.02	0.000750732	0.00483185
2958.5	0.000314331	0.00715363
2958.96	-0.698151	-0.0177948
2959.42	-0.000375366	0.00483795
2959.9	-1.83105e-05	0.00715546
2960.36	-0.698822	-0.017804
2960.82	-0.000411987	0.00484161
2961.3	7.93457e-05	0.00715424
2961.76	-0.698883	-0.017807
2962.22	-0.000466919	0.00483734
2962.7	-0.000234985	0.00715942
2963.16	-0.697876	-0.017804
2963.62	-0.000375366	0.00483978
2964.1	-0.000219727	0.00715576
2964.56	-0.697784	-0.0178009
2965.02	0.000714111	0.00483459
2965.5	-0.000497437	0.00715912
2965.96	-0.698914	-0.0177979
2966.42	0.000759888	0.00483551
2966.9	0.000610352	0.00715363
2967.36	-0.698761	-0.0177917
2967.82	6.71387e-05	0.00483673
2968.3	-0.000372314	0.00715607
2968.76	-0.698853	-0.017804
2969.22	-0.000408936	0.00484375
2969.7	0.000479126	0.00714905
2970.16	-0.6987	-0.0177917
2970.62	-0.000436401	0.00484283
2971.1	0.00067749	0.00714966
2971.56	-0.697662	-0.0177979
2972.02	-6.10352e-06	0.00484467
2972.5	-0.000546265	0.00715485
2972.96	-0.697662	-0.0178009
2973.42	0.000695801	0.00483673
2973.9	9.15527e-06	0.00715515
2974.36	-0.698273	-0.0177887
2974.82	-0.000167847	0.00484253
2975.3	0.000634766	0.00714996
2975.76	-0.697968	-0.017804
2976.22	-0.000387573	0.00484558
2976.7	1.2207e-05	0.00715576
2977.16	-0.698853	-0.0177917
2977.62	0.000338745	0.00483795
2978.1	0.000616455	0.00714874
2978.56	-0.697876	-0.0177979
2979.02	0.00050354	0.00483917
2979.5	-9.15527e-05	0.00714996
2979.96	-0.697601	-0.0177948
2980.42	0.00015564	0.00484161
2980.9	-0.000515747	0.00715454
2981.36	-0.698456	-0.0177917
2981.82	0.000564575	0.00483826
2982.3	0.000546265	0.007146
2982.76	-0.698608	-0.0177887
2983.22	0.000674438	0.00484131
2983.7	0.000656128	0.00714661
2984.16	-0.698395	-0.0177826
2984.62	5.49316e-05	0.00484314
2985.1	0.00027771	0.00714569
2985.56	-0.697968	-0.0177917
2986.02	-0.00015564	0.00484833
2986.5	0.000448608	0.00714355
2986.96	-0.698883	-0.0177826
2987.42	-0.00015564	0.00484955
2987.9	0.000628662	0.00714417
2988.36	-0.698364	-0.0177979
2988.82	0.000695801	0.0048407
2989.3	0.000387573	0.00714752
2989.76	-0.698364	-0.0177887
2990.22	0.00072937	0.00484161
2990.7	0.000198364	0.00714478
2991.16	-0.697693	-0.0177979
2991.62	-0.000164795	0.0048468
2992.1	-0.000238037	0.00715149
2992.56	-0.698639	-0.0177887
2993.02	-0.00045166	0.00484802
2993.5	-0.000524902	0.00714935
2993.96	-0.698303	-0.0177948
2994.42	0.000430298	0.00484283
2994.9	-0.000515747	0.00714844
2995.36	-0.698151	-0.0177948
2995.82	0.000744629	0.00484283
2996.3	0.000582886	0.0071402
2996.76	-0.697723	-0.0177917
2997.22	-0.000473022	0.00485138
2997.7	0.000665283	0.00714203
2998.16	-0.698425	-0.0177856
2998.62	-0.000137329	0.00485107
2999.1	0.000656128	0.0071405
2999.56	-0.698181	-0.0177826
3000.02	1.2207e-05	0.0048465
3000.5	-0.000491333	0.00714661
3000.96	-0.697754	-0.0177979
3001.42	-0.000387573	0.00485077
3001.9	-6.40869e-05	0.00713928
3002.36	-0.698364	-0.0177856
3002.82	-0.000259399	0.00484619
3003.3	-0.000463867	0.0071463
3003.76	-0.698761	-0.0177856
3004.22	0.000177002	0.00484772
3004.7	-0.00050354	0.00714539
3005.16	-0.698822	-0.0177887
3005.62	0.000140381	0.0048468
3006.1	-0.00050354	0.00714539
3006.56	-0.697876	-0.0177887
3007.02	0.000628662	0.00484406
3007.5	0.000231934	0.00714386
3007.92	-0.000286865	0.00345551