File: Edgar/20240607/20240607/electrodeposition_pulsed_potential_20240607_C/pulses_2000_to_3000.txt
Time (s)	WE(1).Potential (V)	WE(1).Current (A)
1599.18	-0.698334	-0.0206482
1599.64	0.000363159	0.00333893
1600.12	-0.000344849	0.00752869
1600.58	-0.698822	-0.0185272
1601.04	-0.000518799	0.00411774
1601.52	0.000479126	0.00779114
1601.98	-0.698364	-0.0184082
1602.44	-0.00043335	0.00420044
1602.92	0.000518799	0.00784302
1603.38	-0.697662	-0.0183685
1603.84	0.00032959	0.00422546
1604.32	-0.000216675	0.00786133
1604.78	-0.697784	-0.0183594
1605.24	0.000201416	0.0042395
1605.72	-0.0006073	0.00788574
1606.18	-0.698486	-0.0183411
1606.64	0.00020752	0.00424927
1607.12	-0.000549316	0.00788269
1607.58	-0.697662	-0.0183411
1608.04	0.000567627	0.00425995
1608.52	-0.000549316	0.007901
1608.98	-0.697754	-0.0183319
1609.44	8.54492e-05	0.0042691
1609.92	0.000390625	0.0078949
1610.38	-0.697723	-0.0183319
1610.84	0.000387573	0.00427002
1611.32	0.000302124	0.00790405
1611.78	-0.698853	-0.0183197
1612.24	-0.000314331	0.00428314
1612.72	-0.000317383	0.00791016
1613.18	-0.697754	-0.0183228
1613.64	0.000454712	0.00428101
1614.12	9.15527e-05	0.00789795
1614.58	-0.698517	-0.0183197
1615.04	8.23975e-05	0.00428558
1615.52	-0.000643921	0.00791321
1615.98	-0.698975	-0.0183075
1616.44	-0.000463867	0.0042926
1616.92	0.00020752	0.00790405
1617.38	-0.69812	-0.0183075
1617.84	0.000750732	0.00429138
1618.32	-0.000674438	0.00791016
1618.78	-0.697998	-0.0183044
1619.24	8.8501e-05	0.00429718
1619.72	0.000140381	0.00791626
1620.18	-0.698425	-0.0182953
1620.64	0.000775146	0.0042923
1621.12	0.000320435	0.00791016
1621.58	-0.697754	-0.0183044
1622.04	-0.000262451	0.00430054
1622.52	7.32422e-05	0.00791931
1622.98	-0.698578	-0.0182953
1623.44	5.79834e-05	0.00430603
1623.92	-0.000720215	0.00791321
1624.38	-0.69812	-0.0183136
1624.84	0.000131226	0.00430389
1625.32	-0.000683594	0.00791016
1625.78	-0.698822	-0.0183014
1626.24	0.000396729	0.00430359
1626.72	-0.000201416	0.00791016
1627.18	-0.698669	-0.0182983
1627.64	-0.00043335	0.00431274
1628.12	-0.000375366	0.0079071
1628.58	-0.698456	-0.0182983
1629.04	-0.000231934	0.00430817
1629.52	-5.79834e-05	0.00791321
1629.98	-0.698761	-0.0182922
1630.44	-0.00038147	0.0043161
1630.92	-0.000668335	0.00791626
1631.38	-0.698914	-0.0182922
1631.84	0.000170898	0.00431274
1632.32	0.000213623	0.00791016
1632.78	-0.697662	-0.0182922
1633.24	-0.000421143	0.00431763
1633.72	-0.00057373	0.00791016
1634.18	-0.698822	-0.0182831
1634.64	-0.000424194	0.00432098
1635.12	-0.000198364	0.007901
1635.58	-0.697693	-0.0182892
1636.04	-0.00017395	0.00431885
1636.52	-0.000604248	0.00791016
1636.98	-0.697845	-0.0182953
1637.44	-0.000244141	0.00432312
1637.92	6.71387e-05	0.00791016
1638.38	-0.697632	-0.0182892
1638.84	0.000741577	0.00431854
1639.32	0.000524902	0.00790405
1639.78	-0.698853	-0.0182861
1640.24	0.000827026	0.00431885
1640.72	0.000366211	0.00791016
1641.18	-0.698212	-0.018277
1641.64	0.000460815	0.00432129
1642.12	-0.000485229	0.00791321
1642.58	-0.698425	-0.0182739
1643.04	0.000762939	0.00432159
1643.52	0.000405884	0.0079071
1643.98	-0.69812	-0.0182861
1644.44	-0.000131226	0.00433014
1644.92	-0.000708008	0.00791016
1645.38	-0.697754	-0.0182831
1645.84	0.000164795	0.00432343
1646.32	-0.000531006	0.0079071
1646.78	-0.697906	-0.018277
1647.24	-0.000390625	0.00433289
1647.72	-3.66211e-05	0.0079071
1648.18	-0.697601	-0.01828
1648.64	-0.000314331	0.00433472
1649.12	-0.00010376	0.0079071
1649.58	-0.697937	-0.018277
1650.04	0.000210571	0.0043335
1650.52	-0.000692749	0.0079071
1650.98	-0.69809	-0.01828
1651.44	-0.000479126	0.00433746
1651.92	-0.000302124	0.00791016
1652.38	-0.698944	-0.0182648
1652.84	3.05176e-06	0.0043335
1653.32	0.000268555	0.00789795
1653.78	-0.698792	-0.018277
1654.24	0.000744629	0.00433167
1654.72	0.000494385	0.0078949
1655.18	-0.6987	-0.018277
1655.64	0.000750732	0.00433319
1656.12	6.10352e-05	0.00790405
1656.58	-0.698242	-0.018277
1657.04	0.000848389	0.0043338
1657.52	0.000592041	0.007901
1657.98	-0.698853	-0.0182678
1658.44	0.000772095	0.00433319
1658.92	-0.000210571	0.00789185
1659.38	-0.698547	-0.018277
1659.84	-7.01904e-05	0.0043399
1660.32	0.000473022	0.00788574
1660.78	-0.697754	-0.0182739
1661.24	0.000149536	0.00434113
1661.72	-0.000515747	0.00788574
1662.18	-0.698578	-0.0182678
1662.64	0.000445557	0.00433624
1663.12	-0.00072937	0.0078949
1663.58	-0.698822	-0.0182587
1664.04	-0.000253296	0.00434631
1664.52	0.000448608	0.00788574
1664.98	-0.698639	-0.0182648
1665.44	-0.000177002	0.00434845
1665.92	0.000518799	0.00788879
1666.38	-0.697845	-0.0182587
1666.84	-1.2207e-05	0.0043457
1667.32	0.000527954	0.00788269
1667.78	-0.697876	-0.0182648
1668.24	-0.000112915	0.00434479
1668.72	-0.000662231	0.00788574
1669.18	-0.698761	-0.0182587
1669.64	-0.000198364	0.00434845
1670.12	-0.000588989	0.00788879
1670.58	-0.698029	-0.0182709
1671.04	0.000576782	0.00434479
1671.52	-0.000411987	0.00788574
1671.98	-0.697815	-0.0182648
1672.44	-5.49316e-05	0.00435211
1672.92	0.000515747	0.00788574
1673.38	-0.698212	-0.0182587
1673.84	-0.000476074	0.00435486
1674.32	0.000604248	0.00787964
1674.78	-0.698883	-0.0182526
1675.24	-0.000430298	0.00435608
1675.72	-0.000704956	0.00788879
1676.18	-0.698364	-0.0182648
1676.64	-0.000137329	0.00435333
1677.12	-0.000646973	0.00787964
1677.58	-0.697876	-0.0182617
1678.04	-7.01904e-05	0.00435455
1678.52	-0.000662231	0.00788574
1678.98	-0.698639	-0.0182587
1679.44	-2.13623e-05	0.00435303
1679.92	0.000317383	0.00787354
1680.38	-0.697906	-0.0182617
1680.84	0.000762939	0.00435211
1681.32	0.000497437	0.00787659
1681.78	-0.698181	-0.0182587
1682.24	-0.000402832	0.00436218
1682.72	0.000289917	0.00787659
1683.18	-0.697815	-0.0182465
1683.64	-0.000302124	0.00436157
1684.12	-6.71387e-05	0.00787659
1684.58	-0.69812	-0.0182526
1685.04	0.000820923	0.00435791
1685.52	0.000164795	0.00787354
1685.98	-0.698853	-0.0182495
1686.44	-0.00038147	0.00436554
1686.92	-0.000384521	0.00787964
1687.38	-0.698853	-0.0182434
1687.84	-2.74658e-05	0.00436462
1688.32	0.000332642	0.00787048
1688.78	-0.698669	-0.0182373
1689.24	0.000732422	0.00435974
1689.72	-0.000405884	0.00787048
1690.18	-0.698517	-0.0182556
1690.64	0.000524902	0.00435974
1691.12	-0.000292969	0.00787659
1691.58	-0.698669	-0.0182373
1692.04	-0.000430298	0.00436676
1692.52	-8.23975e-05	0.00787964
1692.98	-0.697723	-0.0182465
1693.44	0.000109863	0.00436371
1693.92	0.000497437	0.00787354
1694.38	-0.698975	-0.0182465
1694.84	-0.00010376	0.00436951
1695.32	-0.000680542	0.00786743
1695.78	-0.698395	-0.0182404
1696.24	0.000775146	0.0043634
1696.72	0.000378418	0.00786438
1697.18	-0.697845	-0.0182434
1697.64	0.000717163	0.00436646
1698.12	-0.00067749	0.00787048
1698.58	-0.698547	-0.0182495
1699.04	-0.00039978	0.00437378
1699.52	0.000396729	0.00786133
1699.98	-0.698303	-0.0182495
1700.44	0.000247192	0.00437103
1700.92	0.000231934	0.00785217
1701.38	-0.697815	-0.0182495
1701.84	0.000564575	0.00437042
1702.32	3.05176e-05	0.00786438
1702.78	-0.697754	-0.0182434
1703.24	0.000640869	0.00437256
1703.72	0.000396729	0.00786133
1704.18	-0.69809	-0.0182343
1704.64	3.66211e-05	0.00437561
1705.12	0.000234985	0.00786438
1705.58	-0.6987	-0.0182343
1706.04	0.000613403	0.00436951
1706.52	0.000405884	0.00785217
1706.98	-0.698151	-0.0182343
1707.44	-0.000454712	0.00437927
1707.92	-7.62939e-05	0.00785217
1708.38	-0.698181	-0.0182404
1708.84	0.000164795	0.00437805
1709.32	-0.000317383	0.00785217
1709.78	-0.698578	-0.0182434
1710.24	0.000765991	0.00437256
1710.72	-0.000561523	0.00785217
1711.18	-0.69754	-0.0182404
1711.64	0.00072937	0.00437286
1712.12	-7.32422e-05	0.00784302
1712.58	-0.697693	-0.0182373
1713.04	0.000479126	0.00437714
1713.52	-0.000512695	0.00785828
1713.98	-0.698029	-0.0182251
1714.44	0.000350952	0.00437561
1714.92	-0.000372314	0.00785828
1715.38	-0.698639	-0.0182281
1715.84	4.57764e-05	0.00437958
1716.32	0.000476074	0.00784607
1716.78	-0.697693	-0.0182343
1717.24	-0.00032959	0.00438538
1717.72	-0.000656128	0.00784912
1718.18	-0.698029	-0.0182281
1718.64	0.000772095	0.00437866
1719.12	-0.000756836	0.00785217
1719.58	-0.698029	-0.0182281
1720.04	0.000628662	0.00438263
1720.52	-0.00065918	0.00784912
1720.98	-0.698639	-0.018222
1721.44	-0.000442505	0.00438751
1721.92	0.000473022	0.00784607
1722.38	-0.698059	-0.0182251
1722.84	0.000524902	0.00438263
1723.32	-0.00012207	0.00783386
1723.78	-0.697998	-0.0182312
1724.24	-0.000369263	0.00438751
1724.72	-0.000744629	0.00784302
1725.18	-0.697784	-0.0182312
1725.64	0.000799561	0.0043808
1726.12	-0.000686646	0.00783997
1726.58	-0.698578	-0.0182281
1727.04	-0.000418091	0.00439056
1727.52	0.000521851	0.00784302
1727.98	-0.698853	-0.0182312
1728.44	0.000665283	0.00438202
1728.92	-0.000234985	0.00784302
1729.38	-0.697662	-0.0182251
1729.84	-0.000213623	0.00438843
1730.32	0.000534058	0.00783386
1730.78	-0.698792	-0.018219
1731.24	0.000384521	0.00439056
1731.72	-0.000259399	0.00783997
1732.18	-0.698761	-0.018219
1732.64	-0.00032959	0.0043924
1733.12	-0.000158691	0.00783997
1733.58	-0.697906	-0.018219
1734.04	-0.000436401	0.00439514
1734.52	0.000460815	0.00783081
1734.98	-0.697662	-0.018222
1735.44	0.000500488	0.00438934
1735.92	0.000628662	0.00783386
1736.38	-0.698029	-0.0182251
1736.84	0.000814819	0.00438934
1737.32	0.000317383	0.00782471
1737.78	-0.697662	-0.0182251
1738.24	0.000460815	0.00438995
1738.72	-0.000689697	0.00783081
1739.18	-0.697876	-0.018219
1739.64	-0.00038147	0.0043985
1740.12	0.000476074	0.00782776
1740.58	-0.697906	-0.0182251
1741.04	0.000546265	0.00439178
1741.52	-0.000515747	0.00783691
1741.98	-0.698059	-0.0182129
1742.44	3.05176e-06	0.00440033
1742.92	-0.000119019	0.00782471
1743.38	-0.698853	-0.0182068
1743.84	-0.000210571	0.00440033
1744.32	-0.000579834	0.00783081
1744.78	-0.698883	-0.0182098
1745.24	-0.000283813	0.00439758
1745.72	-0.00022583	0.00782471
1746.18	-0.698822	-0.0182129
1746.64	0.000741577	0.00439392
1747.12	0.000222778	0.00782471
1747.58	-0.697815	-0.018219
1748.04	7.32422e-05	0.00440247
1748.52	0.000418091	0.00782776
1748.98	-0.698456	-0.0182068
1749.44	0.000683594	0.00439606
1749.92	-0.000689697	0.0078186
1750.38	-0.698792	-0.0182159
1750.84	-0.000436401	0.00440491
1751.32	0.000402832	0.00782471
1751.78	-0.697815	-0.0182129
1752.24	0.000756836	0.00439789
1752.72	-0.000686646	0.00782166
1753.18	-0.69873	-0.0182129
1753.64	-0.000183105	0.00440674
1754.12	0.00050354	0.00780945
1754.58	-0.698395	-0.0182129
1755.04	-0.000180054	0.00440308
1755.52	0.000424194	0.00781555
1755.98	-0.697968	-0.018219
1756.44	3.66211e-05	0.00440338
1756.92	-0.000320435	0.0078186
1757.38	-0.698608	-0.0181976
1757.84	0.000247192	0.00440521
1758.32	0.000357056	0.0078186
1758.78	-0.698029	-0.0182129
1759.24	0.000180054	0.00440948
1759.72	-0.000463867	0.00780945
1760.18	-0.698578	-0.0182037
1760.64	-0.000201416	0.0044101
1761.12	-0.000369263	0.0078186
1761.58	-0.697632	-0.0182037
1762.04	0.000653076	0.0044046
1762.52	0.00050354	0.0078064
1762.98	-0.697968	-0.0182007
1763.44	-0.00045166	0.00441315
1763.92	-0.000656128	0.0078125
1764.38	-0.698761	-0.0182037
1764.84	0.000131226	0.00440613
1765.32	-0.000692749	0.00780945
1765.78	-0.697723	-0.0182098
1766.24	0.000320435	0.00441162
1766.72	-0.000268555	0.00780029
1767.18	-0.698395	-0.0182007
1767.64	0.000164795	0.00440948
1768.12	-0.000686646	0.00780334
1768.58	-0.697968	-0.0182098
1769.04	-0.000366211	0.00441467
1769.52	0.000463867	0.0078064
1769.98	-0.698914	-0.0181946
1770.44	-0.000500488	0.0044165
1770.92	-0.000283813	0.00779724
1771.38	-0.698883	-0.0181976
1771.84	-0.000442505	0.00441711
1772.32	-0.000262451	0.00779724
1772.78	-0.698944	-0.0182037
1773.24	0.000119019	0.00441589
1773.72	0.000283813	0.00780029
1774.18	-0.698578	-0.0181946
1774.64	-0.000411987	0.00441803
1775.12	-0.000692749	0.00780029
1775.58	-0.698944	-0.0181915
1776.04	0.000344849	0.00441223
1776.52	7.62939e-05	0.00779114
1776.98	-0.697662	-0.0181976
1777.44	0.000756836	0.00441284
1777.92	0.000375366	0.00779419
1778.38	-0.697571	-0.0182007
1778.84	0.000448608	0.00441772
1779.32	-0.000527954	0.00780029
1779.78	-0.697632	-0.0181976
1780.24	-0.000454712	0.00442383
1780.72	-7.01904e-05	0.00780334
1781.18	-0.697906	-0.0181915
1781.64	3.96729e-05	0.00442535
1782.12	-8.54492e-05	0.00780334
1782.58	-0.698212	-0.0181915
1783.04	0.000354004	0.00441895
1783.52	4.27246e-05	0.00779724
1783.98	-0.698914	-0.0181915
1784.44	-0.00027771	0.00442352
1784.92	0.000463867	0.00779419
1785.38	-0.698517	-0.0181915
1785.84	-0.000418091	0.00442749
1786.32	0.000109863	0.00778503
1786.78	-0.698151	-0.0181885
1787.24	0.000512695	0.00442657
1787.72	0.000320435	0.00779419
1788.18	-0.698853	-0.0181885
1788.64	0.000726318	0.00442261
1789.12	0.000360107	0.00778503
1789.58	-0.697723	-0.0181946
1790.04	-0.000421143	0.00442963
1790.52	-0.000546265	0.00778809
1790.98	-0.697754	-0.0181854
1791.44	0.00050354	0.00442261
1791.92	-0.00067749	0.00778809
1792.38	-0.697662	-0.0181885
1792.84	9.76562e-05	0.00443115
1793.32	-0.000152588	0.00779114
1793.78	-0.698792	-0.0181763
1794.24	-0.000164795	0.0044278
1794.72	0.000183105	0.00778198
1795.18	-0.698029	-0.0181763
1795.64	0.00043335	0.00442535
1796.12	0.000308228	0.00777283
1796.58	-0.698212	-0.0181854
1797.04	0.000549316	0.00442688
1797.52	0.000402832	0.00778198
1797.98	-0.698883	-0.0181793
1798.44	0.000762939	0.00442535
1798.92	0.000473022	0.00778809
1799.38	-0.698822	-0.0181793
1799.84	0.000415039	0.00442688
1800.32	0.000537109	0.00777893
1800.78	-0.697662	-0.0181885
1801.24	-7.01904e-05	0.00443176
1801.72	0.000189209	0.00777588
1802.18	-0.698364	-0.0181854
1802.64	-0.000424194	0.00443695
1803.12	-0.000198364	0.00777283
1803.58	-0.698792	-0.0181702
1804.04	0.000588989	0.00443573
1804.52	-0.000726318	0.00778198
1804.98	-0.69809	-0.0181915
1805.44	3.05176e-06	0.00443604
1805.92	0.000491333	0.00777893
1806.38	-0.697937	-0.0181763
1806.84	0.000491333	0.00443604
1807.32	-0.000622559	0.00777283
1807.78	-0.697876	-0.0181763
1808.24	-9.15527e-05	0.00443695
1808.72	0.00038147	0.00776978
1809.18	-0.697998	-0.0181854
1809.64	-0.000421143	0.00444244
1810.12	0.000466919	0.00776672
1810.58	-0.698761	-0.0181793
1811.04	-0.000402832	0.00444214
1811.52	0.000390625	0.00777588
1811.98	-0.697968	-0.0181885
1812.44	0.000128174	0.00443848
1812.92	0.000253296	0.00777893
1813.38	-0.697998	-0.0181854
1813.84	0.000482178	0.00443787
1814.32	-0.000469971	0.00777893
1814.78	-0.698822	-0.0181732
1815.24	0.000744629	0.00444
1815.72	-0.000531006	0.00776672
1816.18	-0.698883	-0.0181702
1816.64	-0.000326538	0.00444641
1817.12	0.000488281	0.00776672
1817.58	-0.698578	-0.0181671
1818.04	0.000732422	0.00444031
1818.52	-0.000167847	0.00776367
1818.98	-0.697723	-0.0181763
1819.44	0.0006073	0.00444244
1819.92	0.000305176	0.00776062
1820.38	-0.697906	-0.0181763
1820.84	-0.000326538	0.00444458
1821.32	0.000372314	0.00777588
1821.78	-0.698334	-0.0181671
1822.24	-0.000372314	0.00444824
1822.72	0.000289917	0.00776672
1823.18	-0.698059	-0.0181732
1823.64	-0.000286865	0.00444794
1824.12	0.000527954	0.00776367
1824.58	-0.69873	-0.0181427
1825.04	0.000112915	0.00444153
1825.52	-0.000543213	0.00776062
1825.98	-0.698792	-0.0181641
1826.44	0.000842285	0.00443787
1826.92	-6.40869e-05	0.00774536
1827.38	-0.698395	-0.0181793
1827.84	0.00065918	0.00444061
1828.32	0.000512695	0.00774841
1828.78	-0.697937	-0.0181793
1829.24	0.000473022	0.00443817
1829.72	-0.00010376	0.00776062
1830.18	-0.698792	-0.0181641
1830.64	0.000601196	0.00443878
1831.12	0.000509644	0.00774536
1831.58	-0.697693	-0.0181763
1832.04	-0.000497437	0.00444824
1832.52	0.000531006	0.00774841
1832.98	-0.697845	-0.0181732
1833.44	0.000430298	0.00444183
1833.92	-0.000662231	0.00774536
1834.38	-0.698456	-0.0181732
1834.84	0.000201416	0.00444519
1835.32	-0.000662231	0.00775146
1835.78	-0.698639	-0.0181702
1836.24	-0.000228882	0.00444977
1836.72	5.49316e-05	0.00775146
1837.18	-0.697723	-0.0181793
1837.64	0.000689697	0.00445007
1838.12	-0.00071106	0.00774536
1838.58	-0.6987	-0.018161
1839.04	0.00032959	0.00445099
1839.52	-0.000567627	0.00775452
1839.98	-0.697845	-0.0181763
1840.44	-0.000274658	0.004453125
1840.92	0.000497437	0.00774231
1841.38	-0.697815	-0.0181702
1841.84	0.000341797	0.004453125
1842.32	-0.000692749	0.00775146
1842.78	-0.698242	-0.018161
1843.24	5.49316e-05	0.0044574
1843.72	-0.000717163	0.00774536
1844.18	-0.69809	-0.0181671
1844.64	-0.000338745	0.0044577
1845.12	-0.000518799	0.00773926
1845.58	-0.697601	-0.0181641
1846.04	0.000692749	0.0044516
1846.52	-0.000357056	0.00775146
1846.98	-0.697845	-0.0181671
1847.44	-0.000448608	0.00446014
1847.92	-0.000662231	0.00774841
1848.38	-0.698853	-0.018161
1848.84	0.000738525	0.00445251
1849.32	3.96729e-05	0.00773621
1849.78	-0.698395	-0.0181641
1850.24	-3.05176e-06	0.00446075
1850.72	0.000512695	0.00773621
1851.18	-0.697784	-0.0181671
1851.64	0.000192261	0.0044577
1852.12	-0.00038147	0.00774536
1852.58	-0.698242	-0.018161
1853.04	-0.000332642	0.00446411
1853.52	0.000320435	0.00773926
1853.98	-0.697968	-0.018161
1854.44	0.000314331	0.0044635
1854.92	-0.000738525	0.00773315
1855.38	-0.698303	-0.0181519
1855.84	0.000790405	0.00445831
1856.32	0.00038147	0.00773315
1856.78	-0.698334	-0.0181641
1857.24	0.00055542	0.00445953
1857.72	-0.000595093	0.00773621
1858.18	-0.6987	-0.018161
1858.64	0.000802612	0.00446045
1859.12	-0.000106812	0.0077301
1859.58	-0.697998	-0.0181671
1860.04	0.000811768	0.00446381
1860.52	-0.000439453	0.00772705
1860.98	-0.697906	-0.018158
1861.44	0.000109863	0.00446472
1861.92	-0.000125122	0.00773315
1862.38	-0.698944	-0.0181519
1862.84	0.00071106	0.0044635
1863.32	0.000463867	0.0077301
1863.78	-0.697693	-0.018161
1864.24	-0.000244141	0.00447144
1864.72	-0.000531006	0.00773926
1865.18	-0.698639	-0.0181519
1865.64	-0.000424194	0.0044696
1866.12	0.000213623	0.007724
1866.58	-0.698334	-0.0181488
1867.04	-7.01904e-05	0.00447205
1867.52	-0.00045166	0.0077301
1867.98	-0.698395	-0.0181458
1868.44	0.000595093	0.00446869
1868.92	0.000521851	0.00772705
1869.38	-0.698822	-0.0181458
1869.84	-0.000302124	0.00447266
1870.32	0.00032959	0.00772705
1870.78	-0.698029	-0.0181427
1871.24	-0.000378418	0.00447662
1871.72	-0.000668335	0.0077301
1872.18	-0.697998	-0.0181519
1872.64	-0.000183105	0.00447662
1873.12	0.00020752	0.0077301
1873.58	-0.698944	-0.0181458
1874.04	-0.000354004	0.00447754
1874.52	-0.000393677	0.0077301
1874.98	-0.697906	-0.0181488
1875.44	-0.000424194	0.00447876
1875.92	0.000567627	0.00772705
1876.38	-0.698578	-0.0181458
1876.84	0.000784302	0.0044754
1877.32	-0.000653076	0.00772095
1877.78	-0.698853	-0.0181396
1878.24	-0.000341797	0.00447906
1878.72	0.000372314	0.00772095
1879.18	-0.697784	-0.0181488
1879.64	0.000628662	0.00447327
1880.12	-0.000646973	0.007724
1880.58	-0.698853	-0.0181366
1881.04	7.01904e-05	0.0044809
1881.52	0.000482178	0.0077179
1881.98	-0.697754	-0.0181488
1882.44	-0.000408936	0.00447906
1882.92	-0.000668335	0.0077179
1883.38	-0.697693	-0.0181488
1883.84	0.000564575	0.00447815
1884.32	2.13623e-05	0.00772705
1884.78	-0.698975	-0.0181366
1885.24	-0.000152588	0.00448425
1885.72	-0.000640869	0.00771484
1886.18	-0.698883	-0.0181335
1886.64	2.13623e-05	0.00448395
1887.12	-0.000338745	0.007724
1887.58	-0.698395	-0.0181396
1888.04	-0.000421143	0.00448212
1888.52	0.000463867	0.00771179
1888.98	-0.697723	-0.0181396
1889.44	-0.000375366	0.0044873
1889.92	-0.000521851	0.00771179
1890.38	-0.698334	-0.0181396
1890.84	-0.000253296	0.00448792
1891.32	-0.000640869	0.00770874
1891.78	-0.698151	-0.0181305
1892.24	0.000100708	0.00448303
1892.72	-0.00067749	0.0077179
1893.18	-0.698608	-0.0181305
1893.64	-0.000271606	0.00449097
1894.12	-0.000485229	0.0077179
1894.58	-0.698914	-0.0181305
1895.04	-3.05176e-06	0.0044873
1895.52	-0.000613403	0.00771484
1895.98	-0.698608	-0.0181274
1896.44	0.000338745	0.00448547
1896.92	-0.000628662	0.00770874
1897.38	-0.697723	-0.0181335
1897.84	0.000509644	0.00448517
1898.32	-0.000616455	0.00770874
1898.78	-0.697876	-0.0181335
1899.24	-0.000491333	0.00449127
1899.72	-0.000332642	0.0077179
1900.18	-0.697937	-0.0181305
1900.64	0.00072937	0.00448669
1901.12	-0.000247192	0.0077179
1901.58	-0.697693	-0.0181396
1902.04	-0.000372314	0.00449524
1902.52	-0.000680542	0.00770874
1902.98	-0.698639	-0.0181213
1903.44	0.000720215	0.00448761
1903.92	0.000390625	0.00770264
1904.38	-0.697723	-0.0181335
1904.84	-0.000418091	0.00449432
1905.32	0.000378418	0.00770874
1905.78	-0.698242	-0.0181213
1906.24	0.000692749	0.00449127
1906.72	0.000360107	0.00769653
1907.18	-0.697845	-0.0181305
1907.64	-6.40869e-05	0.00449707
1908.12	-0.000366211	0.00770874
1908.58	-0.698212	-0.0181305
1909.04	0.000701904	0.0044928
1909.52	-0.000717163	0.00770264
1909.98	-0.698883	-0.0181122
1910.44	0.000308228	0.00449829
1910.92	-0.000463867	0.00769348
1911.38	-0.697998	-0.0181305
1911.84	2.44141e-05	0.0044989
1912.32	0.000286865	0.00769958
1912.78	-0.698822	-0.0181152
1913.24	0.000744629	0.00449463
1913.72	-2.74658e-05	0.00770264
1914.18	-0.697754	-0.0181274
1914.64	-0.000421143	0.00450104
1915.12	-0.000143433	0.00769348
1915.58	-0.6987	-0.0181183
1916.04	0.000720215	0.00449432
1916.52	-0.000704956	0.00769653
1916.98	-0.697693	-0.0181305
1917.44	2.74658e-05	0.00449921
1917.92	-8.8501e-05	0.00770264
1918.38	-0.697601	-0.0181244
1918.84	-0.000384521	0.00450439
1919.32	7.32422e-05	0.00768738
1919.78	-0.698212	-0.0181213
1920.24	-0.000408936	0.004505
1920.72	-0.000418091	0.00769043
1921.18	-0.697754	-0.0181183
1921.64	-0.000497437	0.00450653
1922.12	0.000482178	0.00768433
1922.58	-0.698242	-0.0181122
1923.04	-0.000311279	0.00450592
1923.52	-0.000671387	0.00769348
1923.98	-0.698853	-0.0181183
1924.44	-0.000106812	0.00450745
1924.92	-0.00022583	0.00769043
1925.38	-0.698853	-0.0181244
1925.84	0.000732422	0.00449951
1926.32	0.000488281	0.00768738
1926.78	-0.697662	-0.0181244
1927.24	-0.000164795	0.00450836
1927.72	-0.000674438	0.00769043
1928.18	-0.697723	-0.0181213
1928.64	-0.000402832	0.00450928
1929.12	5.49316e-05	0.00768433
1929.58	-0.698303	-0.0181274
1930.04	0.000314331	0.00450348
1930.52	-8.23975e-05	0.00767822
1930.98	-0.697632	-0.0181213
1931.44	-4.88281e-05	0.00450928
1931.92	-8.8501e-05	0.00769043
1932.38	-0.698792	-0.0181152
1932.84	-0.000299072	0.00450775
1933.32	-0.000640869	0.00768433
1933.78	-0.698181	-0.0181122
1934.24	-0.000341797	0.00451172
1934.72	-3.96729e-05	0.00769653
1935.18	-0.697754	-0.0181183
1935.64	0.000588989	0.00450378
1936.12	-0.000241089	0.00767822
1936.58	-0.697906	-0.0181244
1937.04	0.000338745	0.0045108
1937.52	-0.000408936	0.00768738
1937.98	-0.697876	-0.0181183
1938.44	-0.000350952	0.00451355
1938.92	-0.000619507	0.00768127
1939.38	-0.698639	-0.0181152
1939.84	-0.00039978	0.00451263
1940.32	0.000494385	0.00767212
1940.78	-0.698883	-0.0181152
1941.24	-0.000231934	0.00451202
1941.72	0.00032959	0.00767517
1942.18	-0.697906	-0.0181213
1942.64	-0.000262451	0.00451141
1943.12	-0.000442505	0.00768127
1943.58	-0.697906	-0.0181122
1944.04	0.000769043	0.00450775
1944.52	-0.000375366	0.00767517
1944.98	-0.697876	-0.0181183
1945.44	0.000561523	0.00450989
1945.92	-0.000653076	0.00767212
1946.38	-0.698303	-0.0181213
1946.84	0.000701904	0.00450958
1947.32	-0.000619507	0.00767822
1947.78	-0.698853	-0.0181091
1948.24	-0.000421143	0.00451874
1948.72	0.000561523	0.00767517
1949.18	-0.698883	-0.0181061
1949.64	-0.000408936	0.00451874
1950.12	0.000488281	0.00767517
1950.58	-0.698578	-0.0181122
1951.04	-0.000430298	0.00451965
1951.52	5.18799e-05	0.00766907
1951.98	-0.697754	-0.0181122
1952.44	0.000741577	0.00451324
1952.92	-0.000662231	0.00767212
1953.38	-0.698822	-0.0181
1953.84	0.000811768	0.00451233
1954.32	-0.000750732	0.00767212
1954.78	-0.698883	-0.018103
1955.24	-0.000115967	0.00451752
1955.72	0.00015564	0.00765991
1956.18	-0.6987	-0.0180969
1956.64	5.49316e-05	0.00452057
1957.12	0.000302124	0.00766602
1957.58	-0.697601	-0.0181091
1958.04	-0.000140381	0.00452179
1958.52	0.000354004	0.00765991
1958.98	-0.697906	-0.0181091
1959.44	0.000543213	0.00451508
1959.92	-0.000610352	0.00766296
1960.38	-0.698181	-0.0181061
1960.84	4.57764e-05	0.00452118
1961.32	0.000262451	0.00766907
1961.78	-0.697723	-0.0181091
1962.24	0.000680542	0.0045166
1962.72	-0.00020752	0.00765686
1963.18	-0.698883	-0.0180878
1963.64	0.000253296	0.0045163
1964.12	-0.000314331	0.00763855
1964.58	-0.697754	-0.0180939
1965.04	-0.000314331	0.00451569
1965.52	-0.000692749	0.0076416
1965.98	-0.698425	-0.0180939
1966.44	2.74658e-05	0.00451477
1966.92	-0.000604248	0.00763855
1967.38	-0.698334	-0.0180939
1967.84	0.000643921	0.00451172
1968.32	0.000552368	0.00763855
1968.78	-0.698639	-0.0180939
1969.24	-0.000378418	0.00452057
1969.72	-3.66211e-05	0.00764771
1970.18	-0.697662	-0.0181061
1970.64	-0.000460815	0.00452209
1971.12	-0.000372314	0.0076355
1971.58	-0.698059	-0.0180939
1972.04	-0.000430298	0.00452209
1972.52	0.000170898	0.00762634
1972.98	-0.697632	-0.0181
1973.44	0.000741577	0.00451477
1973.92	0.000341797	0.00766602
1974.38	-0.698181	-0.0181519
1974.84	-0.000180054	0.0045224
1975.32	-0.000610352	0.00766602
1975.78	-0.697632	-0.0181488
1976.24	5.18799e-05	0.00452362
1976.72	0.000534058	0.00766602
1977.18	-0.697693	-0.0181458
1977.64	-8.23975e-05	0.00452301
1978.12	-0.000149536	0.00765686
1978.58	-0.698242	-0.0181488
1979.04	0.000436401	0.00451904
1979.52	-0.000430298	0.00765991
1979.98	-0.6987	-0.0181488
1980.44	-0.000415039	0.0045285
1980.92	0.000439453	0.00765686
1981.38	-0.697815	-0.0181519
1981.84	0.000714111	0.00452606
1982.32	-0.000671387	0.00765991
1982.78	-0.697632	-0.0181427
1983.24	0.000753784	0.00452332
1983.72	-0.000231934	0.00765381
1984.18	-0.698944	-0.0181396
1984.64	0.000531006	0.00452362
1985.12	-0.000683594	0.00766296
1985.58	-0.6987	-0.0181213
1986.04	-0.000341797	0.00453064
1986.52	-0.000189209	0.00765076
1986.98	-0.698547	-0.0181305
1987.44	-0.000515747	0.00453156
1987.92	-3.05176e-05	0.00765076
1988.38	-0.697784	-0.0181396
1988.84	0.000332642	0.00452698
1989.32	0.000466919	0.00764771
1989.78	-0.697815	-0.0181396
1990.24	4.88281e-05	0.00453247
1990.72	-0.000668335	0.00765686
1991.18	-0.698273	-0.0181274
1991.64	-0.000396729	0.00453522
1992.12	-0.000521851	0.00765076
1992.58	-0.698273	-0.0181274
1993.04	0.000198364	0.00453461
1993.52	-0.000680542	0.00765381
1993.98	-0.698181	-0.0181366
1994.44	0.000216675	0.00453369
1994.92	-0.000137329	0.00765381
1995.38	-0.6987	-0.0181244
1995.84	0.000738525	0.00453094
1996.32	0.000454712	0.00764465
1996.78	-0.698853	-0.0181305
1997.24	0.000643921	0.00453033
1997.72	-2.74658e-05	0.00765381
1998.18	-0.698853	-0.0181244
1998.64	-0.000204468	0.00454041
1999.12	-0.0006073	0.00764771
1999.58	-0.697937	-0.0181396
2000.04	-0.000323486	0.00453827
2000.52	0.000497437	0.0076416
2000.98	-0.697693	-0.0181335
2001.44	0.000762939	0.004534
2001.92	0.00027771	0.00764771
2002.38	-0.697632	-0.0181305
2002.84	-0.000476074	0.00454071
2003.32	-0.000527954	0.00765381
2003.78	-0.697815	-0.0181244
2004.24	0.000387573	0.00453827
2004.72	-0.000231934	0.0076416
2005.18	-0.698639	-0.0181183
2005.64	-0.000228882	0.00454132
2006.12	0.000427246	0.00764771
2006.58	-0.698853	-0.0181244
2007.04	-0.000125122	0.00454254
2007.52	0.000219727	0.00763855
2007.98	-0.698395	-0.0181183
2008.44	0.000567627	0.00453583
2008.92	-0.000311279	0.0076416
2009.38	-0.698822	-0.0181183
2009.84	0.000457764	0.00453796
2010.32	-0.000592041	0.0076416
2010.78	-0.698608	-0.0181274
2011.24	0.000546265	0.00454071
2011.72	0.000332642	0.00764465
2012.18	-0.698608	-0.0181244
2012.64	-0.000198364	0.00454437
2013.12	-0.000439453	0.00765076
2013.58	-0.697815	-0.0181274
2014.04	3.66211e-05	0.00454712
2014.52	-0.000640869	0.0076416
2014.98	-0.698914	-0.0181183
2015.44	0.000756836	0.00454071
2015.92	-0.000671387	0.0076416
2016.38	-0.698975	-0.0181183
2016.84	0.000549316	0.00454285
2017.32	0.000524902	0.0076355
2017.78	-0.69873	-0.0181122
2018.24	-0.00027771	0.00454926
2018.72	0.000582886	0.00762939
2019.18	-0.698212	-0.0181274
2019.64	-0.000494385	0.00454712
2020.12	0.000244141	0.00762634
2020.58	-0.698029	-0.0181183
2021.04	-0.00043335	0.00455048
2021.52	0.000518799	0.0076355
2021.98	-0.698639	-0.0181061
2022.44	0.000283813	0.00454834
2022.92	0.000482178	0.00762634
2023.38	-0.698334	-0.0181061
2023.84	0.000735474	0.00454468
2024.32	0.000610352	0.0076355
2024.78	-0.697662	-0.0181183
2025.24	0.000415039	0.004552
2025.72	0.000439453	0.00762634
2026.18	-0.697693	-0.0181213
2026.64	0.000579834	0.00454865
2027.12	-0.000646973	0.0076355
2027.58	-0.697815	-0.0181244
2028.04	-0.000396729	0.00455414
2028.52	0.000415039	0.00762634
2028.98	-0.697662	-0.0181183
2029.44	0.000296021	0.00454895
2029.92	-0.000769043	0.00762634
2030.38	-0.697632	-0.0181152
2030.84	-0.000231934	0.00455688
2031.32	6.40869e-05	0.0076355
2031.78	-0.698303	-0.0181152
2032.24	-0.00038147	0.00455566
2032.72	9.15527e-05	0.00762634
2033.18	-0.697968	-0.0181061
2033.64	0.000717163	0.00455048
2034.12	0.000485229	0.00762634
2034.58	-0.698364	-0.0181152
2035.04	0.00045166	0.00455444
2035.52	0.000588989	0.00762634
2035.98	-0.697754	-0.0181152
2036.44	-0.000454712	0.00455902
2036.92	0.000506592	0.00762024
2037.38	-0.698364	-0.0181091
2037.84	-0.000262451	0.00455933
2038.32	0.000436401	0.00762329
2038.78	-0.697571	-0.0181091
2039.24	-0.000424194	0.00456085
2039.72	1.83105e-05	0.00761719
2040.18	-0.698792	-0.0181
2040.64	0.000830078	0.00455505
2041.12	0.000363159	0.00763245
2041.58	-0.697723	-0.0181091
2042.04	0.000286865	0.00455444
2042.52	-0.000253296	0.00761414
2042.98	-0.697937	-0.018103
2043.44	-0.000161743	0.00455872
2043.92	-0.000466919	0.00761719
2044.38	-0.698883	-0.018103
2044.84	-0.000415039	0.00456268
2045.32	-0.000646973	0.00761719
2045.78	-0.698456	-0.0181
2046.24	-0.000494385	0.00456146
2046.72	0.000167847	0.00761414
2047.18	-0.698639	-0.0181061
2047.64	0.000259399	0.00456177
2048.12	-0.000485229	0.00761414
2048.58	-0.698669	-0.0181061
2049.04	-0.000350952	0.0045639
2049.52	0.000219727	0.00762024
2049.98	-0.697693	-0.0181061
2050.44	-0.000222778	0.00456635
2050.92	4.57764e-05	0.00762024
2051.38	-0.697937	-0.0180969
2051.84	-0.000518799	0.00456543
2052.32	2.13623e-05	0.00762329
2052.78	-0.6987	-0.0180939
2053.24	-0.000424194	0.00456757
2053.72	0.000296021	0.00761719
2054.18	-0.698944	-0.0180969
2054.64	0.000558472	0.00455963
2055.12	-0.000274658	0.00761108
2055.58	-0.698029	-0.0180939
2056.04	-0.000286865	0.00456635
2056.52	-0.00043335	0.00762329
2056.98	-0.698547	-0.0181
2057.44	-0.000186157	0.00457031
2057.92	-0.000656128	0.00761414
2058.38	-0.698242	-0.0181
2058.84	0.000701904	0.00456329
2059.32	0.000186157	0.00760193
2059.78	-0.698547	-0.0180878
2060.24	-0.000445557	0.00457062
2060.72	-0.000390625	0.00761108
2061.18	-0.69873	-0.0180939
2061.64	0.00072937	0.00456268
2062.12	5.18799e-05	0.00760498
2062.58	-0.698792	-0.0180878
2063.04	0.00062561	0.00456818
2063.52	-0.00065918	0.00761108
2063.98	-0.697754	-0.0181
2064.44	0.000769043	0.00456421
2064.92	0.000128174	0.00761108
2065.38	-0.697784	-0.0180908
2065.84	-0.000418091	0.00457214
2066.32	-0.000604248	0.00761414
2066.78	-0.698822	-0.0180878
2067.24	-0.000436401	0.00457336
2067.72	-0.000500488	0.00759583
2068.18	-0.698395	-0.0180878
2068.64	-0.000460815	0.00457092
2069.12	-0.000552368	0.00760803
2069.58	-0.697662	-0.0180969
2070.04	0.000195313	0.00456848
2070.52	3.05176e-06	0.00760193
2070.98	-0.698792	-0.0180817
2071.44	0.000259399	0.0045697
2071.92	0.000274658	0.00758972
2072.38	-0.698578	-0.0180847
2072.84	0.000390625	0.0045697
2073.32	0.000311279	0.00760498
2073.78	-0.698395	-0.0180847
2074.24	0.000167847	0.00457123
2074.72	-0.000534058	0.00760193
2075.18	-0.69873	-0.0180878
2075.64	0.000244141	0.00457245
2076.12	-0.00057373	0.00760193
2076.58	-0.6987	-0.0180908
2077.04	2.74658e-05	0.00457642
2077.52	9.15527e-06	0.00759277
2077.98	-0.698059	-0.0180939
2078.44	0.000405884	0.00457031
2078.92	0.000292969	0.00759277
2079.38	-0.698761	-0.0180817
2079.84	-2.13623e-05	0.00457672
2080.32	0.000518799	0.00759277
2080.78	-0.697906	-0.0180939
2081.24	0.000411987	0.00457306
2081.72	0.000274658	0.00760193
2082.18	-0.69812	-0.0180908
2082.64	-0.000134277	0.00457703
2083.12	0.000378418	0.00759583
2083.58	-0.698761	-0.0180725
2084.04	-0.000393677	0.00457794
2084.52	-0.000671387	0.00758972
2084.98	-0.697662	-0.0180817
2085.44	0.000170898	0.00457977
2085.92	-0.000656128	0.00759277
2086.38	-0.697601	-0.0180878
2086.84	0.000253296	0.00457611
2087.32	0.000314331	0.00758972
2087.78	-0.698395	-0.0180786
2088.24	0.000765991	0.00457642
2088.72	0.0006073	0.00759277
2089.18	-0.698639	-0.0180756
2089.64	7.01904e-05	0.00457642
2090.12	-0.000350952	0.00758667
2090.58	-0.697662	-0.0180847
2091.04	0.000585937	0.00457886
2091.52	-0.00010376	0.00759583
2091.98	-0.697693	-0.0180817
2092.44	0.000756836	0.00457733
2092.92	0.000482178	0.00758362
2093.38	-0.698517	-0.0180725
2093.84	-0.000314331	0.00458374
2094.32	-0.00055542	0.00759583
2094.78	-0.697723	-0.0180786
2095.24	0.000418091	0.00457794
2095.72	0.00038147	0.00758667
2096.18	-0.697998	-0.0180847
2096.64	0.00071106	0.00457886
2097.12	-0.000662231	0.00758667
2097.58	-0.698883	-0.0180756
2098.04	-0.000146484	0.0045871
2098.52	0.000366211	0.00758362
2098.98	-0.698853	-0.0180756
2099.44	0.000744629	0.00457977
2099.92	-0.000265503	0.00758972
2100.38	-0.697662	-0.0180786
2100.84	0.000192261	0.00458618
2101.32	-0.000680542	0.00758057
2101.78	-0.698486	-0.0180786
2102.24	7.01904e-05	0.00458405
2102.72	0.000509644	0.00758057
2103.18	-0.698944	-0.0180695
2103.64	0.000488281	0.00458252
2104.12	-8.23975e-05	0.00758667
2104.58	-0.69809	-0.0180695
2105.04	0.000762939	0.00458252
2105.52	-0.000698853	0.00758057
2105.98	-0.698761	-0.0180695
2106.44	0.000787354	0.00458252
2106.92	0.000164795	0.00758362
2107.38	-0.6987	-0.0180725
2107.84	-0.000418091	0.00459015
2108.32	-0.000366211	0.00758667
2108.78	-0.697693	-0.0180756
2109.24	0.000683594	0.00458496
2109.72	0.000234985	0.00756836
2110.18	-0.697693	-0.0180695
2110.64	-0.000256348	0.00459106
2111.12	8.23975e-05	0.00757751
2111.58	-0.698395	-0.0180725
2112.04	0.000424194	0.00458405
2112.52	0.000463867	0.00756836
2112.98	-0.698761	-0.0180542
2113.44	-0.000198364	0.00458984
2113.92	0.00017395	0.00757141
2114.38	-0.698975	-0.0180695
2114.84	-0.000180054	0.00459076
2115.32	-0.000247192	0.00756836
2115.78	-0.697723	-0.0180695
2116.24	-0.000195313	0.00459473
2116.72	0.000366211	0.00758057
2117.18	-0.697784	-0.0180725
2117.64	0.000100708	0.00459381
2118.12	0.000570679	0.00757141
2118.58	-0.697815	-0.0180664
2119.04	-0.000134277	0.00459473
2119.52	0.000427246	0.00757446
2119.98	-0.697723	-0.0180725
2120.44	-0.000112915	0.00459503
2120.92	-0.00062561	0.00757446
2121.38	-0.698029	-0.0180695
2121.84	-4.27246e-05	0.00459656
2122.32	-0.000427246	0.0075592
2122.78	-0.697601	-0.0180695
2123.24	-0.000439453	0.00459686
2123.72	-0.000177002	0.00756531
2124.18	-0.697662	-0.0180695
2124.64	0.000662231	0.00459106
2125.12	-0.000152588	0.0075592
2125.58	-0.698639	-0.0180542
2126.04	0.000579834	0.00458984
2126.52	-0.000668335	0.00756836
2126.98	-0.698273	-0.0180634
2127.44	-0.000305176	0.00459473
2127.92	-0.000744629	0.00756531
2128.38	-0.698181	-0.0180634
2128.84	-0.00020752	0.00459869
2129.32	0.000515747	0.00756226
2129.78	-0.697693	-0.0180634
2130.24	0.000244141	0.00459595
2130.72	0.00043335	0.00756836
2131.18	-0.698761	-0.0180511
2131.64	8.23975e-05	0.00459747
2132.12	0.00043335	0.0075592
2132.58	-0.697723	-0.0180634
2133.04	-0.000228882	0.00459503
2133.52	0.000192261	0.00755615
2133.98	-0.697632	-0.0180634
2134.44	0.000476074	0.00459717
2134.92	-0.000488281	0.00756836
2135.38	-0.697784	-0.0180664
2135.84	0.000170898	0.004599
2136.32	0.000170898	0.00756226
2136.78	-0.698151	-0.0180511
2137.24	0.000308228	0.00459686
2137.72	-0.000375366	0.00755005
2138.18	-0.697876	-0.0180634
2138.64	-0.000485229	0.00460083
2139.12	0.000418091	0.00756836
2139.58	-0.697784	-0.0180573
2140.04	0.00057373	0.00459808
2140.52	0.000436401	0.00755615
2140.98	-0.698975	-0.0180542
2141.44	0.00045166	0.00459595
2141.92	-0.000582886	0.0075531
2142.38	-0.697693	-0.0180603
2142.84	0.000704956	0.00459839
2143.32	0.000466919	0.00755005
2143.78	-0.698425	-0.018045
2144.24	0.000820923	0.00459717
2144.72	0.000363159	0.00755615
2145.18	-0.697784	-0.0180542
2145.64	5.79834e-05	0.00460358
2146.12	-0.000665283	0.00755615
2146.58	-0.698578	-0.0180481
2147.04	-7.93457e-05	0.00460175
2147.52	-0.000109863	0.00755615
2147.98	-0.698822	-0.0180511
2148.44	-0.000302124	0.00460724
2148.92	0.00012207	0.00754395
2149.38	-0.697998	-0.0180481
2149.84	0.000848389	0.00460114
2150.32	0.000247192	0.0075531
2150.78	-0.697845	-0.0180511
2151.24	0.000131226	0.00460205
2151.72	-0.00032959	0.00754089
2152.18	-0.698914	-0.0180511
2152.64	-0.000152588	0.00460724
2153.12	0.000210571	0.00755005
2153.58	-0.698792	-0.0180389
2154.04	0.000714111	0.00460114
2154.52	-0.000439453	0.00753784
2154.98	-0.697754	-0.0180481
2155.44	0.00083313	0.00460327
2155.92	0.000213623	0.00755005
2156.38	-0.698883	-0.018042
2156.84	-0.000213623	0.00460693
2157.32	-0.000650024	0.007547
2157.78	-0.698914	-0.0180481
2158.24	7.32422e-05	0.00460907
2158.72	0.000518799	0.00754089
2159.18	-0.698761	-0.0180389
2159.64	0.000595093	0.00460236
2160.12	-4.88281e-05	0.007547
2160.58	-0.698822	-0.018042
2161.04	0.000765991	0.00460327
2161.52	0.000497437	0.00753784
2161.98	-0.697906	-0.0180511
2162.44	0.000521851	0.00460541
2162.92	-7.01904e-05	0.00755005
2163.38	-0.697754	-0.0180511
2163.84	-5.79834e-05	0.00460876
2164.32	0.000216675	0.00754395
2164.78	-0.697632	-0.0180511
2165.24	0.000146484	0.00460785
2165.72	-0.000363159	0.00753174
2166.18	-0.697906	-0.018045
2166.64	0.000396729	0.0046048
2167.12	0.000354004	0.00753479
2167.58	-0.697693	-0.018045
2168.04	0.00072937	0.00460632
2168.52	-0.000378418	0.00753479
2168.98	-0.697693	-0.0180389
2169.44	0.000738525	0.00460724
2169.92	-0.000665283	0.00753784
2170.38	-0.698883	-0.018042
2170.84	0.000265503	0.004609375
2171.32	0.000366211	0.00752869
2171.78	-0.698853	-0.0180359
2172.24	0.000186157	0.0046167
2172.72	-0.000479126	0.00754089
2173.18	-0.697845	-0.0180359
2173.64	0.000628662	0.0046109
2174.12	0.000152588	0.00753784
2174.58	-0.697906	-0.018045
2175.04	6.71387e-05	0.00461304
2175.52	0.000195313	0.00753784
2175.98	-0.698456	-0.0180267
2176.44	0.000656128	0.00461182
2176.92	-0.000500488	0.00752869
2177.38	-0.698883	-0.0180359
2177.84	-0.000402832	0.00461456
2178.32	-0.000515747	0.00752869
2178.78	-0.698669	-0.0180298
2179.24	-0.000411987	0.00461884
2179.72	-0.000668335	0.00752869
2180.18	-0.697601	-0.0180389
2180.64	-0.00043335	0.00461884
2181.12	-0.000650024	0.00753479
2181.58	-0.697662	-0.018042
2182.04	0.000305176	0.00461273
2182.52	-0.000543213	0.00752563
2182.98	-0.698761	-0.0180359
2183.44	-0.000488281	0.00461761
2183.92	-0.0006073	0.00753174
2184.38	-0.698303	-0.0180298
2184.84	0.000698853	0.00461334
2185.32	-0.000543213	0.00753784
2185.78	-0.698181	-0.0180328
2186.24	-0.000323486	0.0046225
2186.72	0.000506592	0.00752258
2187.18	-0.697784	-0.0180359
2187.64	0.00050354	0.00461426
2188.12	-0.000387573	0.00753479
2188.58	-0.698761	-0.0180267
2189.04	8.8501e-05	0.00462402
2189.52	-0.000616455	0.00753174
2189.98	-0.697693	-0.0180298
2190.44	0.000732422	0.00461578
2190.92	0.00039978	0.00752563
2191.38	-0.697693	-0.0180359
2191.84	-0.000402832	0.00462433
2192.32	-0.000238037	0.00751648
2192.78	-0.698853	-0.0180298
2193.24	0.000222778	0.00462189
2193.72	0.000515747	0.00753174
2194.18	-0.698669	-0.0180298
2194.64	0.000201416	0.00461792
2195.12	0.000427246	0.00751648
2195.58	-0.698547	-0.0180298
2196.04	-7.32422e-05	0.0046228
2196.52	-8.54492e-05	0.00753174
2196.98	-0.698853	-0.0180206
2197.44	0.000320435	0.00462097
2197.92	-0.000622559	0.00752258
2198.38	-0.698883	-0.0180145
2198.84	-0.000112915	0.00462677
2199.32	-0.000704956	0.00751953
2199.78	-0.698547	-0.0180206
2200.24	-3.66211e-05	0.0046283
2200.72	-0.000262451	0.00751953
2201.18	-0.698303	-0.0180176
2201.64	-0.000427246	0.00462982
2202.12	5.49316e-05	0.00752563
2202.58	-0.698975	-0.0180176
2203.04	0.000683594	0.0046228
2203.52	-0.000469971	0.00751953
2203.98	-0.697845	-0.0180298
2204.44	-0.000320435	0.00462616
2204.92	-0.000140381	0.00751953
2205.38	-0.698151	-0.0180298
2205.84	0.000640869	0.00462311
2206.32	0.000518799	0.00751648
2206.78	-0.698914	-0.0180176
2207.24	0.000695801	0.00462433
2207.72	0.000494385	0.00751343
2208.18	-0.698761	-0.0180176
2208.64	-0.000341797	0.00463348
2209.12	-0.000631714	0.00751953
2209.58	-0.697662	-0.0180237
2210.04	-0.000274658	0.0046347
2210.52	-0.000180054	0.00752563
2210.98	-0.697784	-0.0180206
2211.44	-0.000372314	0.00463379
2211.92	0.000213623	0.00751648
2212.38	-0.698853	-0.0180206
2212.84	0.000341797	0.00462738
2213.32	-0.000366211	0.00751648
2213.78	-0.697601	-0.0180176
2214.24	-0.000360107	0.00463348
2214.72	-0.000668335	0.00751648
2215.18	-0.698303	-0.0180237
2215.64	-0.000341797	0.00463623
2216.12	-0.000650024	0.00750732
2216.58	-0.698395	-0.0180115
2217.04	0.00012207	0.00462982
2217.52	-0.000582886	0.00751953
2217.98	-0.698853	-0.0180176
2218.44	0.000518799	0.00463104
2218.92	-0.00022583	0.00750122
2219.38	-0.698792	-0.0180054
2219.84	0.000134277	0.00463135
2220.32	0.000527954	0.00751038
2220.78	-0.698853	-0.0180084
2221.24	-0.000506592	0.00463684
2221.72	0.000296021	0.00750427
2222.18	-0.698151	-0.0180084
2222.64	0.000140381	0.00463684
2223.13	-0.000299072	0.00751648
2223.59	-0.698547	-0.0180084
2224.05	-0.000448608	0.00463989
2224.53	0.000512695	0.00750732
2224.99	-0.698059	-0.0180145
2225.45	0.000601196	0.00463226
2225.93	-0.000714111	0.00750732
2226.39	-0.697693	-0.0180145
2226.85	-0.000473022	0.00464142
2227.33	-0.0003479	0.00749512
2227.79	-0.697998	-0.0180054
2228.25	-0.000366211	0.00464142
2228.73	4.27246e-05	0.00750122
2229.19	-0.698944	-0.0180084
2229.65	-0.000415039	0.00464325
2230.13	-0.000628662	0.00750732
2230.59	-0.698883	-0.0180084
2231.05	-0.000436401	0.00464386
2231.53	0.000244141	0.00750397
2231.99	-0.697754	-0.0180084
2232.45	-0.000463867	0.00464294
2232.93	0.000106812	0.00749512
2233.39	-0.698761	-0.0180023
2233.85	-0.000448608	0.00464447
2234.33	-0.000180054	0.00750732
2234.79	-0.698853	-0.0179993
2235.25	0.000466919	0.0046402
2235.73	-0.000473022	0.00750336
2236.19	-0.697662	-0.0180054
2236.65	0.000738525	0.00463959
2237.13	0.000143433	0.00749512
2237.59	-0.698456	-0.0180054
2238.05	0.000210571	0.00463898
2238.53	-0.000286865	0.00749908
2238.99	-0.697968	-0.0180023
2239.45	0.000158691	0.00464447
2239.93	0.000439453	0.0074942
2240.39	-0.69809	-0.0179962
2240.85	-0.000274658	0.00464813
2241.33	-0.000518799	0.00750061
2241.79	-0.698914	-0.0179993
2242.25	0.00078125	0.00464081
2242.73	-0.000262451	0.00749908
2243.19	-0.698914	-0.0179993
2243.65	-0.000326538	0.00465027
2244.13	6.40869e-05	0.00749603
2244.59	-0.698914	-0.0179962
2245.05	6.71387e-05	0.00464417
2245.53	-0.000552368	0.00749817
2245.99	-0.698456	-0.0180023
2246.45	0.000683594	0.00464203
2246.93	0.0006073	0.00748932
2247.39	-0.697662	-0.0180023
2247.85	-0.000363159	0.00465179
2248.33	0.00055542	0.00749176
2248.79	-0.697845	-0.0179993
2249.25	0.000741577	0.00464294
2249.73	0.000408936	0.00748901
2250.19	-0.698364	-0.0180084
2250.65	0.000601196	0.0046463
2251.13	0.000405884	0.00748779
2251.59	-0.697693	-0.0179993
2252.05	-0.000265503	0.00465179
2252.53	0.000717163	0.0074884
2252.99	-0.697876	-0.0179993
2253.45	0.000515747	0.00465118
2253.93	0.000509644	0.00748779
2254.39	-0.698486	-0.017984
2254.85	-0.000170898	0.00465271
2255.33	-0.000534058	0.00749329
2255.79	-0.697723	-0.0179932
2256.25	0.000369263	0.00465118
2256.73	0.000631714	0.00748505
2257.19	-0.698364	-0.0179932
2257.65	0.000253296	0.00464905
2258.13	0.000161743	0.00749023
2258.59	-0.698334	-0.0179932
2259.05	-0.000405884	0.00465637
2259.53	0.00020752	0.00748413
2259.99	-0.697815	-0.0179932
2260.45	0.000671387	0.00464935
2260.93	-0.000253296	0.00748566
2261.39	-0.697723	-0.0179993
2261.85	0.000704956	0.00464874
2262.33	-0.000317383	0.00748718
2262.79	-0.697815	-0.0179962
2263.25	0.000735474	0.00464874
2263.73	0.000308228	0.00748657
2264.19	-0.698608	-0.0179932
2264.65	0.000756836	0.00465332
2265.13	0.000427246	0.00748291
2265.59	-0.6987	-0.0179932
2266.05	-0.000354004	0.00465759
2266.53	0.000601196	0.00747803
2266.99	-0.697968	-0.0179871
2267.45	0.000344849	0.00465576
2267.93	-0.000415039	0.00748474
2268.39	-0.698883	-0.0179871
2268.85	-3.05176e-06	0.00465942
2269.33	0.000305176	0.00748352
2269.79	-0.698822	-0.017981
2270.25	-0.000436401	0.00465759
2270.73	-0.000515747	0.00748474
2271.19	-0.698639	-0.0179901
2271.65	6.71387e-05	0.00465851
2272.13	-0.000454712	0.00748505
2272.59	-0.698761	-0.017981
2273.05	0.000567627	0.00465515
2273.53	-0.000500488	0.00748444
2273.99	-0.698242	-0.017984
2274.45	0.000735474	0.00465454
2274.93	0.000405884	0.00748016
2275.39	-0.698547	-0.0179779
2275.85	0.00050354	0.00465393
2276.33	0.00057373	0.00747589
2276.79	-0.698456	-0.0179749
2277.25	0.000637817	0.00465698
2277.73	0.000308228	0.00747589
2278.19	-0.69873	-0.0179871
2278.65	8.8501e-05	0.00466156
2279.13	-0.000363159	0.00747711
2279.59	-0.698853	-0.017984
2280.05	-7.62939e-05	0.00466003
2280.53	5.18799e-05	0.00747742
2280.99	-0.697693	-0.0179871
2281.45	0.00071106	0.00465912
2281.93	3.05176e-06	0.00747223
2282.39	-0.698822	-0.0179779
2282.85	-0.000106812	0.00466431
2283.33	-0.000311279	0.00747742
2283.79	-0.698822	-0.0179718
2284.25	-0.000439453	0.00466522
2284.73	-0.00020752	0.00747284
2285.19	-0.698853	-0.0179779
2285.65	0.000744629	0.00465332
2286.13	-0.000576782	0.00746857
2286.59	-0.697998	-0.0179993
2287.05	0.000619507	0.0046463
2287.53	-0.000524902	0.0074646
2287.99	-0.697906	-0.0179871
2288.45	-8.8501e-05	0.00464996
2288.93	3.66211e-05	0.00745758
2289.39	-0.697571	-0.0179932
2289.85	-0.000350952	0.00465302
2290.33	-0.000512695	0.00746185
2290.79	-0.698395	-0.0179901
2291.25	-0.000183105	0.00465302
2291.73	0.000610352	0.00745667
2292.19	-0.698456	-0.0179901
2292.65	0.000549316	0.00465179
2293.13	-0.000189209	0.00746094
2293.59	-0.698914	-0.0179901
2294.05	0.00043335	0.00465271
2294.53	-7.62939e-05	0.00745697
2294.99	-0.69809	-0.0180023
2295.45	0.000378418	0.0046524
2295.93	0.000653076	0.00745361
2296.39	-0.697876	-0.0179962
2296.85	-3.35693e-05	0.0046582
2297.33	-0.000231934	0.00746185
2297.79	-0.698792	-0.017984
2298.25	0.00039978	0.00465729
2298.73	-0.000332642	0.0074588
2299.15	-6.71387e-05	0.00302826