File: Edgar/20240607/20240607/electrodeposition_pulsed_potential_20240607_C/pulses_0_to_1000.txt
Time (s)	WE(1).Potential (V)	WE(1).Current (A)
181.686	-0.699738	-0.0029657
182.146	-0.000332642	1.18103e-05
182.626	-0.000488281	0.000108093
183.086	-0.699493	-0.0028717
183.546	5.18799e-05	1.62659e-05
184.026	0.000799561	0.000128387
184.486	-0.699738	-0.00320709
184.946	-4.57764e-05	2.61841e-05
185.426	-0.000375366	0.000162018
185.886	-0.699371	-0.00358063
186.346	-0.000439453	3.45154e-05
186.826	-0.000439453	0.000185089
187.286	-0.698669	-0.00397888
187.746	-0.000152588	3.7384e-05
188.226	0.000891113	0.000200897
188.686	-0.698364	-0.00438019
189.146	-0.00038147	4.06799e-05
189.626	0.000192261	0.00023288
190.086	-0.699219	-0.00478516
190.546	9.46045e-05	4.46472e-05
191.026	-0.000152588	0.0002677
191.486	-0.6987	-0.00520416
191.946	0.000802612	4.37317e-05
192.426	0.000827026	0.000299774
192.886	-0.699615	-0.00562134
193.346	6.71387e-05	4.82178e-05
193.826	-0.000320435	0.000348633
194.286	-0.69928	-0.00603729
194.746	0.000619507	4.03748e-05
195.226	-0.000427246	0.00039093
195.686	-0.699371	-0.00642761
196.146	-0.000482178	4.48303e-05
196.626	0.000784302	0.000424622
197.086	-0.698914	-0.00679474
197.546	0.000143433	3.38745e-05
198.026	0.000604248	0.000473206
198.486	-0.698914	-0.00712708
198.946	0.000708008	2.30713e-05
199.426	0.000274658	0.000525208
199.886	-0.698547	-0.00743652
200.346	0.000640869	1.77307e-05
200.826	-0.000378418	0.000588379
201.286	-0.698273	-0.0077179
201.746	0.00057373	6.71387e-06
202.226	-9.46045e-05	0.00065033
202.686	-0.699219	-0.00797119
203.146	-0.000317383	7.38525e-06
203.626	0.000897217	0.000719604
204.086	-0.699524	-0.00819702
204.546	0.000817871	-7.1106e-06
205.026	0.000521851	0.000809021
205.486	-0.698853	-0.00842896
205.946	0.000244141	-9.91821e-06
206.426	0.00101624	0.00090332
206.886	-0.699127	-0.00863647
207.346	0.000799561	-2.02637e-05
207.826	0.00093689	0.00100983
208.286	-0.699402	-0.00883179
208.746	-2.13623e-05	-1.90735e-05
209.226	0.000576782	0.00112915
209.686	-0.698425	-0.00904236
210.146	-0.000436401	-2.02026e-05
210.626	0.000424194	0.00126343
211.086	-0.698334	-0.00921631
211.546	-0.000442505	-2.39563e-05
212.026	-0.000125122	0.00140717
212.486	-0.698853	-0.00940247
212.946	0.000900269	-3.62549e-05
213.426	0.00071106	0.0015448
213.886	-0.698517	-0.00957947
214.346	-0.000439453	-3.21045e-05
214.826	0.000912476	0.00169952
215.286	-0.698151	-0.00975342
215.746	-0.000402832	-3.38135e-05
216.226	-0.000360107	0.0018692
216.686	-0.698364	-0.00991516
217.146	0.000515747	-4.2572e-05
217.626	0.000231934	0.00202972
218.086	-0.699493	-0.0100677
218.546	-0.000488281	-3.86047e-05
219.026	0.000933838	0.00220123
219.486	-0.698303	-0.0102356
219.946	9.46045e-05	-4.45862e-05
220.426	-0.000305176	0.00238312
220.886	-0.698853	-0.0103851
221.346	0.000527954	-5.11169e-05
221.826	0.000646973	0.00255157
222.286	-0.698303	-0.0105225
222.746	0.000140381	-5.0293e-05
223.226	0.000839233	0.00272949
223.686	-0.699158	-0.0106567
224.146	-0.000314331	-5.05676e-05
224.626	0.000775146	0.00291229
225.086	-0.699036	-0.0108093
225.546	0.000827026	-5.78613e-05
226.026	-0.000238037	0.00309235
226.486	-0.698181	-0.0109344
226.946	0.000170898	-5.5542e-05
227.426	0.000820923	0.00326141
227.886	-0.698059	-0.0110748
228.346	0.000549316	-6.03943e-05
228.826	-0.000335693	0.00344238
229.286	-0.698853	-0.0111938
229.746	0.000662231	-5.97839e-05
230.226	0.000506592	0.00360504
230.686	-0.698395	-0.0113312
231.146	0.000723267	-6.5155e-05
231.626	0.000326538	0.00378082
232.086	-0.698059	-0.0114471
232.546	0.000769043	-6.61011e-05
233.026	-0.000244141	0.00394806
233.486	-0.698486	-0.011557
233.946	-0.000219727	-6.10046e-05
234.426	-0.000375366	0.00411163
234.886	-0.698883	-0.0116821
235.346	-0.000421143	-5.91736e-05
235.826	-0.000320435	0.00427185
236.286	-0.699158	-0.0117889
236.746	-0.000384521	-6.40259e-05
237.226	-0.000454712	0.00442352
237.686	-0.698273	-0.011911
238.146	0.000125122	-6.47583e-05
238.626	0.000137329	0.00456879
239.086	-0.698334	-0.0120117
239.546	0.000732422	-6.8634e-05
240.026	0.000326538	0.00471405
240.486	-0.698151	-0.0121094
240.946	0.000796509	-7.00073e-05
241.426	0.000143433	0.00485596
241.886	-0.6987	-0.0122162
242.346	-9.15527e-06	-6.28662e-05
242.826	-0.000390625	0.00500031
243.286	-0.699341	-0.0123077
243.746	-0.000201416	-6.54297e-05
244.226	-0.000180054	0.00513702
244.686	-0.699402	-0.0124115
245.146	-0.000125122	-6.60706e-05
245.626	0.000750732	0.0052594
246.086	-0.698181	-0.0125122
246.546	-0.000299072	-6.5094e-05
247.026	0.000518799	0.00538574
247.486	-0.698059	-0.0125977
247.946	0.000680542	-6.89087e-05
248.426	0.000808716	0.00550781
248.886	-0.699188	-0.012677
249.346	9.15527e-06	-6.66809e-05
249.826	0.000723267	0.00562561
250.286	-0.698303	-0.0127838
250.746	0.000466919	-7.06482e-05
251.226	0.000271606	0.00574707
251.686	-0.698029	-0.0128632
252.146	-0.000106812	-6.55823e-05
252.626	-0.000299072	0.00586151
253.086	-0.698425	-0.0129395
253.546	0.000787354	-6.95801e-05
254.026	0.000320435	0.00596008
254.486	-0.698578	-0.0130219
254.946	0.000195313	-6.74133e-05
255.426	0.000723267	0.00606781
255.886	-0.697968	-0.0131104
256.346	-0.000442505	-6.21033e-05
256.826	0.000213623	0.00616821
257.286	-0.699402	-0.0131927
257.746	0.000256348	-6.58875e-05
258.226	0.000784302	0.00626373
258.686	-0.699341	-0.013266
259.146	-0.000405884	-6.03638e-05
259.626	0.00043335	0.00636444
260.086	-0.698914	-0.0133453
260.546	-0.000137329	-5.91736e-05
261.026	0.000787354	0.00645081
261.486	-0.698547	-0.0134216
261.946	0.00083313	-6.6925e-05
262.426	0.000500488	0.00654175
262.886	-0.69931	-0.0134827
263.346	0.000848389	-6.66199e-05
263.826	0.000497437	0.00662354
264.286	-0.698303	-0.0135559
264.746	0.000280762	-6.25e-05
265.226	-0.000567627	0.00671387
265.686	-0.697906	-0.0136353
266.146	0.000891113	-6.39954e-05
266.626	0.000402832	0.00679108
267.086	-0.699188	-0.0136963
267.546	-0.000427246	-5.41382e-05
268.026	-0.000466919	0.00687134
268.486	-0.69809	-0.0137726
268.946	0.000192261	-5.58167e-05
269.426	0.000308228	0.00694366
269.886	-0.699097	-0.0138367
270.346	0.000756836	-5.9021e-05
270.826	0.000735474	0.00701141
271.286	-0.698181	-0.0138947
271.746	0.000790405	-5.74951e-05
272.226	-0.000518799	0.00708984
272.686	-0.6987	-0.0139679
273.146	0.000570679	-5.35889e-05
273.626	-0.000354004	0.00715637
274.086	-0.69931	-0.0140198
274.546	0.000189209	-4.87976e-05
275.026	-0.000488281	0.00722351
275.486	-0.699158	-0.0140778
275.946	0.000808716	-4.9469e-05
276.426	0.000354004	0.00728149
276.886	-0.698242	-0.0141479
277.346	0.000231934	-4.17175e-05
277.826	0.000799561	0.00734192
278.286	-0.698608	-0.0141998
278.746	-0.000384521	-3.58276e-05
279.226	0.000341797	0.00740234
279.686	-0.697998	-0.0142639
280.146	0.000170898	-3.77502e-05
280.626	0.000561523	0.00745911
281.086	-0.697784	-0.0143158
281.546	0.000772095	-3.85132e-05
282.026	-0.000408936	0.00752258
282.486	-0.699188	-0.0143677
282.946	-0.000469971	-2.734375E-05
283.426	0.000720215	0.00757446
283.886	-0.6987	-0.0144165
284.346	0.000161743	-3.10669e-05
284.826	-8.23975e-05	0.00763245
285.286	-0.69812	-0.0144867
285.746	0.000811768	-2.85034e-05
286.226	0.000650024	0.00767822
286.686	-0.697845	-0.0145264
287.146	-0.000436401	-1.6571e-05
287.626	0.000271606	0.007724
288.086	-0.699158	-0.0145813
288.546	0.00085144	-2.02942e-05
289.026	-0.00012207	0.00777588
289.486	-0.697937	-0.0146362
289.946	-0.000308228	-1.16577e-05
290.426	0.000540161	0.0078186
290.886	-0.698975	-0.014679
291.346	-0.000274658	-6.19507e-06
291.826	-0.000616455	0.00787048
292.286	-0.698517	-0.0147278
292.746	0.000552368	-5.88989e-06
293.226	0.000460815	0.0078949
293.686	-0.698273	-0.0147736
294.146	-2.44141e-05	1.70898e-06
294.626	0.000610352	0.00794067
295.086	-0.698151	-0.0148224
295.546	-0.000436401	6.28662e-06
296.026	-0.000637817	0.00798645
296.486	-0.698975	-0.0148621
296.946	-0.000411987	1.46484e-05
297.426	-0.000161743	0.00802307
297.886	-0.697906	-0.01492
298.346	-0.000341797	1.9043e-05
298.826	-2.13623e-05	0.00805969
299.286	-0.698151	-0.0149719
299.746	0.000537109	1.80359e-05
300.226	-0.00043335	0.00811157
300.686	-0.6987	-0.0150024
301.146	-7.93457e-05	2.92053e-05
301.626	-0.000653076	0.00814209
302.086	-0.697876	-0.0150543
302.546	-0.000137329	3.23792e-05
303.026	-0.000204468	0.00817261
303.486	-0.698517	-0.0150848
303.946	0.000753784	3.25012e-05
304.426	0.000601196	0.00820923
304.886	-0.699066	-0.0151306
305.346	0.000564575	3.96423e-05
305.826	-0.000256348	0.0082428
306.286	-0.699066	-0.0151703
306.746	-0.000314331	5.0293e-05
307.226	0.000628662	0.00828247
307.686	-0.698425	-0.0152252
308.146	-0.000320435	5.81055e-05
308.626	-0.000439453	0.00830688
309.086	-0.697845	-0.0152618
309.546	-0.000241089	6.5155e-05
310.026	7.62939e-05	0.0083313
310.486	-0.698456	-0.0153107
310.946	0.000784302	6.41174e-05
311.426	0.000576782	0.00836792
311.886	-0.699127	-0.015332
312.346	0.00088501	7.03125E-05
312.826	-0.000714111	0.00839233
313.286	-0.698242	-0.0153778
313.746	0.000628662	7.70874e-05
314.226	0.000491333	0.0084259
314.686	-0.699097	-0.0154083
315.146	9.15527e-06	8.84705e-05
315.626	-0.000167847	0.00845337
316.086	-0.699005	-0.0154388
316.546	-0.000152588	9.76868e-05
317.026	-4.57764e-05	0.00847778
317.486	-0.698151	-0.0154907
317.946	-3.96729e-05	0.000103455
318.426	0.000689697	0.00851746
318.886	-0.699066	-0.0155121
319.346	-0.000466919	0.000114502
319.826	-0.000552368	0.00854492
320.286	-0.698944	-0.0155518
320.746	0.000546265	0.000114044
321.226	-0.000668335	0.00856323
321.686	-0.699219	-0.0155884
322.146	0.000549316	0.000121338
322.626	0.000350952	0.00857849
323.086	-0.698944	-0.0156219
323.546	-0.000247192	0.000135925
324.026	-0.000515747	0.00861206
324.486	-0.698853	-0.0156494
324.946	-6.10352e-06	0.00013858
325.426	-0.000265503	0.00864258
325.886	-0.697876	-0.0156952
326.346	-0.000439453	0.000151733
326.826	0.000524902	0.00865479
327.286	-0.698853	-0.0157135
327.746	0.000808716	0.000152496
328.226	-0.000650024	0.00868225
328.686	-0.698944	-0.0157501
329.146	0.000561523	0.00016156
329.626	0.000292969	0.00870056
330.086	-0.698273	-0.0157928
330.546	0.000927734	0.000169373
331.026	0.000564575	0.00871887
331.486	-0.698639	-0.0158203
331.946	0.000823975	0.00017691
332.426	0.000479126	0.00874023
332.886	-0.697815	-0.0158508
333.346	0.000805664	0.000185364
333.826	0.000167847	0.00875244
334.286	-0.698395	-0.0158813
334.746	-0.000238037	0.000200531
335.226	0.000360107	0.00877075
335.686	-0.697845	-0.015918
336.146	0.000799561	0.000201508
336.626	-0.000469971	0.00879822
337.086	-0.699127	-0.0159332
337.546	0.000164795	0.000216156
338.026	0.00057373	0.00881348
338.486	-0.698944	-0.0159637
338.946	0.000784302	0.000219543
339.426	0.000561523	0.00882874
339.886	-0.698639	-0.0160004
340.346	0.00022583	0.000233826
340.826	-6.71387e-05	0.0088562
341.286	-0.699066	-0.0160278
341.746	-0.0003479	0.000247986
342.226	0.000588989	0.0088623
342.686	-0.69873	-0.0160583
343.146	-0.000454712	0.000256378
343.626	-0.000192261	0.00889282
344.086	-0.698975	-0.0160828
344.546	0.000744629	0.000256836
345.026	0.000286865	0.00889893
345.486	-0.697998	-0.0161163
345.946	0.000198364	0.000270782
346.426	0.00032959	0.00890808
346.886	-0.698944	-0.0161377
347.346	0.000817871	0.00027536
347.826	-0.000234985	0.00893555
348.286	-0.699005	-0.016156
348.746	0.000622559	0.000285431
349.226	-0.000634766	0.00894775
349.686	-0.699066	-0.0161896
350.146	-0.000137329	0.000300629
350.626	-0.000363159	0.00897217
351.086	-0.697693	-0.0162201
351.546	6.10352e-05	0.000309814
352.026	-4.88281e-05	0.00896912
352.486	-0.697845	-0.0162506
352.946	0.000674438	0.000314178
353.426	0.000579834	0.00899353
353.886	-0.698639	-0.016272
354.346	0.000534058	0.000328003
354.826	0.000247192	0.00900574
355.286	-0.698486	-0.0162903
355.746	-9.46045e-05	0.000341248
356.226	0.000415039	0.00901184
356.686	-0.699127	-0.0163147
357.146	0.000689697	0.000345001
357.626	-1.83105e-05	0.0090271
358.086	-0.697968	-0.0163452
358.546	-0.000213623	0.000362671
359.026	0.000482178	0.00903625
359.486	-0.698273	-0.0163757
359.946	-0.000527954	0.000373535
360.426	0.000415039	0.00906067
360.886	-0.699036	-0.016394
361.346	0.000674438	0.000375092
361.826	-0.000170898	0.00907288
362.286	-0.697937	-0.0164154
362.746	-0.000317383	0.00039267
363.226	4.27246e-05	0.00907288
363.686	-0.698792	-0.0164337
364.146	0.000515747	0.000398132
364.626	0.000219727	0.00907898
365.086	-0.698792	-0.0164551
365.546	-0.000524902	0.000415039
366.026	0.000509644	0.00910034
366.486	-0.698975	-0.0164856
366.946	-2.44141e-05	0.000421082
367.426	0.000570679	0.0091095
367.886	-0.698242	-0.0165131
368.346	0.000674438	0.000427704
368.826	-0.000466919	0.0091156
369.286	-0.697815	-0.0165344
369.746	-5.49316e-05	0.000443481
370.226	-0.000189209	0.00914001
370.686	-0.698883	-0.0165436
371.146	0.000875854	0.000447968
371.626	-0.000186157	0.00913391
372.086	-0.698059	-0.0165771
372.546	0.00010376	0.000463806
373.026	-0.000320435	0.00916443
373.486	-0.6987	-0.0166077
373.946	0.000778198	0.000468781
374.426	0.00050354	0.00916138
374.886	-0.6987	-0.0166138
375.346	0.000469971	0.000481079
375.826	9.15527e-05	0.00916443
376.286	-0.697815	-0.0166382
376.746	0.000875854	0.0004953
377.226	6.40869e-05	0.00917664
377.686	-0.698486	-0.0166656
378.146	0.000292969	0.000505371
378.626	0.000189209	0.00918274
379.086	-0.698914	-0.0166809
379.546	-0.00027771	0.000521851
380.026	-0.000692749	0.0092041
380.486	-0.698334	-0.0167084
380.946	0.000561523	0.000528564
381.426	-7.93457e-05	0.0092041
381.886	-0.697754	-0.0167297
382.346	0.000897217	0.000536499
382.826	0.00065918	0.00921936
383.286	-0.698853	-0.016745
383.746	0.000708008	0.000550842
384.226	0.000540161	0.00921936
384.686	-0.697784	-0.0167694
385.146	0.000164795	0.000560913
385.626	0.000375366	0.00922852
386.086	-0.697693	-0.0167816
386.546	0.000286865	0.000573425
387.026	-0.000662231	0.00924683
387.486	-0.698944	-0.0167969
387.946	0.000106812	0.000584106
388.426	0.000204468	0.00924377
388.886	-0.699005	-0.0168152
389.346	0.000146484	0.000591125
389.826	0.00020752	0.00926514
390.286	-0.698944	-0.0168396
390.746	0.000695801	0.000603638
391.226	0.000552368	0.00926208
391.686	-0.699097	-0.0168579
392.146	0.000552368	0.000614319
392.626	0.000494385	0.00926819
393.086	-0.697815	-0.0168854
393.546	-0.000256348	0.000631714
394.026	-0.000323486	0.00926819
394.486	-0.698975	-0.0168915
394.946	-0.000170898	0.000639343
395.426	0.000570679	0.00928345
395.886	-0.697876	-0.0169189
396.346	-0.000177002	0.000655518
396.826	-0.000671387	0.0092926
397.286	-0.698608	-0.0169403
397.746	0.000836182	0.000658875
398.226	0.000390625	0.00929871
398.686	-0.698944	-0.0169495
399.146	0.000656128	0.000671997
399.626	0.000588989	0.00930176
400.086	-0.698914	-0.0169647
400.546	0.00017395	0.000681458
401.026	0.000402832	0.00931396
401.486	-0.699005	-0.016983
401.946	0.000619507	0.00069397
402.426	0.000512695	0.00931091
402.886	-0.698059	-0.0170074
403.346	0.000717163	0.000703735
403.826	0.00043335	0.00932007
404.286	-0.698456	-0.0170166
404.746	-0.000256348	0.000724487
405.226	-0.000158691	0.00933533
405.686	-0.697815	-0.0170441
406.146	0.000689697	0.000732422
406.626	-0.000302124	0.00932312
407.086	-0.69873	-0.0170502
407.546	7.62939e-05	0.000744324
408.026	-0.000540161	0.00934448
408.486	-0.697632	-0.0170715
408.946	0.000402832	0.000754089
409.426	-0.000262451	0.00935059
409.886	-0.697754	-0.0170898
410.346	-0.000213623	0.000768738
410.826	-0.000463867	0.00934448
411.286	-0.699005	-0.017099
411.746	0.000732422	0.000771179
412.226	0.000424194	0.00934143
412.686	-0.697998	-0.0171173
413.146	0.000891113	0.000783386
413.626	-0.000692749	0.00935669
414.086	-0.698029	-0.0171387
414.546	0.000878906	0.000794983
415.026	-3.05176e-06	0.00935669
415.486	-0.697784	-0.017157
415.946	0	0.000813599
416.426	0.000259399	0.0093689
416.886	-0.698517	-0.0171661
417.346	-0.000372314	0.000827026
417.826	-0.000241089	0.00936279
418.286	-0.697723	-0.0171875
418.746	0.000787354	0.000831299
419.226	0.000460815	0.00936584
419.686	-0.697998	-0.0171997
420.146	0.00050354	0.000843811
420.626	0.000378418	0.009375
421.086	-0.697906	-0.017218
421.546	0.000506592	0.000852966
422.026	-0.000726318	0.00938416
422.486	-0.697632	-0.0172272
422.946	0.000814819	0.000862732
423.426	0.000631714	0.00937805
423.886	-0.698273	-0.0172363
424.346	0	0.000877991
424.826	0.000491333	0.00938416
425.286	-0.698364	-0.0172546
425.746	-0.000152588	0.000891113
426.226	-0.000363159	0.00939636
426.686	-0.697693	-0.0172729
427.146	0.000448608	0.000898743
427.626	0.000457764	0.00939331
428.086	-0.698944	-0.0172821
428.546	0.000863647	0.000909729
429.026	0.000506592	0.00940247
429.486	-0.69873	-0.0172974
429.946	0.000881958	0.000919495
430.426	-0.000735474	0.00940247
430.886	-0.698761	-0.0173096
431.346	-0.000357056	0.000940552
431.826	-0.000482178	0.00940552
432.286	-0.697662	-0.0173309
432.746	-0.00015564	0.000951233
433.226	-0.000186157	0.00941772
433.686	-0.698822	-0.0173401
434.146	0.000601196	0.00095459
434.626	0.000524902	0.00941772
435.086	-0.697723	-0.0173615
435.546	0.000637817	0.000971069
436.026	-0.000564575	0.00940857
436.486	-0.697693	-0.0173767
436.946	0.000634766	0.000977478
437.426	-0.000698853	0.00941772
437.886	-0.699005	-0.0173828
438.346	-0.000164795	0.000994568
438.826	0.000161743	0.00941772
439.286	-0.697784	-0.0174042
439.746	0.000686646	0.0010022
440.226	0.000567627	0.00942078
440.686	-0.698273	-0.0174011
441.146	-0.000411987	0.00101807
441.626	0.000210571	0.00942078
442.086	-0.697876	-0.0174225
442.546	-0.000222778	0.00102814
443.026	0.000531006	0.00942383
443.486	-0.697754	-0.0174408
443.946	-0.0003479	0.00104065
444.426	-3.05176e-05	0.00941772
444.886	-0.698425	-0.0174469
445.346	0.000146484	0.00104828
445.826	-0.000476074	0.00943298
446.286	-0.698029	-0.0174652
446.746	0.00090332	0.00105835
447.226	-0.000222778	0.00942383
447.686	-0.698822	-0.0174744
448.146	0.000888062	0.00106628
448.626	0.000238037	0.00942688
449.086	-0.698059	-0.0174835
449.546	0.000878906	0.00107819
450.026	0.000140381	0.00942688
450.486	-0.697693	-0.0175018
450.946	0.000872803	0.00108917
451.426	-0.000726318	0.00943909
451.886	-0.697754	-0.0175171
452.346	0.00039978	0.00110687
452.826	0.000500488	0.00943604
453.286	-0.697723	-0.0175262
453.746	-0.000378418	0.0011203
454.226	0.00039978	0.00943298
454.686	-0.698212	-0.0175446
455.146	0.00017395	0.00112946
455.626	0.000509644	0.00943909
456.086	-0.698822	-0.0175507
456.546	-0.000296021	0.00114075
457.026	-0.000671387	0.00944519
457.486	-0.697815	-0.0175629
457.946	0.000357056	0.00115295
458.426	-0.000582886	0.00944214
458.886	-0.698029	-0.017569
459.346	-0.000204468	0.00116119
459.826	-0.000253296	0.00944824
460.286	-0.698517	-0.0175873
460.746	0.000827026	0.00116608
461.226	0.000363159	0.00943604
461.686	-0.697662	-0.0175964
462.146	0.000250244	0.00118408
462.626	-0.000430298	0.00944519
463.086	-0.699005	-0.0176056
463.546	0.000543213	0.00119446
464.026	-0.000643921	0.00943909
464.486	-0.697815	-0.0176208
464.946	0.000857544	0.00119965
465.426	0.000201416	0.00944214
465.886	-0.698975	-0.017627
466.346	0.000183105	0.00121368
466.826	0.00055542	0.00944519
467.286	-0.69812	-0.0176331
467.746	0.000180054	0.00122559
468.226	-0.000582886	0.00945129
468.686	-0.698975	-0.0176453
469.146	-9.46045e-05	0.00123871
469.626	-0.000775146	0.00945435
470.086	-0.698242	-0.0176666
470.546	0.000576782	0.0012442
471.026	0.000466919	0.00944214
471.486	-0.698273	-0.0176666
471.946	0.000140381	0.00126038
472.426	-0.000244141	0.00946045
472.886	-0.697876	-0.0176788
473.346	0.000494385	0.00126587
473.826	-0.000344849	0.00943909
474.286	-0.698425	-0.0176971
474.746	0.000869751	0.00127686
475.226	0.000561523	0.00945129
475.686	-0.697754	-0.0177124
476.146	0.000628662	0.0012854
476.626	-0.000375366	0.00944824
477.086	-0.697754	-0.0177185
477.546	0.000195313	0.00130035
478.026	-0.000692749	0.00945129
478.486	-0.69812	-0.0177124
478.946	-2.74658e-05	0.00131256
479.426	-0.000143433	0.0094574
479.886	-0.698029	-0.0177307
480.346	0.000704956	0.00132172
480.826	4.88281e-05	0.0094574
481.286	-0.698334	-0.017746
481.746	2.74658e-05	0.00133728
482.226	0.000112915	0.00944519
482.686	-0.698944	-0.0177551
483.146	0.000567627	0.00134125
483.626	0.000546265	0.00945129
484.086	-0.699005	-0.0177612
484.546	0.000289917	0.00135651
485.026	-0.000680542	0.00945129
485.486	-0.697784	-0.0177856
485.946	3.05176e-05	0.00136902
486.426	-0.000637817	0.00944519
486.886	-0.698944	-0.0177795
487.346	0.000839233	0.00137604
487.826	-0.000469971	0.00946045
488.286	-0.698486	-0.0177887
488.746	-5.49316e-05	0.00139099
489.226	0.000112915	0.00944214
489.686	-0.698975	-0.017804
490.146	0.000387573	0.00139954
490.626	-0.000634766	0.00945129
491.086	-0.698944	-0.017804
491.546	7.93457e-05	0.00140808
492.026	-0.000601196	0.00945129
492.486	-0.69812	-0.0178345
492.946	0.000247192	0.0014151
493.426	-0.000668335	0.00945435
493.886	-0.697937	-0.0178406
494.346	-0.000360107	0.0014328
494.826	-0.000210571	0.0094574
495.286	-0.697632	-0.0178436
495.746	0.000836182	0.00143524
496.226	0.000552368	0.00944519
496.686	-0.698639	-0.0178467
497.146	-0.000250244	0.00145447
497.626	0.000543213	0.00944824
498.086	-0.698914	-0.0178558
498.546	-0.000344849	0.00146149
499.026	-3.66211e-05	0.00944214
499.486	-0.698242	-0.017868
499.946	0.00032959	0.00147217
500.426	-3.66211e-05	0.0094574
500.886	-0.698669	-0.017868
501.346	0.00045166	0.00147919
501.826	-0.000680542	0.00945129
502.286	-0.698639	-0.0178894
502.746	0.000717163	0.00148682
503.226	-0.00027771	0.00943909
503.686	-0.698395	-0.0178986
504.146	-0.000357056	0.00150208
504.626	-0.000466919	0.00943909
505.086	-0.698944	-0.0178986
505.546	-6.10352e-06	0.0015155
506.026	-0.000289917	0.00944214
506.486	-0.697754	-0.0179169
506.946	-0.000228882	0.00152771
507.426	0.000491333	0.00943909
507.886	-0.697906	-0.017926
508.346	-0.000308228	0.00153687
508.826	0.000485229	0.00944214
509.286	-0.698944	-0.0179169
509.746	0.000622559	0.00154053
510.226	0.000256348	0.00944214
510.686	-0.698029	-0.0179291
511.146	-0.000210571	0.00155731
511.626	6.71387e-05	0.00944824
512.086	-0.698578	-0.0179443
512.546	0.000509644	0.00155914
513.026	-0.000567627	0.00944214
513.486	-0.698975	-0.0179504
513.946	-0.000137329	0.00157318
514.426	-0.000689697	0.00944519
514.886	-0.697968	-0.0179657
515.346	-0.000296021	0.00158722
515.826	-0.000213623	0.00942688
516.286	-0.698914	-0.0179657
516.746	0.000894165	0.00159088
517.226	-0.000335693	0.00944824
517.686	-0.698975	-0.0179749
518.146	0.000604248	0.00159882
518.626	-0.00062561	0.00943298
519.086	-0.698212	-0.0179932
519.546	0.000872803	0.00160889
520.026	0.000134277	0.00942383
520.486	-0.697998	-0.0179901
520.946	8.8501e-05	0.00162476
521.426	0.000369263	0.00943909
521.886	-0.699005	-0.0179962
522.346	-0.00022583	0.00163849
522.826	8.54492e-05	0.00943298
523.286	-0.698608	-0.0180084
523.746	0.000872803	0.00163849
524.226	-0.000317383	0.00943909
524.686	-0.697784	-0.0180206
525.146	-0.000384521	0.00165466
525.626	-0.000656128	0.00943298
526.086	-0.698181	-0.0180176
526.546	-0.000183105	0.00166168
527.026	-2.13623e-05	0.00942383
527.486	-0.697968	-0.0180267
527.946	-0.000418091	0.00167206
528.426	-0.00050354	0.00942688
528.886	-0.698303	-0.0180359
529.346	0.000686646	0.00167511
529.826	-0.000140381	0.00942993
530.286	-0.699005	-0.018045
530.746	0.000836182	0.00168579
531.226	-0.000531006	0.00942383
531.686	-0.698792	-0.018045
532.146	0.000363159	0.00169739
532.626	-0.000665283	0.00942688
533.086	-0.697754	-0.0180603
533.546	5.18799e-05	0.00170837
534.026	0.000588989	0.00942078
534.486	-0.697693	-0.0180725
534.946	-0.000473022	0.00171967
535.426	0.000393677	0.00942383
535.886	-0.69873	-0.0180756
536.346	0.000128174	0.00172607
536.826	-0.000701904	0.00942383
537.286	-0.698944	-0.0180725
537.746	-4.27246e-05	0.00174011
538.226	0.000457764	0.00942078
538.686	-0.697998	-0.0180878
539.146	-0.000305176	0.00175079
539.626	0.000527954	0.00941467
540.086	-0.697906	-0.0180969
540.546	0.000595093	0.00175079
541.026	-0.000726318	0.00941467
541.486	-0.697815	-0.0181
541.946	0.000695801	0.00176392
542.426	6.71387e-05	0.00941772
542.886	-0.697632	-0.0181091
543.346	0.000808716	0.00177063
543.826	0.000390625	0.00941467
544.286	-0.698639	-0.0181061
544.746	-0.000274658	0.00178619
545.226	0.000109863	0.00940247
545.686	-0.698181	-0.0181274
546.146	-0.000332642	0.0017981
546.626	-0.000134277	0.00940552
547.086	-0.6987	-0.0181183
547.546	-0.000405884	0.00180573
548.026	-0.000292969	0.00941162
548.486	-0.697906	-0.0181366
548.946	-1.83105e-05	0.00181122
549.426	0.000326538	0.00939941
549.886	-0.698151	-0.0181274
550.346	0.000869751	0.0018158
550.826	0.000280762	0.00939941
551.286	-0.698975	-0.0181396
551.746	0.000854492	0.00182526
552.226	-0.000680542	0.00941467
552.686	-0.698914	-0.0181488
553.146	0.000231934	0.00183411
553.626	0.000546265	0.00939941
554.086	-0.698761	-0.0181519
554.546	0.000802612	0.00184387
555.026	0.000299072	0.00939636
555.486	-0.698395	-0.0181702
555.946	-0.00032959	0.00186005
556.426	-0.000686646	0.00940247
556.886	-0.697815	-0.0181702
557.346	-0.000408936	0.0018692
557.826	3.05176e-06	0.00939026
558.286	-0.697937	-0.0181732
558.746	-5.79834e-05	0.00187897
559.226	0.000445557	0.00939636
559.686	-0.698792	-0.0181824
560.146	-8.54492e-05	0.00188751
560.626	-0.000701904	0.00939636
561.086	-0.698517	-0.0181793
561.546	0.000790405	0.00188782
562.026	0.000241089	0.00939331
562.486	-0.697723	-0.0181915
562.946	-0.000332642	0.00190399
563.426	-0.000256348	0.0093811
563.886	-0.697815	-0.0182007
564.346	0.000756836	0.00190521
564.826	-0.000732422	0.00939026
565.286	-0.698517	-0.0181976
565.746	-0.000378418	0.00192322
566.226	-0.000158691	0.0093811
566.686	-0.698944	-0.0182068
567.146	4.57764e-05	0.00192719
567.626	0.000375366	0.00938721
568.086	-0.698517	-0.018219
568.546	0.000128174	0.0019397
569.026	0.000546265	0.00937805
569.486	-0.698395	-0.0182159
569.946	4.88281e-05	0.00194153
570.426	0.000372314	0.00937195
570.886	-0.698181	-0.018219
571.346	-0.000192261	0.00195343
571.826	0.000491333	0.0093811
572.286	-0.698395	-0.0182251
572.746	-0.000341797	0.00196686
573.226	-8.54492e-05	0.0093811
573.686	-0.698975	-0.0182312
574.146	-0.000378418	0.00197449
574.626	-0.000714111	0.009375
575.086	-0.697906	-0.0182495
575.546	-0.000485229	0.00198181
576.026	0.000112915	0.00937805
576.486	-0.697754	-0.0182495
576.946	-0.000366211	0.00199249
577.426	0.000436401	0.00937195
577.886	-0.697937	-0.0182495
578.346	-0.000219727	0.00199829
578.826	-0.000671387	0.00936584
579.286	-0.698822	-0.0182556
579.746	0.000735474	0.00200043
580.226	0.000482178	0.00935669
580.686	-0.698944	-0.0182556
581.146	0.000823975	0.00200928
581.626	-0.000372314	0.0093689
582.086	-0.698883	-0.0182617
582.546	0.000827026	0.00201904
583.026	-0.000506592	0.00935974
583.486	-0.698761	-0.0182678
583.946	6.10352e-06	0.00202972
584.426	-0.000582886	0.00935974
584.886	-0.697906	-0.0182709
585.346	-0.000311279	0.00204163
585.826	-0.000540161	0.00935974
586.286	-0.698456	-0.0182861
586.746	0.000665283	0.00204163
587.226	-0.000726318	0.00935364
587.686	-0.697662	-0.0182892
588.146	0.000210571	0.00205109
588.626	0.000311279	0.00934753
589.086	-0.697876	-0.0182892
589.546	0.000588989	0.00206299
590.026	-0.000262451	0.00934753
590.486	-0.698822	-0.0182983
590.946	0.00043335	0.00207214
591.426	-0.00015564	0.00934448
591.886	-0.697845	-0.0183044
592.346	0.000357056	0.00207794
592.826	-0.000466919	0.00934753
593.286	-0.698334	-0.0183014
593.746	0.000125122	0.00209198
594.226	-0.000384521	0.00935364
594.686	-0.6987	-0.0183044
595.146	0.000488281	0.00209595
595.626	-0.000158691	0.00935059
596.086	-0.697906	-0.0183167
596.546	-0.000234985	0.00210602
597.026	-0.000430298	0.00934753
597.486	-0.698364	-0.0183228
597.946	-8.8501e-05	0.00211304
598.426	2.13623e-05	0.00933533
598.886	-0.698669	-0.0183228
599.346	-0.000259399	0.00212219
599.826	0.000152588	0.00933228
600.286	-0.698059	-0.0183289
600.746	0.000540161	0.00212494
601.226	-0.0006073	0.00933228
601.686	-0.69809	-0.0183319
602.146	0.000759888	0.00213257
602.626	0.000302124	0.00933533
603.086	-0.698914	-0.0183289
603.546	-0.000280762	0.00214661
604.026	4.88281e-05	0.00932312
604.486	-0.698639	-0.0183411
604.946	-0.000292969	0.00215607
605.426	0.000515747	0.00932617
605.886	-0.698792	-0.0183411
606.346	7.32422e-05	0.00215759
606.826	-0.000592041	0.00932312
607.286	-0.698364	-0.0183411
607.746	-9.15527e-05	0.00217224
608.226	0.000396729	0.00932617
608.686	-0.698364	-0.0183563
609.146	-0.000369263	0.00218109
609.626	-9.15527e-06	0.00931396
610.086	-0.69809	-0.0183655
610.546	-8.8501e-05	0.00218567
611.026	0.000515747	0.00932312
611.486	-0.697784	-0.0183563
611.946	0.000863647	0.00218811
612.426	0.00015564	0.00931091
612.886	-0.698822	-0.0183563
613.346	-0.000354004	0.0022052
613.826	-0.000152588	0.00931702
614.286	-0.697998	-0.0183777
614.746	0.000799561	0.00220276
615.226	0.000314331	0.00930481
615.686	-0.697876	-0.0183746
616.146	0.000708008	0.00221252
616.626	0.000558472	0.00930786
617.086	-0.698395	-0.0183807
617.546	-0.000140381	0.00222809
618.026	0.000466919	0.00931091
618.486	-0.697815	-0.0183777
618.946	0.000637817	0.00222992
619.426	0.00038147	0.00931091
619.886	-0.698853	-0.0183807
620.346	0.000302124	0.0022403
620.826	-0.000494385	0.00931396
621.286	-0.697662	-0.0183929
621.746	-0.000360107	0.00225006
622.226	-0.000418091	0.00930176
622.686	-0.697784	-0.018396
623.146	0.000939941	0.00225128
623.626	-0.000421143	0.00930176
624.086	-0.698242	-0.0183929
624.546	0.000131226	0.00226013
625.026	0.000473022	0.00929565
625.486	-0.698608	-0.0183899
625.946	-0.000357056	0.00227142
626.426	0.000521851	0.00929871
626.886	-0.698395	-0.0184082
627.346	0.000143433	0.00227875
627.826	-0.000265503	0.0092865
628.286	-0.697601	-0.0184082
628.746	0.000619507	0.00227997
629.226	-0.000378418	0.0092804
629.686	-0.698669	-0.0184052
630.146	0.000817871	0.00228882
630.626	-0.000695801	0.0092865
631.086	-0.698029	-0.0184082
631.546	-3.05176e-06	0.00230164
632.026	0.000363159	0.0092865
632.486	-0.69809	-0.0184235
632.946	-0.000299072	0.00230865
633.426	0.000512695	0.0092804
633.886	-0.697937	-0.0184204
634.346	0.000595093	0.00230835
634.826	-0.000598145	0.00927734
635.286	-0.697693	-0.0184265
635.746	0.000473022	0.00231537
636.226	-0.000460815	0.00927429
636.686	-0.698517	-0.0184265
637.146	1.83105e-05	0.00232971
637.626	0.000466919	0.00927429
638.086	-0.698639	-0.0184265
638.546	0.000213623	0.00233276
639.026	0.000463867	0.00927124
639.486	-0.698212	-0.0184387
639.946	0.000717163	0.00233978
640.426	-0.000549316	0.00926514
640.886	-0.697754	-0.0184387
641.346	-7.01904e-05	0.00235291
641.826	0.000311279	0.00926208
642.286	-0.697754	-0.0184418
642.746	-0.000289917	0.00236053
643.226	-0.000262451	0.00926208
643.686	-0.698669	-0.0184326
644.146	0.000830078	0.00236084
644.626	2.44141e-05	0.00925598
645.086	-0.697998	-0.0184418
645.546	0.000405884	0.00237122
646.026	-0.000769043	0.00925903
646.486	-0.697968	-0.0184418
646.946	0.00055542	0.00237335
647.426	0.000238037	0.00926514
647.886	-0.698181	-0.0184601
648.346	-0.000106812	0.00238525
648.826	-0.000167847	0.00926514
649.286	-0.698456	-0.0184418
649.746	-0.000250244	0.00239288
650.226	0.000390625	0.00925293
650.686	-0.697662	-0.0184509
651.146	7.93457e-05	0.00239777
651.626	0.000204468	0.00924072
652.086	-0.697754	-0.0184662
652.546	0.000860596	0.0024057
653.026	-0.000561523	0.00925598
653.486	-0.697632	-0.0184601
653.946	0.000421143	0.00241394
654.426	-0.000228882	0.00924988
654.886	-0.697845	-0.0184662
655.346	0.000845337	0.00241608
655.826	-0.000332642	0.00925903
656.286	-0.697845	-0.0184723
656.746	0.000775146	0.00242249
657.226	-0.000408936	0.00924988
657.686	-0.698853	-0.0184631
658.146	0.000769043	0.00242981
658.626	0.000424194	0.00924377
659.086	-0.698761	-0.0184723
659.546	0.000714111	0.00244141
660.027	-0.000140381	0.00924072
660.487	-0.698273	-0.0184692
660.947	-0.000201416	0.00245239
661.427	0.00045166	0.00923462
661.887	-0.698792	-0.0184814
662.347	0.000735474	0.00245148
662.827	0.000106812	0.00922852
663.287	-0.697906	-0.0184814
663.747	-0.000305176	0.00246582
664.227	-0.000244141	0.00922241
664.687	-0.698547	-0.0184814
665.147	-0.000372314	0.00246918
665.627	0.000366211	0.00922852
666.087	-0.697815	-0.0184906
666.547	-0.000164795	0.00247833
667.027	-0.000366211	0.00923462
667.487	-0.698822	-0.0184937
667.947	-0.000167847	0.00248352
668.427	-0.000375366	0.00921631
668.887	-0.698761	-0.0184875
669.347	0.000186157	0.00249054
669.827	-0.00067749	0.00922241
670.287	-0.698273	-0.0184845
670.747	0.00055542	0.00249786
671.227	-0.000415039	0.00921936
671.687	-0.698792	-0.0184906
672.147	0.000585937	0.00250122
672.627	-0.000567627	0.00921631
673.087	-0.698883	-0.0184906
673.547	-0.000274658	0.00251282
674.027	0.000128174	0.0092041
674.487	-0.698181	-0.0185028
674.947	-0.00022583	0.00251648
675.427	7.93457e-05	0.00921021
675.887	-0.697845	-0.0184998
676.347	0.000283813	0.0025174
676.827	-0.000680542	0.00921021
677.287	-0.697784	-0.0185059
677.747	0.000521851	0.00252472
678.227	1.83105e-05	0.00919495
678.687	-0.698792	-0.0184998
679.147	-0.000183105	0.00253815
679.627	-9.46045e-05	0.00919189
680.087	-0.697723	-0.0185089
680.547	0.000558472	0.00253967
681.027	-0.000619507	0.00920105
681.487	-0.698822	-0.0185059
681.947	0.000158691	0.00254517
682.427	6.71387e-05	0.0092041
682.887	-0.698517	-0.0185089
683.347	-0.000134277	0.00255768
683.827	0.000253296	0.009198
684.287	-0.697754	-0.0185181
684.747	0.000375366	0.00255768
685.227	-1.83105e-05	0.00919495
685.687	-0.698883	-0.0185181
686.147	0.000326538	0.0025647
686.627	0.000411987	0.00918579
687.087	-0.697662	-0.0185181
687.547	-0.000302124	0.00257385
688.027	0.000363159	0.00919189
688.487	-0.698639	-0.0185211
688.947	1.83105e-05	0.00257935
689.427	-0.000582886	0.00918579
689.887	-0.69809	-0.0185242
690.347	0.000772095	0.00258209
690.827	-4.88281e-05	0.00917969
691.287	-0.6987	-0.0185333
691.747	-0.000250244	0.0025943
692.227	-0.00027771	0.00917358
692.687	-0.698792	-0.0185211
693.147	0.000759888	0.00259552
693.627	0.000363159	0.00917053
694.087	-0.697693	-0.0185333
694.547	-0.000271606	0.00260895
695.027	0.000479126	0.00917358
695.487	-0.698822	-0.0185303
695.947	-2.74658e-05	0.00261322
696.427	-0.000384521	0.00917053
696.887	-0.698914	-0.0185333
697.347	0.000714111	0.00261353
697.827	0.000442505	0.00916748
698.287	-0.698303	-0.0185394
698.747	3.05176e-06	0.00262604
699.227	-0.00072937	0.00917053
699.687	-0.69812	-0.0185394
700.147	0.000857544	0.00262848
700.627	0	0.00917053
701.087	-0.698303	-0.0185394
701.547	-0.000219727	0.00263824
702.027	0.000219727	0.00914917
702.487	-0.698273	-0.0185333
702.947	0.000735474	0.00263947
703.427	-0.000671387	0.00915833
703.887	-0.698822	-0.0185333
704.347	0.000454712	0.00264709
704.827	0.000344849	0.00915222
705.287	-0.69873	-0.0185394
705.747	-0.000296021	0.00265259
706.227	-0.000634766	0.00915527
706.687	-0.698181	-0.0185425
707.147	0.000564575	0.00265808
707.627	-0.00065918	0.00915833
708.087	-0.698914	-0.0185455
708.547	0.00072937	0.00266266
709.027	-0.000537109	0.00915527
709.487	-0.698792	-0.0185486
709.947	0.000460815	0.0026709
710.427	-0.000622559	0.00914307
710.887	-0.697784	-0.0185577
711.347	-0.0003479	0.00267822
711.827	-0.000448608	0.00914001
712.287	-0.698669	-0.0185547
712.747	0.00067749	0.00267944
713.227	-0.000668335	0.00914612
713.687	-0.698853	-0.0185516
714.147	0.000650024	0.00268768
714.627	-0.000164795	0.00914917
715.087	-0.698029	-0.0185486
715.547	0.000411987	0.00269318
716.027	-0.000631714	0.00914001
716.487	-0.698578	-0.0185486
716.947	0.000546265	0.00269623
717.427	-0.00071106	0.00912781
717.887	-0.6987	-0.0185547
718.347	-7.62939e-05	0.00271118
718.827	-0.000619507	0.00912781
719.287	-0.698242	-0.0185577
719.747	-9.15527e-05	0.00271393
720.227	0.000393677	0.00912476
720.687	-0.698761	-0.0185638
721.147	-0.000311279	0.00272247
721.627	-0.000390625	0.0091217
722.087	-0.697937	-0.0185669
722.547	-0.000427246	0.00272766
723.027	-0.000488281	0.00912781
723.487	-0.697876	-0.0185699
723.947	-0.000115967	0.00273315
724.427	0.000375366	0.00911255
724.887	-0.698669	-0.018576
725.347	-0.000363159	0.00273834
725.827	0.000424194	0.00911255
726.287	-0.698547	-0.018576
726.747	-0.000115967	0.00274078
727.227	-0.000131226	0.00911255
727.687	-0.698669	-0.0185669
728.147	0.000164795	0.00274902
728.627	0.000320435	0.0091095
729.087	-0.697968	-0.018573
729.547	-0.000259399	0.00275421
730.027	1.2207e-05	0.00911865
730.487	-0.697754	-0.018576
730.947	0.000384521	0.00275604
731.427	-0.000338745	0.0091156
731.887	-0.698669	-0.0185669
732.347	0.000756836	0.00276031
732.827	-0.000271606	0.0091095
733.287	-0.697784	-0.0185883
733.747	0.000460815	0.00276642
734.227	0.000180054	0.00910645
734.687	-0.698883	-0.018576
735.147	0.000790405	0.0027713
735.627	-0.00055542	0.00910645
736.087	-0.697876	-0.0185822
736.547	-0.000357056	0.00278412
737.027	-8.23975e-05	0.00908813
737.487	-0.697998	-0.0185913
737.947	0.000762939	0.00278168
738.427	0.000186157	0.00909424
738.887	-0.698822	-0.0185791
739.347	0.000744629	0.0027887
739.827	-0.000668335	0.00909119
740.287	-0.69812	-0.0185883
740.747	0.000305176	0.00279938
741.227	6.71387e-05	0.00909424
741.687	-0.697845	-0.0185944
742.147	0.000521851	0.00280121
742.627	0.000286865	0.00909119
743.087	-0.698883	-0.0185852
743.547	0.000738525	0.00280487
744.027	0.000497437	0.00908203
744.487	-0.698792	-0.0185852
744.947	0.000387573	0.00280945
745.427	0.000543213	0.00907898
745.887	-0.697845	-0.0185913
746.347	-0.00039978	0.00281799
746.827	-0.000439453	0.00907288
747.287	-0.69873	-0.0185822
747.747	-0.000241089	0.00282623
748.227	0.000308228	0.00906677
748.687	-0.697906	-0.0185974
749.147	0.000466919	0.0028244
749.627	-6.10352e-05	0.00906067
750.087	-0.697845	-0.0185944
750.547	-0.000183105	0.00283722
751.027	0.000363159	0.00906677
751.487	-0.698456	-0.0185974
751.947	0.000363159	0.00283417
752.427	4.27246e-05	0.00906067
752.887	-0.698853	-0.0185944
753.347	0.000595093	0.00283997
753.827	7.01904e-05	0.00905457
754.287	-0.697845	-0.0186035
754.747	0.000756836	0.00284668
755.227	0.000177002	0.00906372
755.687	-0.698486	-0.0185974
756.147	2.74658e-05	0.00285706
756.627	-0.000228882	0.00906067
757.087	-0.697723	-0.0186005
757.547	0.000735474	0.00285797
758.027	-0.000585937	0.00905762
758.487	-0.697754	-0.0186005
758.947	3.05176e-05	0.00286774
759.427	-0.000552368	0.00905457
759.887	-0.698517	-0.0185944
760.347	-0.000189209	0.0028714
760.827	-0.000204468	0.00904541
761.287	-0.697632	-0.0186066
761.747	0.000772095	0.00287079
762.227	-7.32422e-05	0.00904541
762.687	-0.698883	-0.0185974
763.147	0.000717163	0.00288086
763.627	-9.15527e-05	0.00905457
764.087	-0.697754	-0.0186005
764.547	-0.000384521	0.00288849
765.027	0.000354004	0.00903931
765.487	-0.697601	-0.0186035
765.947	-0.000256348	0.00289429
766.427	-0.000646973	0.00903931
766.887	-0.697632	-0.0186127
767.347	0.000112915	0.00289825
767.827	0.000485229	0.00904236
768.287	-0.698364	-0.0186096
768.747	-0.000390625	0.00290588
769.227	-0.0006073	0.0090332
769.687	-0.698792	-0.0186005
770.147	0.000747681	0.00290375
770.627	-0.000360107	0.00903625
771.087	-0.697601	-0.0186096
771.547	-0.000305176	0.00291443
772.027	-0.000476074	0.00902405
772.487	-0.697723	-0.0186127
772.947	7.93457e-05	0.00291779
773.427	-6.10352e-05	0.0090332
773.887	-0.697723	-0.0186096
774.347	-4.57764e-05	0.0029187
774.827	0.000405884	0.00902405
775.287	-0.69812	-0.0186157
775.747	0.000415039	0.0029245
776.227	-0.000289917	0.00901489
776.687	-0.698669	-0.0186157
777.147	0.000662231	0.00292755
777.627	-0.000192261	0.009021
778.087	-0.698456	-0.0186127
778.547	0.000500488	0.00293213
779.027	0.000463867	0.00901489
779.487	-0.698517	-0.0186188
779.947	-0.000198364	0.00293854
780.427	0.000115967	0.00901489
780.887	-0.69873	-0.0186096
781.347	9.46045e-05	0.00294373
781.827	-0.000424194	0.00901489
782.287	-0.698486	-0.0186249
782.747	-0.000372314	0.0029538
783.227	-0.000128174	0.00900879
783.687	-0.698029	-0.0186127
784.147	0.000784302	0.00295135
784.627	6.10352e-06	0.00900879
785.087	-0.698669	-0.0186157
785.547	-0.000115967	0.00296448
786.027	-0.000634766	0.00900269
786.487	-0.697632	-0.0186188
786.947	-0.000204468	0.00296906
787.427	-5.49316e-05	0.00899048
787.887	-0.698883	-0.0186096
788.347	0.000823975	0.00296661
788.827	-6.40869e-05	0.00900269
789.287	-0.697968	-0.0186249
789.747	3.05176e-06	0.00297791
790.227	-0.000543213	0.00899353
790.687	-0.697784	-0.0186279
791.147	-0.000152588	0.00297607
791.627	-0.000744629	0.00899048
792.087	-0.697601	-0.0186279
792.547	-7.32422e-05	0.00298615
793.027	-0.000250244	0.00899353
793.487	-0.69754	-0.0186279
793.947	-0.000115967	0.00299133
794.427	0.000137329	0.00899353
794.887	-0.697662	-0.018631
795.347	0.000564575	0.00299133
795.827	-0.000582886	0.00899658
796.287	-0.69873	-0.0186218
796.747	-0.000152588	0.00299591
797.227	-0.000701904	0.008984375
797.687	-0.698792	-0.0186218
798.147	-0.00032959	0.00300537
798.627	-0.000637817	0.00898743
799.087	-0.698669	-0.0186218
799.547	-0.000234985	0.00300842
800.027	-0.000720215	0.00898132
800.487	-0.698639	-0.0186157
800.947	-0.000354004	0.00301575
801.427	-0.000534058	0.00897522
801.887	-0.697662	-0.0186279
802.347	0.000369263	0.00301788
802.827	0.000585937	0.00897522
803.287	-0.698273	-0.018634
803.747	0.000637817	0.0030188
804.227	0.000354004	0.00897522
804.687	-0.697632	-0.0186371
805.147	-0.000338745	0.00302917
805.627	-0.000622559	0.00897217
806.087	-0.698914	-0.0186249
806.547	0.000115967	0.00302887
807.027	0.000491333	0.00896606
807.487	-0.698883	-0.018631
807.947	0.000646973	0.00303375
808.427	-0.000375366	0.00896606
808.887	-0.697784	-0.0186432
809.347	-0.000140381	0.00304321
809.827	-0.000158691	0.00895081
810.287	-0.69873	-0.0186279
810.747	0.000756836	0.00303925
811.227	-0.000109863	0.00895996
811.687	-0.698029	-0.0186249
812.147	0.000567627	0.00304474
812.627	0.000509644	0.00894775
813.087	-0.698853	-0.018634
813.547	0.000714111	0.00304779
814.027	-0.000820923	0.00895386
814.487	-0.698608	-0.0186401
814.947	-0.000115967	0.00306091
815.427	-0.000616455	0.00895691
815.887	-0.698883	-0.018631
816.347	1.2207e-05	0.00306396
816.827	-7.32422e-05	0.00894165
817.287	-0.697968	-0.0186493
817.747	0.000775146	0.00306152
818.227	0.00045166	0.00895081
818.687	-0.698303	-0.0186401
819.147	3.05176e-06	0.00307281
819.627	-0.000289917	0.0089386
820.087	-0.697937	-0.0186371
820.547	-0.000357056	0.00307861
821.027	-0.000189209	0.0089447
821.487	-0.697632	-0.0186432
821.947	0.000558472	0.00307526
822.427	0.000378418	0.0089386
822.887	-0.697876	-0.0186279
823.347	0.000262451	0.00308075
823.827	-0.000698853	0.00893555
824.287	-0.698334	-0.0186401
824.747	-5.18799e-05	0.00308716
825.227	-0.000717163	0.00892944
825.687	-0.698029	-0.018631
826.147	0.000823975	0.00309052
826.627	-0.000567627	0.00892029
827.087	-0.697632	-0.0186401
827.547	-0.000311279	0.00310059
828.027	-0.000357056	0.00893555
828.487	-0.69751	-0.0186401
828.947	0.000219727	0.00309845
829.427	3.66211e-05	0.00892029
829.887	-0.697906	-0.0186371
830.347	-0.000448608	0.00310852
830.827	-0.000778198	0.00892334
831.287	-0.698761	-0.018634
831.747	0.000796509	0.00310486
832.227	4.88281e-05	0.00892639
832.687	-0.697876	-0.0186401
833.147	3.66211e-05	0.00311188
833.627	0.000540161	0.00892029
834.087	-0.698639	-0.0186371
834.547	0.000753784	0.00311462
835.027	-0.000701904	0.00891418
835.487	-0.698914	-0.018634
835.947	8.54492e-05	0.00312378
836.427	0.000613403	0.00890808
836.887	-0.698212	-0.0186371
837.347	0.000921631	0.00312317
837.827	-0.000653076	0.00890198
838.287	-0.698547	-0.0186432
838.747	0.000701904	0.00312592
839.227	-0.000183105	0.00889587
839.687	-0.698914	-0.0186432
840.147	-0.00010376	0.00313446
840.627	-0.000494385	0.00889893
841.087	-0.697693	-0.0186432
841.547	0.000802612	0.00313538
842.027	-0.000289917	0.00889893
842.487	-0.697906	-0.0186432
842.947	-6.71387e-05	0.00313965
843.427	-0.000436401	0.00889587
843.887	-0.697754	-0.0186462
844.347	-0.000421143	0.00315094
844.827	0.000518799	0.00889893
845.287	-0.698334	-0.018631
845.747	0.000616455	0.00314636
846.227	0.000109863	0.00889587
846.687	-0.697906	-0.0186493
847.147	0	0.00315491
847.627	-0.000256348	0.00888367
848.087	-0.698822	-0.0186401
848.547	0.000860596	0.00315765
849.027	-0.000704956	0.00889282
849.487	-0.6987	-0.018634
849.947	-0.00012207	0.00316284
850.427	0.000476074	0.00888062
850.887	-0.697815	-0.0186432
851.347	-0.000289917	0.00317078
851.827	-0.000604248	0.00888062
852.287	-0.698334	-0.018631
852.747	-0.000335693	0.00317352
853.227	0.000213623	0.00889282
853.687	-0.697754	-0.0186493
854.147	0.000271606	0.00317963
854.627	-0.000622559	0.00887756
855.087	-0.697632	-0.0186432
855.547	-2.74658e-05	0.00318146
856.027	-0.000537109	0.00887451
856.487	-0.698334	-0.0186462
856.947	6.71387e-05	0.00318512
857.427	0.000421143	0.00887146
857.887	-0.698303	-0.0186523
858.347	0.000817871	0.0031842
858.827	-0.000354004	0.00887451
859.287	-0.698364	-0.018634
859.747	0.000140381	0.00319733
860.227	0.000558472	0.00887451
860.687	-0.697723	-0.0186432
861.147	0.000704956	0.00319519
861.627	-0.000506592	0.00887756
862.087	-0.69809	-0.0186401
862.547	0.000808716	0.00319733
863.027	-0.000643921	0.00887146
863.487	-0.697571	-0.0186462
863.947	0.000653076	0.00320038
864.427	-0.000119019	0.0088623
864.887	-0.698456	-0.0186493
865.347	0.000576782	0.00320435
865.827	-0.000793457	0.00885925
866.287	-0.697815	-0.0186493
866.747	0.000473022	0.00320923
867.227	2.13623e-05	0.00885315
867.687	-0.697693	-0.0186493
868.147	0.00027771	0.00321777
868.627	0.000518799	0.00885315
869.087	-0.698822	-0.0186371
869.547	-0.000305176	0.00322388
870.027	0.000479126	0.0088562
870.487	-0.698151	-0.0186462
870.947	-0.000323486	0.00323059
871.427	-0.000787354	0.0088501
871.887	-0.698456	-0.0186401
872.347	0.000863647	0.00322601
872.827	-0.000341797	0.00885315
873.287	-0.698242	-0.0186432
873.747	-0.000372314	0.00323761
874.227	0.000442505	0.00884705
874.687	-0.697723	-0.0186432
875.147	-0.000143433	0.00324097
875.627	0.000479126	0.00884094
876.087	-0.698334	-0.0186371
876.547	-0.000195313	0.00324615
877.027	-0.000747681	0.00884399
877.487	-0.698059	-0.0186432
877.947	0.000131226	0.00324341
878.427	0.000262451	0.00883179
878.887	-0.697784	-0.0186523
879.347	0.000799561	0.00324524
879.827	-0.000668335	0.00883179
880.287	-0.697876	-0.0186554
880.747	-0.000430298	0.00325653
881.227	-0.00017395	0.00884094
881.647	0.000869751	0.00105499