File: Edgar/20240607/20240607/electrodeposition_pulsed_potential_20240607_C/pulses_1000_to_2000.txt
Time (s)	WE(1).Potential (V)	WE(1).Current (A)
890.203	-0.697998	-0.0197296
890.663	-0.000241089	0.002734375
891.143	-9.46045e-05	0.00854492
891.603	-0.698761	-0.0187592
892.063	-9.46045e-05	0.00309143
892.543	0.000280762	0.00866699
893.003	-0.698639	-0.0187195
893.463	-0.00038147	0.0031543
893.943	0.000283813	0.00871887
894.403	-0.698547	-0.0187103
894.863	1.52588e-05	0.0031781
895.343	0.000497437	0.00873718
895.803	-0.698914	-0.018689
896.263	-0.000366211	0.00320709
896.743	0.000250244	0.00874634
897.203	-0.698486	-0.0186768
897.663	0.000140381	0.0032193
898.143	-0.000234985	0.00875244
898.603	-0.698853	-0.0186768
899.063	0.000765991	0.00322906
899.543	-0.000128174	0.0087738
900.003	-0.698578	-0.0186646
900.463	0.000918579	0.00324005
900.943	0.000283813	0.0087677
901.403	-0.697998	-0.0186676
901.863	0.000592041	0.00325226
902.343	0.000323486	0.00877686
902.803	-0.698822	-0.0186676
903.263	-0.000384521	0.00326447
903.743	-0.000698853	0.00877686
904.203	-0.698761	-0.0186615
904.663	0.000274658	0.00326721
905.143	-0.000622559	0.00877075
905.603	-0.697968	-0.0186615
906.063	-0.00020752	0.00327423
906.543	-0.000402832	0.0087738
907.003	-0.698029	-0.0186523
907.463	0.000680542	0.00328094
907.943	-0.00020752	0.0087738
908.403	-0.697784	-0.0186615
908.863	-0.000323486	0.00329346
909.343	4.88281e-05	0.00878296
909.803	-0.698853	-0.0186554
910.263	0.000689697	0.00329102
910.743	-0.000552368	0.00877991
911.203	-0.697968	-0.0186584
911.663	0.000949097	0.00329895
912.143	-0.000372314	0.00879211
912.603	-0.69812	-0.0186462
913.063	-0.000408936	0.00331146
913.543	0.000445557	0.0087738
914.003	-0.699036	-0.0186523
914.463	0.00078125	0.00330872
914.943	6.40869e-05	0.00877686
915.403	-0.698212	-0.0186432
915.863	0.000765991	0.00331329
916.343	-0.000460815	0.00877686
916.803	-0.697632	-0.0186462
917.263	0.000201416	0.00332642
917.743	0.000518799	0.0087738
918.203	-0.697693	-0.0186493
918.663	-0.000341797	0.00333191
919.143	0.000326538	0.00877686
919.603	-0.697784	-0.0186462
920.063	9.15527e-06	0.00333649
920.543	0.000201416	0.00877686
921.003	-0.698914	-0.0186371
921.463	-5.18799e-05	0.00334076
921.943	0.000134277	0.0087738
922.403	-0.698883	-0.0186432
922.863	0.000872803	0.00333832
923.343	0.000280762	0.0087677
923.803	-0.697968	-0.0186462
924.263	0.000802612	0.00334198
924.743	-0.000479126	0.0087738
925.203	-0.697632	-0.0186401
925.663	-0.000204468	0.00335419
926.143	-0.000686646	0.0087738
926.603	-0.69812	-0.0186371
927.063	-0.000338745	0.00335693
927.543	0.000241089	0.00875854
928.003	-0.698486	-0.0186371
928.463	-0.000463867	0.00336334
928.943	7.32422e-05	0.0087677
929.403	-0.697968	-0.018634
929.863	-0.000393677	0.0033667
930.343	0.000479126	0.0087616
930.803	-0.697601	-0.0186401
931.263	0.00085144	0.00336426
931.743	-0.000424194	0.0087616
932.203	-0.698334	-0.018634
932.663	-0.000115967	0.00337189
933.143	0.00020752	0.00876465
933.603	-0.698761	-0.018631
934.063	0.000683594	0.00337463
934.543	0.00017395	0.00875549
935.003	-0.697998	-0.018634
935.463	0.000674438	0.0033783
935.943	-0.000582886	0.00876465
936.403	-0.698151	-0.018634
936.863	0.000588989	0.00338348
937.343	-0.000262451	0.00875244
937.803	-0.697876	-0.0186401
938.263	-0.000378418	0.00339447
938.743	0.00020752	0.00874634
939.203	-0.697784	-0.0186432
939.663	-0.000537109	0.00339722
940.143	-0.000637817	0.00875854
940.603	-0.697723	-0.0186371
941.063	0.000839233	0.00339233
941.543	-0.000637817	0.00875854
942.003	-0.698486	-0.0186371
942.463	-0.000192261	0.00340027
942.943	-3.66211e-05	0.00875244
943.403	-0.6987	-0.0186249
943.863	1.52588e-05	0.00340546
944.343	-0.000384521	0.00874329
944.803	-0.698853	-0.018634
945.263	0.000274658	0.00340515
945.743	0.00057373	0.00874023
946.203	-0.697998	-0.018634
946.663	-0.000445557	0.00341217
947.143	0.000271606	0.00874329
947.603	-0.697601	-0.0186371
948.063	0.00017395	0.00341217
948.543	9.15527e-06	0.00874634
949.003	-0.698883	-0.0186371
949.463	0.000772095	0.00341431
949.943	-0.000634766	0.00874634
950.403	-0.697693	-0.018631
950.863	0.000390625	0.00341797
951.343	-0.000375366	0.00874023
951.803	-0.698456	-0.018631
952.263	-0.000439453	0.00342987
952.743	-0.000466919	0.00873413
953.203	-0.69873	-0.018634
953.663	0.000793457	0.00342438
954.143	0.000506592	0.00872803
954.603	-0.698151	-0.0186401
955.063	-0.000296021	0.00343597
955.543	-0.000637817	0.00873718
956.003	-0.697601	-0.0186371
956.463	-0.000405884	0.00343872
956.943	0.000158691	0.00874329
957.403	-0.697906	-0.0186279
957.863	0.000119019	0.00344421
958.343	-0.000585937	0.00873108
958.803	-0.698822	-0.0186279
959.263	0.00083313	0.00343872
959.743	0.000238037	0.00871887
960.203	-0.699036	-0.0186218
960.663	0.000180054	0.00344482
961.143	0.000518799	0.00872192
961.603	-0.697784	-0.018634
962.063	7.01904e-05	0.00344818
962.543	0.000204468	0.00872803
963.003	-0.697998	-0.0186218
963.463	-6.71387e-05	0.00345673
963.943	-0.000708008	0.00871582
964.403	-0.69754	-0.018631
964.863	0.000430298	0.00345245
965.343	-0.000405884	0.00872192
965.803	-0.698883	-0.0186279
966.263	0.000585937	0.00345428
966.743	-0.000717163	0.00871887
967.203	-0.698334	-0.0186279
967.663	0.000463867	0.00345825
968.143	-0.00043335	0.00871277
968.603	-0.697754	-0.0186249
969.063	0.000830078	0.00346466
969.543	-0.000393677	0.00871582
970.003	-0.698669	-0.0186279
970.463	0.000491333	0.00346588
970.943	0.000357056	0.00869751
971.403	-0.697784	-0.0186157
971.863	0.000802612	0.00346832
972.343	0.000506592	0.00870972
972.803	-0.698883	-0.0186188
973.263	0.000741577	0.00347198
973.743	-0.000796509	0.00870056
974.203	-0.697784	-0.0186279
974.663	-0.000488281	0.00348297
975.143	0.000152588	0.00869751
975.603	-0.698914	-0.0186157
976.063	0.000747681	0.00347931
976.543	0.000408936	0.00869446
977.003	-0.697845	-0.018634
977.463	-0.000354004	0.00348969
977.943	-0.000680542	0.00870361
978.403	-0.698059	-0.0186279
978.863	0.000747681	0.00348541
979.343	0.000378418	0.00870056
979.803	-0.698639	-0.0186188
980.263	0.000442505	0.00349457
980.743	0.00027771	0.00869751
981.203	-0.698212	-0.0186157
981.663	0.000482178	0.00349396
982.143	0.000469971	0.00868835
982.603	-0.697662	-0.0186279
983.063	-0.000161743	0.00350037
983.543	0.000402832	0.00868835
984.003	-0.697601	-0.0186188
984.463	0.000753784	0.00349762
984.943	-0.00062561	0.00868835
985.403	-0.698364	-0.0186157
985.863	-0.000473022	0.00350769
986.343	-0.000769043	0.00869141
986.803	-0.697601	-0.0186249
987.263	-0.000378418	0.00351105
987.743	-2.44141e-05	0.00867615
988.203	-0.698608	-0.0186279
988.663	0.000747681	0.00350494
989.143	0.000485229	0.00867615
989.603	-0.698364	-0.0186218
990.063	0.000799561	0.00350952
990.543	0.000186157	0.0086792
991.003	-0.698669	-0.0186127
991.463	-0.00022583	0.00352142
991.943	0.000234985	0.00867615
992.403	-0.698669	-0.0186218
992.863	-0.000344849	0.00352142
993.343	0.000198364	0.00867004
993.803	-0.698425	-0.0186249
994.263	-0.000436401	0.003526
994.743	-3.66211e-05	0.00865784
995.203	-0.697784	-0.0186188
995.663	0.000796509	0.00352173
996.143	-0.000137329	0.0086731
996.603	-0.697723	-0.0186249
997.063	-0.000378418	0.0035321
997.543	0.000137329	0.00865784
998.003	-0.698792	-0.0186066
998.463	-0.000280762	0.00353455
998.943	-0.000570679	0.00867004
999.403	-0.69812	-0.0186218
999.863	-0.000402832	0.00353729
1000.34	0.000476074	0.00865479
1000.8	-0.697632	-0.0186188
1001.26	0.000823975	0.00353302
1001.74	0.000302124	0.00866699
1002.2	-0.697815	-0.0186218
1002.66	0.000302124	0.00353607
1003.14	0.000158691	0.00866394
1003.6	-0.697876	-0.0186218
1004.06	-0.000186157	0.00354584
1004.54	8.54492e-05	0.00865479
1005	-0.697662	-0.0186218
1005.46	-0.000387573	0.0035498
1005.94	-0.000543213	0.00865479
1006.4	-0.698303	-0.0186066
1006.86	-0.000311279	0.0035495
1007.34	0.000488281	0.00865173
1007.8	-0.698364	-0.0186218
1008.26	0.000650024	0.0035498
1008.74	-0.000186157	0.00863953
1009.2	-0.69809	-0.0186188
1009.66	0.000854492	0.00355103
1010.14	-0.000137329	0.00863953
1010.6	-0.697754	-0.0186096
1011.06	0.00057373	0.00355438
1011.54	-0.000479126	0.00865784
1012	-0.697784	-0.0186157
1012.46	-0.000418091	0.00356384
1012.94	0.000500488	0.00863647
1013.4	-0.697723	-0.0186127
1013.86	-0.000372314	0.00356598
1014.34	-0.000549316	0.00864258
1014.8	-0.698761	-0.0186035
1015.26	0.000210571	0.00356201
1015.74	-0.000686646	0.00864563
1016.2	-0.697662	-0.0186188
1016.66	0.000790405	0.00356476
1017.14	-0.000170898	0.00863037
1017.6	-0.698364	-0.0186035
1018.06	-9.76562e-05	0.00357391
1018.54	0.000491333	0.00863342
1019	-0.697784	-0.0186188
1019.46	-0.000439453	0.00357849
1019.94	-0.000708008	0.00863647
1020.4	-0.697998	-0.0186035
1020.86	0.000405884	0.00357941
1021.34	-0.000415039	0.00864258
1021.8	-0.698486	-0.0186035
1022.26	-0.000164795	0.00358429
1022.74	-0.000485229	0.00862122
1023.2	-0.6987	-0.0186035
1023.66	-4.88281e-05	0.00358643
1024.14	0.000363159	0.00862122
1024.6	-0.697815	-0.0186157
1025.06	-0.000262451	0.00358826
1025.54	-0.000808716	0.00863037
1026	-0.697815	-0.0186096
1026.46	-0.000271606	0.00359375
1026.94	-0.000726318	0.00862122
1027.4	-0.698029	-0.0186035
1027.86	0.000518799	0.00358978
1028.34	-0.000701904	0.00861511
1028.8	-0.698914	-0.0186035
1029.26	0.000540161	0.00359039
1029.74	0.000241089	0.00862122
1030.2	-0.697693	-0.0186066
1030.66	-0.000402832	0.00359924
1031.14	-0.000650024	0.00861511
1031.6	-0.698486	-0.0186096
1032.06	-0.000405884	0.00360413
1032.54	7.62939e-05	0.00860291
1033	-0.698547	-0.0185974
1033.46	0.000643921	0.00359833
1033.94	-0.000701904	0.00861511
1034.4	-0.697906	-0.0186096
1034.86	9.76562e-05	0.00360229
1035.34	4.88281e-05	0.00860901
1035.8	-0.69751	-0.0186096
1036.26	-0.000167847	0.00360992
1036.74	-0.000637817	0.00860901
1037.2	-0.698914	-0.0186005
1037.66	-0.000445557	0.00361053
1038.14	-0.000772095	0.00860596
1038.6	-0.697693	-0.0186066
1039.06	0.000299072	0.0036087
1039.54	-0.000732422	0.00860901
1040	-0.698853	-0.0186005
1040.46	0.000390625	0.0036145
1040.94	-0.000100708	0.00859985
1041.4	-0.6987	-0.0186096
1041.86	-0.000292969	0.00361847
1042.34	0.000479126	0.00859375
1042.8	-0.698792	-0.0186005
1043.26	-0.000311279	0.00362122
1043.74	0.000360107	0.00859375
1044.2	-0.69873	-0.0186066
1044.66	0.000860596	0.00362091
1045.14	-0.000695801	0.00859375
1045.6	-0.697845	-0.0186005
1046.06	-0.000152588	0.00362701
1046.54	0.000488281	0.0085907
1047	-0.698151	-0.0185944
1047.46	-0.000231934	0.0036319
1047.94	-0.000653076	0.00858765
1048.4	-0.698303	-0.0185974
1048.86	0.000604248	0.0036264
1049.34	-0.000796509	0.00858459
1049.8	-0.698212	-0.0186035
1050.26	-0.000558472	0.00363556
1050.74	-0.000686646	0.00858765
1051.2	-0.698883	-0.0186005
1051.66	0.000650024	0.00363159
1052.14	0.000405884	0.00858459
1052.6	-0.697876	-0.0185913
1053.06	-0.000137329	0.00363892
1053.54	0.000521851	0.00857849
1054	-0.698242	-0.0186066
1054.46	-3.05176e-06	0.00364014
1054.94	-0.00065918	0.00858765
1055.4	-0.698456	-0.0185974
1055.86	-0.000469971	0.00364807
1056.34	-0.000708008	0.00857849
1056.8	-0.697754	-0.0186005
1057.26	0.000506592	0.00364288
1057.74	0.000317383	0.00856628
1058.2	-0.698059	-0.0185944
1058.66	0.000744629	0.00364532
1059.14	-0.000531006	0.00858154
1059.6	-0.697906	-0.0185974
1060.06	0.000476074	0.00364838
1060.54	-0.000314331	0.00857849
1061	-0.697662	-0.0186035
1061.46	0.000726318	0.0036496
1061.94	-0.000708008	0.00856934
1062.4	-0.697693	-0.0186005
1062.86	0.00055542	0.00365417
1063.34	-0.000186157	0.00857849
1063.8	-0.698944	-0.0185974
1064.26	-0.000350952	0.00366302
1064.74	0.000509644	0.00856323
1065.2	-0.697632	-0.0185944
1065.66	0.000494385	0.00365936
1066.14	0.000512695	0.00855408
1066.6	-0.698212	-0.0185944
1067.06	5.49316e-05	0.0036615
1067.54	6.40869e-05	0.00855103
1068	-0.698242	-0.0185913
1068.46	0.000250244	0.0036676
1068.94	0.000531006	0.00855408
1069.4	-0.698242	-0.0185944
1069.86	-0.000442505	0.0036731
1070.34	0.000390625	0.00855713
1070.8	-0.697601	-0.0185944
1071.26	-0.000265503	0.0036731
1071.74	0.000521851	0.00855408
1072.2	-0.697723	-0.0185944
1072.66	0.000216675	0.00367035
1073.14	0.000485229	0.00854797
1073.6	-0.698059	-0.0185913
1074.06	0.000665283	0.00367401
1074.54	0.000469971	0.00854492
1075	-0.698486	-0.0185944
1075.46	0.000747681	0.00367615
1075.94	-0.000253296	0.00854492
1076.4	-0.698883	-0.0185852
1076.86	0.000775146	0.00367767
1077.34	-0.000662231	0.00855103
1077.8	-0.697845	-0.0185883
1078.26	-0.000534058	0.00368683
1078.74	0.000491333	0.00853882
1079.2	-0.698792	-0.0185883
1079.66	0.000140381	0.00368958
1080.14	0.000332642	0.00852966
1080.6	-0.697693	-0.0185913
1081.06	0.000387573	0.00368683
1081.54	6.40869e-05	0.00854187
1082	-0.698517	-0.0185822
1082.46	0.000280762	0.00369202
1082.94	0.000137329	0.00853271
1083.4	-0.698669	-0.0185883
1083.86	4.27246e-05	0.00369843
1084.34	3.35693e-05	0.00854492
1084.8	-0.698029	-0.0185944
1085.26	2.44141e-05	0.00369598
1085.74	-0.000341797	0.00852966
1086.2	-0.698944	-0.0185791
1086.66	0.000772095	0.00369659
1087.14	0.000469971	0.00853271
1087.6	-0.698883	-0.0185913
1088.06	-0.000415039	0.00370514
1088.54	-0.000549316	0.00852356
1089	-0.698883	-0.018576
1089.46	0.00085144	0.00370117
1089.94	-0.000762939	0.00852356
1090.4	-0.697632	-0.0185852
1090.86	0.000604248	0.00369995
1091.34	0.000292969	0.00852661
1091.8	-0.698761	-0.018573
1092.26	0.000283813	0.00370819
1092.74	0.000387573	0.00852051
1093.2	-0.698395	-0.018573
1093.66	0.000408936	0.00371033
1094.14	0.000271606	0.00851746
1094.6	-0.697754	-0.0185883
1095.06	0.000366211	0.00371246
1095.54	0.000296021	0.00852661
1096	-0.697662	-0.0185883
1096.46	0.000793457	0.00371094
1096.94	-0.000698853	0.00852356
1097.4	-0.697937	-0.0185852
1097.86	0.000115967	0.00371643
1098.34	-9.15527e-05	0.00851746
1098.8	-0.698853	-0.018573
1099.26	-0.000354004	0.00372467
1099.74	0.000488281	0.0085083
1100.2	-0.697693	-0.0185822
1100.66	-0.000418091	0.00372742
1101.14	0.00022583	0.0085144
1101.6	-0.697632	-0.0185822
1102.06	-0.000292969	0.00372498
1102.54	0.000537109	0.0085083
1103	-0.698486	-0.018576
1103.46	-0.000418091	0.00373138
1103.94	0.000439453	0.00850525
1104.4	-0.697693	-0.0185791
1104.86	-0.000360107	0.00373413
1105.34	0.000213623	0.00849915
1105.8	-0.698608	-0.0185822
1106.26	0.000244141	0.00373352
1106.74	-0.000668335	0.00850525
1107.2	-0.698059	-0.018576
1107.66	-0.000137329	0.00373932
1108.14	-0.000698853	0.0085022
1108.6	-0.698273	-0.0185791
1109.06	-0.000283813	0.00373962
1109.54	-0.000216675	0.0085083
1110	-0.698029	-0.0185852
1110.46	-0.000112915	0.00373993
1110.94	0.000201416	0.00849304
1111.4	-0.697815	-0.0185699
1111.86	-0.000372314	0.00374573
1112.34	0.00045166	0.00849915
1112.8	-0.698273	-0.018576
1113.26	0.000878906	0.00373993
1113.74	-0.000149536	0.00849915
1114.2	-0.697632	-0.018573
1114.66	7.93457e-05	0.00374542
1115.14	-0.000610352	0.00849915
1115.6	-0.698853	-0.018576
1116.06	-0.000366211	0.00375366
1116.54	0.000418091	0.00848389
1117	-0.697662	-0.018576
1117.46	0.000823975	0.00374756
1117.94	-0.000308228	0.00847778
1118.4	-0.698822	-0.0185699
1118.86	-0.000509644	0.00375641
1119.34	0.000521851	0.00848389
1119.8	-0.698303	-0.0185669
1120.26	0.000778198	0.00375214
1120.74	0.000463867	0.00848083
1121.2	-0.698853	-0.0185608
1121.66	-0.000238037	0.0037619
1122.14	-0.000323486	0.00847473
1122.6	-0.698883	-0.0185638
1123.06	0.000592041	0.00375671
1123.54	0.000323486	0.00847778
1124	-0.698639	-0.0185699
1124.46	-0.000344849	0.0037677
1124.94	-0.000283813	0.00847168
1125.4	-0.697784	-0.0185699
1125.86	-0.000320435	0.00376709
1126.34	0.000366211	0.00847473
1126.8	-0.69812	-0.018573
1127.26	-0.000183105	0.00376801
1127.74	0.000396729	0.00847473
1128.2	-0.698181	-0.018573
1128.66	0.000341797	0.00377014
1129.14	-0.000564575	0.00846863
1129.6	-0.698944	-0.0185608
1130.06	0.000543213	0.00377289
1130.54	-0.000692749	0.00846558
1131	-0.697998	-0.0185608
1131.46	0.000790405	0.00377045
1131.94	-3.05176e-05	0.00845947
1132.4	-0.697662	-0.0185669
1132.86	0.00067749	0.00377228
1133.34	-0.000552368	0.00847168
1133.8	-0.69873	-0.0185699
1134.26	-0.000439453	0.00378326
1134.74	-0.000271606	0.00846863
1135.2	-0.69809	-0.0185547
1135.66	-7.32422e-05	0.0037851
1136.14	0.000292969	0.00847168
1136.6	-0.697693	-0.0185608
1137.06	0.000680542	0.00378113
1137.54	0.000518799	0.00845947
1138	-0.697937	-0.0185699
1138.46	-0.000421143	0.00378937
1138.94	7.01904e-05	0.00845032
1139.4	-0.698181	-0.0185608
1139.86	0.000701904	0.0037854
1140.34	-0.00043335	0.00846252
1140.8	-0.698395	-0.0185547
1141.26	4.88281e-05	0.00379364
1141.74	-0.000500488	0.00845337
1142.2	-0.697632	-0.0185638
1142.66	-0.000323486	0.00379364
1143.14	-0.000689697	0.00845337
1143.6	-0.698853	-0.0185547
1144.06	0.00032959	0.00379425
1144.54	-0.000726318	0.00845032
1145	-0.697937	-0.0185638
1145.46	-0.000344849	0.00379852
1145.94	0.000387573	0.00845032
1146.4	-0.697937	-0.0185638
1146.86	0.000524902	0.00379272
1147.34	-0.000646973	0.00845032
1147.8	-0.698303	-0.0185516
1148.26	-8.8501e-05	0.00380402
1148.74	0.000247192	0.00844727
1149.2	-0.697998	-0.0185638
1149.66	-0.000314331	0.00380402
1150.14	-8.8501e-05	0.00845032
1150.6	-0.698547	-0.0185577
1151.06	-0.000390625	0.00380981
1151.54	-1.83105e-05	0.00844727
1152	-0.6987	-0.0185608
1152.46	-0.000109863	0.00381256
1152.94	0.000497437	0.00843506
1153.4	-0.698639	-0.0185547
1153.86	5.49316e-05	0.0038089
1154.34	0.000344849	0.00843201
1154.8	-0.697845	-0.0185516
1155.26	0.00050354	0.00381165
1155.74	0.00043335	0.00842896
1156.2	-0.698059	-0.0185425
1156.66	0.000714111	0.00381165
1157.14	0.000152588	0.00842896
1157.6	-0.698212	-0.0185577
1158.06	0.00045166	0.00381195
1158.54	0.000640869	0.00843811
1159	-0.698883	-0.0185455
1159.46	-5.18799e-05	0.00382172
1159.94	-0.000631714	0.00843201
1160.4	-0.697662	-0.0185577
1160.86	-0.000247192	0.00382141
1161.34	-0.000143433	0.0084198
1161.8	-0.697571	-0.0185486
1162.26	-0.000115967	0.00382263
1162.74	0.000521851	0.0084198
1163.2	-0.6987	-0.0185516
1163.66	0.000302124	0.00382172
1164.14	0.000619507	0.00842285
1164.6	-0.698059	-0.0185425
1165.06	0.000765991	0.00382446
1165.54	-0.00065918	0.0084259
1166	-0.697662	-0.0185486
1166.46	-0.00027771	0.00383301
1166.94	-0.000576782	0.0084259
1167.4	-0.6987	-0.0185455
1167.86	3.96729e-05	0.00383301
1168.34	-0.000500488	0.00842896
1168.8	-0.697662	-0.0185486
1169.26	-0.000479126	0.00383667
1169.74	0.000494385	0.00841675
1170.2	-0.698425	-0.0185425
1170.66	0.000717163	0.00383362
1171.14	-0.000619507	0.00841675
1171.6	-0.698883	-0.0185425
1172.06	0	0.00384033
1172.54	0.000241089	0.00840454
1173	-0.698578	-0.0185364
1173.46	0.000189209	0.00383789
1173.94	-0.000177002	0.00841675
1174.4	-0.697937	-0.0185455
1174.86	0.000723267	0.00383881
1175.34	-0.000656128	0.00840149
1175.8	-0.698456	-0.0185364
1176.26	0.000509644	0.0038382
1176.74	-0.000424194	0.00841064
1177.2	-0.698883	-0.0185394
1177.66	0.000134277	0.00384583
1178.14	-0.000643921	0.00840759
1178.6	-0.697632	-0.0185425
1179.06	1.52588e-05	0.00384949
1179.54	-0.000549316	0.00840149
1180	-0.69809	-0.0185364
1180.46	-0.000192261	0.00385345
1180.94	0.000363159	0.00839539
1181.4	-0.697601	-0.0185425
1181.86	0.000546265	0.00384674
1182.34	-0.0003479	0.00840759
1182.8	-0.698425	-0.0185425
1183.26	0.000570679	0.00385254
1183.74	0.000292969	0.00839844
1184.2	-0.697968	-0.0185303
1184.66	0.000408936	0.00385193
1185.14	-0.000445557	0.00838928
1185.6	-0.697723	-0.0185364
1186.06	-0.000274658	0.00386078
1186.54	-0.000265503	0.00838928
1187	-0.698883	-0.0185364
1187.46	0.000314331	0.00386169
1187.94	0.000463867	0.00839539
1188.4	-0.697784	-0.0185455
1188.86	-0.000201416	0.00386597
1189.34	-0.000579834	0.00838928
1189.8	-0.698822	-0.0185303
1190.26	0.000567627	0.00386017
1190.74	-0.000418091	0.00838318
1191.2	-0.697632	-0.0185394
1191.66	0.00078125	0.00386169
1192.14	0.000506592	0.00838318
1192.6	-0.698639	-0.0185242
1193.06	0.000744629	0.00386353
1193.54	0.000457764	0.00838318
1194	-0.698517	-0.0185394
1194.46	0.000802612	0.00386627
1194.94	0.000308228	0.00838318
1195.4	-0.698517	-0.0185272
1195.86	0.000750732	0.00386871
1196.34	0.000527954	0.00838318
1196.8	-0.698669	-0.0185272
1197.26	0.000811768	0.00386963
1197.74	-0.000457764	0.00837708
1198.2	-0.698303	-0.0185394
1198.66	-0.000476074	0.00387848
1199.14	-0.000491333	0.00838318
1199.6	-0.697571	-0.0185394
1200.06	-0.000311279	0.00388153
1200.54	-0.000393677	0.00837402
1201	-0.698944	-0.0185303
1201.46	0.000753784	0.00387726
1201.94	-0.000604248	0.00837708
1202.4	-0.697937	-0.0185303
1202.86	0.000283813	0.00387939
1203.34	-0.000531006	0.00836487
1203.8	-0.697784	-0.0185333
1204.26	0.000512695	0.0038858
1204.74	8.23975e-05	0.00836182
1205.2	-0.698669	-0.0185181
1205.66	0.000585937	0.00388428
1206.14	8.8501e-05	0.00837097
1206.6	-0.697998	-0.0185394
1207.06	0.000186157	0.0038858
1207.54	0.000131226	0.00837097
1208	-0.697693	-0.0185272
1208.46	-9.46045e-05	0.00388977
1208.94	-7.62939e-05	0.00837097
1209.4	-0.697723	-0.0185242
1209.86	0.000234985	0.00389526
1210.34	-0.000704956	0.00836182
1210.8	-0.698669	-0.0185181
1211.26	0.000320435	0.00389404
1211.74	0.000445557	0.00835266
1212.2	-0.698914	-0.0185181
1212.66	-0.000109863	0.00389557
1213.14	-0.000415039	0.00836792
1213.6	-0.698792	-0.018512
1214.06	-0.000195313	0.00390015
1214.54	0.000115967	0.00835266
1215	-0.698608	-0.018515
1215.46	-0.000537109	0.00390045
1215.94	-0.000500488	0.00835266
1216.4	-0.697906	-0.018515
1216.86	0.000537109	0.00389832
1217.34	-0.000445557	0.00836182
1217.8	-0.698456	-0.018515
1218.26	0.000488281	0.00390228
1218.74	0.000231934	0.00835266
1219.2	-0.698547	-0.018515
1219.66	0.000518799	0.00390076
1220.14	-0.000164795	0.00834656
1220.6	-0.697876	-0.0185211
1221.06	0.000335693	0.00390869
1221.54	0.000283813	0.00834656
1222	-0.69809	-0.0185181
1222.46	0.000784302	0.00390503
1222.94	0.000393677	0.00834656
1223.4	-0.697662	-0.0185181
1223.86	-0.000393677	0.00391357
1224.34	7.93457e-05	0.00834351
1224.8	-0.698456	-0.018512
1225.26	-0.000332642	0.00391541
1225.74	9.15527e-06	0.00834351
1226.2	-0.698181	-0.0185181
1226.66	0.00012207	0.00391052
1227.14	7.62939e-05	0.00835266
1227.6	-0.697693	-0.0185181
1228.06	-0.00022583	0.00391602
1228.54	0.00039978	0.00834351
1229	-0.698853	-0.018515
1229.46	3.05176e-05	0.00391998
1229.94	-0.000671387	0.0083374
1230.4	-0.69809	-0.0185242
1230.86	-0.000332642	0.00392303
1231.34	0.000500488	0.00832825
1231.8	-0.698486	-0.0185211
1232.26	-0.000131226	0.00392548
1232.74	-0.000476074	0.0083374
1233.2	-0.698914	-0.0185059
1233.66	0.000665283	0.00392151
1234.14	0.00038147	0.00832825
1234.6	-0.698547	-0.0185059
1235.06	0.000436401	0.00392059
1235.54	0.000497437	0.0083252
1236	-0.698883	-0.0185089
1236.46	-0.000299072	0.00392853
1236.94	-5.18799e-05	0.00832214
1237.4	-0.698822	-0.0185089
1237.86	5.49316e-05	0.00393127
1238.34	-0.000549316	0.0083313
1238.8	-0.698029	-0.018512
1239.26	0.000775146	0.00392731
1239.74	6.71387e-05	0.00831909
1240.2	-0.698364	-0.0185089
1240.66	0.000344849	0.00392853
1241.14	-9.46045e-05	0.00831604
1241.6	-0.698792	-0.018512
1242.06	-0.00020752	0.00393494
1242.54	0.000497437	0.00831909
1243	-0.698273	-0.018515
1243.46	-0.000238037	0.00393738
1243.94	0.000515747	0.0083252
1244.4	-0.698853	-0.0185059
1244.86	0.000778198	0.0039325
1245.34	-0.000222778	0.00832214
1245.8	-0.698395	-0.018512
1246.26	6.40869e-05	0.00394135
1246.74	-9.15527e-06	0.00831909
1247.2	-0.698608	-0.0184967
1247.66	0.000756836	0.00393707
1248.14	-2.13623e-05	0.00831909
1248.6	-0.697876	-0.018515
1249.06	0.000509644	0.00394135
1249.54	0.0003479	0.00831909
1250	-0.6987	-0.0185028
1250.46	0.000769043	0.00393951
1250.94	-0.000286865	0.00831909
1251.4	-0.698883	-0.0185059
1251.86	0.000787354	0.00394226
1252.34	-0.000405884	0.00831604
1252.8	-0.697754	-0.0185089
1253.26	0.000668335	0.00394379
1253.74	0.000506592	0.00830688
1254.2	-0.698914	-0.0185028
1254.66	-0.000317383	0.00395233
1255.14	8.8501e-05	0.00831299
1255.6	-0.698639	-0.0184998
1256.06	-0.000311279	0.0039566
1256.54	0.000317383	0.00830078
1257	-0.698334	-0.0185089
1257.46	0.000488281	0.00395264
1257.94	-0.000213623	0.00830688
1258.4	-0.698975	-0.0184906
1258.86	-0.000415039	0.00395874
1259.34	-0.000561523	0.00830688
1259.8	-0.697784	-0.0184998
1260.26	0.000198364	0.00395844
1260.74	0.000320435	0.00829163
1261.2	-0.697815	-0.0184998
1261.66	-0.00043335	0.00395874
1262.14	0.000213623	0.00830078
1262.6	-0.698364	-0.0184998
1263.06	-0.000448608	0.00396393
1263.54	-4.27246e-05	0.00829468
1264	-0.698029	-0.0184906
1264.46	0.000778198	0.00395721
1264.94	0.000326538	0.00828247
1265.4	-0.69873	-0.0184875
1265.86	-0.000408936	0.0039682
1266.34	0.000512695	0.00828247
1266.8	-0.698456	-0.0184875
1267.26	0.000888062	0.0039621
1267.74	-0.000402832	0.00827637
1268.2	-0.697662	-0.0185028
1268.66	0.000369263	0.00396637
1269.14	-0.000482178	0.00828247
1269.6	-0.698883	-0.0184906
1270.06	-0.000415039	0.00397247
1270.54	0.000424194	0.00828552
1271	-0.698975	-0.0184906
1271.46	0.000543213	0.00396637
1271.94	0.00027771	0.00828552
1272.4	-0.698242	-0.0184906
1272.86	0.00072937	0.00396759
1273.34	0.000402832	0.00828247
1273.8	-0.698273	-0.0184875
1274.26	-0.000424194	0.00397797
1274.74	-0.00071106	0.00828247
1275.2	-0.697784	-0.0184967
1275.66	0.000411987	0.00397217
1276.14	3.35693e-05	0.00827942
1276.6	-0.697662	-0.0184937
1277.06	-0.000360107	0.0039798
1277.54	0.000125122	0.00827026
1278	-0.698792	-0.0184875
1278.46	-5.49316e-05	0.00398193
1278.94	-0.000750732	0.00827942
1279.4	-0.698303	-0.0184875
1279.86	-9.15527e-06	0.00397827
1280.34	0.000354004	0.00827637
1280.8	-0.698303	-0.0184875
1281.26	-0.000396729	0.00398773
1281.74	-0.000280762	0.00826721
1282.2	-0.697571	-0.0184875
1282.66	0.000521851	0.00398163
1283.14	0.000369263	0.00826111
1283.6	-0.69873	-0.0184875
1284.06	0.000778198	0.00398315
1284.54	-0.00062561	0.00826111
1285	-0.697632	-0.0184875
1285.46	0.000604248	0.00398895
1285.94	-0.000564575	0.00826416
1286.4	-0.698029	-0.0184906
1286.86	0.00027771	0.0039859
1287.34	-0.000241089	0.00826111
1287.8	-0.698944	-0.0184814
1288.26	-3.35693e-05	0.00399078
1288.74	-0.00045166	0.00825806
1289.2	-0.697845	-0.0184784
1289.66	-0.000195313	0.00399658
1290.14	0.000485229	0.00826111
1290.6	-0.698334	-0.0184814
1291.06	-0.000491333	0.0039975
1291.54	-0.000747681	0.00826111
1292	-0.698944	-0.0184753
1292.46	0.000463867	0.00399658
1292.94	-0.000128174	0.00825195
1293.4	-0.697693	-0.0184814
1293.86	-0.000408936	0.00400177
1294.34	-0.000619507	0.008255
1294.8	-0.698669	-0.0184692
1295.26	-0.000372314	0.00400482
1295.74	-0.000115967	0.00826416
1296.2	-0.697632	-0.0184875
1296.66	0.000506592	0.00400208
1297.14	-0.000692749	0.008255
1297.6	-0.697693	-0.0184906
1298.06	0.000265503	0.00400085
1298.54	-0.000643921	0.00824585
1299	-0.697693	-0.0184814
1299.46	-0.000134277	0.00400513
1299.94	0.000366211	0.00823975
1300.4	-0.697693	-0.0184723
1300.86	0.000674438	0.00400452
1301.34	0.000158691	0.00825195
1301.8	-0.697632	-0.0184784
1302.26	2.74658e-05	0.00400787
1302.74	-0.000640869	0.00825195
1303.2	-0.697937	-0.0184753
1303.66	0.000854492	0.00400604
1304.14	0.00045166	0.00823669
1304.6	-0.698761	-0.0184723
1305.06	-0.000354004	0.00401337
1305.54	0.000439453	0.00823975
1306	-0.697601	-0.0184662
1306.46	0.000222778	0.00401184
1306.94	0.000479126	0.00823975
1307.4	-0.697784	-0.0184723
1307.86	0.000567627	0.00401123
1308.34	-0.000112915	0.00824585
1308.8	-0.698578	-0.0184631
1309.26	-0.000357056	0.0040213
1309.74	-1.2207e-05	0.00823059
1310.2	-0.697662	-0.0184723
1310.66	0.000512695	0.00401672
1311.14	0.000296021	0.00822754
1311.6	-0.697815	-0.018457
1312.06	-7.32422e-05	0.00401978
1312.54	0.000457764	0.00823364
1313	-0.697632	-0.0184723
1313.46	-0.000369263	0.00402527
1313.94	-0.000723267	0.00823059
1314.4	-0.697571	-0.0184662
1314.86	-0.000421143	0.00402832
1315.34	0.00039978	0.00823364
1315.8	-0.698212	-0.0184723
1316.26	-0.000100708	0.00402496
1316.74	-0.00057373	0.00822449
1317.2	-0.697693	-0.0184692
1317.66	0.000708008	0.00402435
1318.14	-0.000201416	0.00823364
1318.6	-0.697632	-0.0184723
1319.06	0.000311279	0.00402832
1319.54	0.00022583	0.00823059
1320	-0.698639	-0.0184601
1320.46	0.000216675	0.00403259
1320.94	0.00043335	0.00823059
1321.4	-0.697571	-0.0184662
1321.86	-0.000384521	0.00403595
1322.34	-0.000244141	0.00821838
1322.8	-0.697754	-0.0184723
1323.26	0.000775146	0.00402985
1323.74	-0.000704956	0.00822449
1324.2	-0.697601	-0.0184662
1324.66	-0.000219727	0.00403778
1325.14	0.000357056	0.00821533
1325.6	-0.697632	-0.0184601
1326.06	-0.000418091	0.00403748
1326.54	-0.000753784	0.00821838
1327	-0.698517	-0.0184509
1327.46	-0.00038147	0.00403961
1327.94	0.000112915	0.00821838
1328.4	-0.697784	-0.018457
1328.86	-0.000408936	0.00404419
1329.34	-0.00015564	0.00821838
1329.8	-0.697693	-0.0184631
1330.26	-0.000341797	0.00404419
1330.74	-0.000357056	0.00822144
1331.2	-0.6987	-0.018457
1331.66	-0.000222778	0.00404724
1332.14	0.000363159	0.00820618
1332.6	-0.698242	-0.018457
1333.06	0.00072937	0.00404022
1333.54	0.000241089	0.00820007
1334	-0.697968	-0.0184601
1334.46	0.000585937	0.00404236
1334.94	0.000210571	0.00820923
1335.4	-0.697876	-0.018457
1335.86	0.000744629	0.00404388
1336.34	-0.000643921	0.00820618
1336.8	-0.698547	-0.0184601
1337.26	0.000726318	0.00404541
1337.74	0.000402832	0.00818787
1338.2	-0.698578	-0.0184326
1338.66	0.000454712	0.00404755
1339.14	-0.000454712	0.00818481
1339.6	-0.698242	-0.0184357
1340.06	0.000759888	0.00404236
1340.54	0.000375366	0.00819092
1341	-0.697815	-0.0184448
1341.46	9.76562e-05	0.00404938
1341.94	-0.000744629	0.00818787
1342.4	-0.69873	-0.0184265
1342.86	0.000167847	0.0040509
1343.34	-0.000656128	0.00818176
1343.8	-0.698853	-0.0184357
1344.26	-0.000466919	0.00405304
1344.74	-0.000704956	0.00818176
1345.2	-0.697632	-0.0184448
1345.66	0.000790405	0.00405029
1346.14	0.000512695	0.00819397
1346.6	-0.69809	-0.0184601
1347.06	-0.000421143	0.00405731
1347.54	0.000213623	0.00818481
1348	-0.697601	-0.0184753
1348.46	0.000650024	0.00405273
1348.94	-0.000653076	0.00819397
1349.4	-0.697693	-0.0184662
1349.86	0.000662231	0.00405731
1350.34	0.000219727	0.00819092
1350.8	-0.698853	-0.0184601
1351.26	-6.10352e-06	0.00405731
1351.74	0.000512695	0.00818481
1352.2	-0.697723	-0.0184692
1352.66	0.000723267	0.00405701
1353.14	-0.000192261	0.00817871
1353.6	-0.698425	-0.0184601
1354.06	0.000784302	0.00405762
1354.54	-0.000543213	0.00818481
1355	-0.697754	-0.0184631
1355.46	-0.000485229	0.00406738
1355.94	-0.000735474	0.00818787
1356.4	-0.697693	-0.0184662
1356.86	-0.000421143	0.00407013
1357.34	9.15527e-05	0.00818176
1357.8	-0.698029	-0.0184601
1358.26	-0.000384521	0.00407288
1358.74	0.000534058	0.00818176
1359.2	-0.69754	-0.0184631
1359.66	0.00017395	0.00407135
1360.14	0.000494385	0.00818176
1360.6	-0.698639	-0.0184601
1361.06	-0.000216675	0.00407196
1361.54	0.000268555	0.00819092
1362	-0.697784	-0.0184692
1362.46	0.000262451	0.0040686
1362.94	0.000460815	0.00817871
1363.4	-0.698303	-0.0184509
1363.86	-0.000314331	0.00407654
1364.34	-0.000210571	0.00818176
1364.8	-0.698639	-0.0184448
1365.26	0.000579834	0.00407257
1365.74	0.000241089	0.00816956
1366.2	-0.6987	-0.0184509
1366.66	-0.000335693	0.00408081
1367.14	0.000588989	0.00817871
1367.6	-0.697876	-0.018454
1368.06	-0.000238037	0.00407898
1368.54	-0.000186157	0.00817871
1369	-0.698761	-0.018454
1369.46	0.000650024	0.0040802
1369.94	0.000125122	0.0081665
1370.4	-0.698883	-0.0184448
1370.86	-0.000445557	0.00408722
1371.34	-0.000579834	0.00818176
1371.8	-0.698395	-0.0184448
1372.26	0.000778198	0.00408051
1372.74	0.000500488	0.00817566
1373.2	-0.698364	-0.018457
1373.66	-8.54492e-05	0.00408356
1374.14	-0.000177002	0.00817566
1374.6	-0.698547	-0.0184479
1375.06	-4.27246e-05	0.00408661
1375.54	-9.46045e-05	0.00817261
1376	-0.697601	-0.0184509
1376.46	-0.000213623	0.00408997
1376.94	-0.000665283	0.00816956
1377.4	-0.698242	-0.0184418
1377.86	-2.44141e-05	0.00409088
1378.34	-0.000177002	0.0081543
1378.8	-0.697845	-0.0184479
1379.26	-0.000448608	0.00409363
1379.74	5.18799e-05	0.00816345
1380.2	-0.698914	-0.0184357
1380.66	0.00078125	0.00409149
1381.14	-0.00072937	0.00816345
1381.6	-0.697754	-0.0184509
1382.06	-4.27246e-05	0.00409882
1382.54	0.000332642	0.0081604
1383	-0.697662	-0.0184448
1383.46	0.000177002	0.00409546
1383.94	-0.000631714	0.00816345
1384.4	-0.698364	-0.0184387
1384.86	0.000311279	0.00410065
1385.34	-0.000308228	0.00816345
1385.8	-0.697693	-0.0184479
1386.26	9.46045e-05	0.00409851
1386.74	-0.00012207	0.00815735
1387.2	-0.698181	-0.0184387
1387.66	0.000100708	0.00410339
1388.14	0.000228882	0.0081604
1388.6	-0.698792	-0.0184387
1389.06	-0.000323486	0.00410828
1389.54	-0.000656128	0.00815735
1390	-0.698822	-0.0184296
1390.46	-6.10352e-05	0.00410767
1390.94	9.15527e-05	0.0081543
1391.4	-0.698669	-0.0184265
1391.86	0.000268555	0.00410919
1392.34	0.000183105	0.00815125
1392.8	-0.697693	-0.0184387
1393.26	0.000408936	0.00410522
1393.74	-0.000546265	0.00815735
1394.2	-0.697693	-0.0184326
1394.66	-0.000469971	0.00411224
1395.14	-0.000299072	0.0081543
1395.6	-0.698822	-0.0184357
1396.06	0.000271606	0.00410858
1396.54	0.000616455	0.00814514
1397	-0.697662	-0.0184357
1397.46	-8.23975e-05	0.00411102
1397.94	0.000408936	0.00814514
1398.4	-0.697845	-0.0184265
1398.86	-0.000289917	0.00411804
1399.34	0.000369263	0.00814514
1399.8	-0.698975	-0.0184296
1400.26	-0.000262451	0.00411743
1400.74	-0.000692749	0.00814514
1401.2	-0.697754	-0.0184357
1401.66	0.000646973	0.0041156
1402.14	-0.000186157	0.00812988
1402.6	-0.698914	-0.0184204
1403.06	-0.000408936	0.00411957
1403.54	-0.000360107	0.00813293
1404	-0.697845	-0.0184235
1404.46	-9.76562e-05	0.00412018
1404.94	-0.000469971	0.00813599
1405.4	-0.698669	-0.0184326
1405.86	-0.000439453	0.00412445
1406.34	-0.000640869	0.00813599
1406.8	-0.698334	-0.0184235
1407.26	-0.000134277	0.00412659
1407.74	-0.000750732	0.00813293
1408.2	-0.697662	-0.0184296
1408.66	-1.83105e-05	0.0041214
1409.14	-0.000588989	0.00813293
1409.6	-0.697632	-0.0184326
1410.06	-0.00045166	0.00412964
1410.54	-0.000427246	0.00813599
1411	-0.698242	-0.0184296
1411.46	0.000744629	0.00412445
1411.94	0.000448608	0.00813293
1412.4	-0.698486	-0.0184235
1412.86	-0.000219727	0.00412933
1413.34	-0.000186157	0.00813904
1413.8	-0.698059	-0.0184265
1414.26	0.000500488	0.00412384
1414.74	-0.000686646	0.00812988
1415.2	-0.698395	-0.0184265
1415.66	-0.00012207	0.00413422
1416.14	0.000494385	0.00812683
1416.6	-0.698334	-0.0184296
1417.06	-0.000350952	0.00413513
1417.54	-0.000735474	0.00812378
1418	-0.698059	-0.0184174
1418.46	0.000769043	0.00413086
1418.94	-0.000283813	0.00811462
1419.4	-0.6987	-0.0184143
1419.86	0.000210571	0.00413971
1420.34	-0.000610352	0.00812073
1420.8	-0.698181	-0.0184235
1421.26	-9.15527e-06	0.00414032
1421.74	0.000500488	0.00812378
1422.2	-0.698059	-0.0184235
1422.66	-0.000317383	0.00414276
1423.14	-0.000457764	0.00812073
1423.6	-0.697784	-0.0184235
1424.06	-0.000302124	0.00414307
1424.54	-0.000115967	0.00812378
1425	-0.698608	-0.0184174
1425.46	-0.000320435	0.00414551
1425.94	-0.000537109	0.00811462
1426.4	-0.698822	-0.0184082
1426.86	-0.000134277	0.00414276
1427.34	0.000445557	0.00811462
1427.8	-0.698975	-0.0184143
1428.26	0.000674438	0.00413971
1428.74	-0.000723267	0.00811462
1429.2	-0.698242	-0.0184174
1429.66	0.000686646	0.00414124
1430.14	-0.000732422	0.00811462
1430.6	-0.697723	-0.0184204
1431.06	0.000408936	0.00414948
1431.54	-0.000695801	0.00811157
1432	-0.697754	-0.0184113
1432.46	0.000738525	0.00414551
1432.94	-0.00012207	0.00811462
1433.4	-0.697998	-0.0184113
1433.86	-0.000439453	0.00415344
1434.34	0.000390625	0.00809937
1434.8	-0.697632	-0.0184174
1435.26	0.000759888	0.00414673
1435.74	-0.000665283	0.00810852
1436.2	-0.697815	-0.0184113
1436.66	-7.01904e-05	0.00415649
1437.14	0.000204468	0.00810852
1437.6	-0.698822	-0.018399
1438.06	0.000463867	0.00415344
1438.54	0.000506592	0.00810242
1439	-0.698029	-0.0184021
1439.46	0.000738525	0.00415161
1439.94	0.000427246	0.00809937
1440.4	-0.697723	-0.0184052
1440.86	0.000784302	0.00415375
1441.34	-0.000369263	0.00810852
1441.8	-0.697723	-0.0184113
1442.26	-0.000521851	0.00416107
1442.74	0.000524902	0.00809631
1443.2	-0.698364	-0.018396
1443.66	0.000793457	0.00415558
1444.14	-0.000531006	0.00809631
1444.6	-0.698517	-0.018396
1445.06	0.000668335	0.0041568
1445.54	0.000320435	0.00809021
1446	-0.69754	-0.0184052
1446.46	0.000637817	0.00415802
1446.94	0.000344849	0.00809326
1447.4	-0.697784	-0.0184021
1447.86	0.000424194	0.00415863
1448.34	0.000402832	0.00809937
1448.8	-0.698181	-0.0184021
1449.26	-0.000350952	0.00416656
1449.74	3.05176e-06	0.00809631
1450.2	-0.697662	-0.0184052
1450.66	-0.000430298	0.00416931
1451.14	-0.00057373	0.00808716
1451.6	-0.697632	-0.0184021
1452.06	0.000387573	0.00416412
1452.54	0.00050354	0.00808411
1453	-0.697632	-0.018399
1453.46	-0.000109863	0.00417114
1453.94	0.000366211	0.00809631
1454.4	-0.698425	-0.0184021
1454.86	0.000814819	0.00416931
1455.34	0.000357056	0.008078
1455.8	-0.698059	-0.0184082
1456.26	6.10352e-05	0.00417358
1456.74	-5.49316e-05	0.00809021
1457.2	-0.698883	-0.018396
1457.66	0.00045166	0.00417419
1458.14	2.74658e-05	0.00807495
1458.6	-0.697693	-0.018399
1459.06	0.000485229	0.00417572
1459.54	-0.000460815	0.00807495
1460	-0.697601	-0.018399
1460.46	0.000778198	0.00417694
1460.94	0.000518799	0.008078
1461.4	-0.697723	-0.018399
1461.86	0.000772095	0.0041745
1462.34	0.000436401	0.00808105
1462.8	-0.698517	-0.018399
1463.26	9.76562e-05	0.00418182
1463.74	0.000512695	0.00808105
1464.2	-0.698883	-0.0183838
1464.66	-0.000442505	0.00418518
1465.14	-0.000738525	0.0080719
1465.6	-0.698181	-0.018396
1466.06	0.000744629	0.00417816
1466.54	0.000335693	0.00808411
1467	-0.697601	-0.0183929
1467.46	0.00045166	0.00418396
1467.94	-0.00015564	0.00808411
1468.4	-0.698669	-0.0183929
1468.86	-0.00027771	0.00418945
1469.34	-0.000109863	0.00808411
1469.8	-0.69873	-0.0183868
1470.26	-9.15527e-05	0.00418854
1470.74	0.000613403	0.0080719
1471.2	-0.697693	-0.0183929
1471.66	0.000628662	0.00418945
1472.14	-0.00010376	0.008078
1472.6	-0.697632	-0.0183868
1473.06	0.000424194	0.00419006
1473.54	-0.000442505	0.008078
1474	-0.69754	-0.0183899
1474.46	1.83105e-05	0.00419342
1474.94	-0.000134277	0.0080719
1475.4	-0.698883	-0.0183807
1475.86	-0.000427246	0.00419525
1476.34	0.000497437	0.00806885
1476.8	-0.698059	-0.0183838
1477.26	-0.000454712	0.00419769
1477.74	0.000515747	0.00806885
1478.2	-0.697968	-0.0183807
1478.66	0.000759888	0.00419006
1479.14	0.000384521	0.00805969
1479.6	-0.697815	-0.0183807
1480.06	0.000259399	0.00419342
1480.54	-0.000698853	0.0080658
1481	-0.698334	-0.0183838
1481.46	-5.18799e-05	0.00419647
1481.94	0.000512695	0.00805664
1482.4	-0.698761	-0.0183746
1482.86	-7.32422e-05	0.00420288
1483.34	0.000384521	0.00805359
1483.8	-0.698273	-0.0183807
1484.26	0.000689697	0.00419647
1484.74	2.74658e-05	0.00806885
1485.2	-0.698273	-0.0183838
1485.66	0.000765991	0.004198
1486.14	-0.00062561	0.00806274
1486.6	-0.698792	-0.0183685
1487.06	0.000595093	0.00419922
1487.54	-0.000708008	0.00805664
1488	-0.698853	-0.0183685
1488.46	0.000622559	0.00419952
1488.94	0.000250244	0.00805664
1489.4	-0.697784	-0.0183716
1489.86	0.000805664	0.00420319
1490.34	-0.000668335	0.00804749
1490.8	-0.697876	-0.0183807
1491.26	-0.000100708	0.00420837
1491.74	-0.000146484	0.00805359
1492.2	-0.698578	-0.0183624
1492.66	-3.05176e-06	0.00421112
1493.14	0.000506592	0.00804749
1493.6	-0.697784	-0.0183777
1494.06	-0.000292969	0.00421539
1494.54	-0.000509644	0.00804138
1495	-0.698547	-0.0183655
1495.46	0.000744629	0.00420776
1495.94	0.000100708	0.00804138
1496.4	-0.697906	-0.0183777
1496.86	0.000799561	0.00420837
1497.34	-0.000259399	0.00804138
1497.8	-0.698853	-0.0183655
1498.26	0.000427246	0.00421021
1498.74	-0.000357056	0.00805054
1499.2	-0.698517	-0.0183594
1499.66	0.000372314	0.00421661
1500.14	-0.000360107	0.00804443
1500.6	-0.697998	-0.0183685
1501.06	0.000592041	0.004216
1501.54	-0.000143433	0.00803528
1502	-0.697845	-0.0183594
1502.46	0.000274658	0.00421814
1502.94	-0.000109863	0.00803528
1503.4	-0.698059	-0.0183716
1503.86	-0.000427246	0.00422272
1504.34	0.000354004	0.00803833
1504.8	-0.697601	-0.0183655
1505.26	-0.000283813	0.00422424
1505.74	-0.000790405	0.00803833
1506.2	-0.698883	-0.0183533
1506.66	-4.27246e-05	0.00421997
1507.14	0.000210571	0.00803528
1507.6	-0.697693	-0.0183594
1508.06	0.000793457	0.00421875
1508.54	9.76562e-05	0.00802612
1509	-0.698669	-0.0183563
1509.46	-0.000415039	0.00422791
1509.94	-0.000354004	0.00802612
1510.4	-0.697937	-0.0183624
1510.86	0.000564575	0.00422028
1511.34	-0.000494385	0.00802307
1511.8	-0.698883	-0.0183563
1512.26	-0.00038147	0.00422791
1512.74	0.000274658	0.00802612
1513.2	-0.69809	-0.0183533
1513.66	-0.000418091	0.00423035
1514.14	-0.000518799	0.00803223
1514.6	-0.698578	-0.0183594
1515.06	-0.000314331	0.00423218
1515.54	0.000466919	0.00802307
1516	-0.698608	-0.0183472
1516.46	0.000408936	0.00422455
1516.94	-0.000112915	0.00802002
1517.4	-0.698151	-0.0183563
1517.86	-0.00045166	0.0042334
1518.34	2.44141e-05	0.00803223
1518.8	-0.697571	-0.0183533
1519.26	0.000256348	0.00423279
1519.74	0.000308228	0.00801697
1520.2	-0.698029	-0.0183502
1520.66	0.000683594	0.00422913
1521.14	-0.000326538	0.00802307
1521.6	-0.698608	-0.0183533
1522.06	0.00078125	0.00423035
1522.54	-0.000735474	0.00802002
1523	-0.697754	-0.0183502
1523.46	3.05176e-05	0.00423767
1523.94	-0.00020752	0.00802612
1524.4	-0.697937	-0.0183441
1524.86	0.000650024	0.00423523
1525.34	-0.000720215	0.00802002
1525.8	-0.697723	-0.0183472
1526.26	0.000112915	0.00423676
1526.74	-0.000552368	0.00802307
1527.2	-0.698608	-0.0183411
1527.66	0.000579834	0.00423431
1528.14	0.000576782	0.00801697
1528.6	-0.698822	-0.0183441
1529.06	0.000784302	0.00423706
1529.54	-0.00071106	0.00801697
1530	-0.698853	-0.018338
1530.46	0.000634766	0.00424011
1530.94	-0.000674438	0.00801697
1531.4	-0.698792	-0.018338
1531.86	-4.27246e-05	0.00424469
1532.34	-0.000613403	0.00801697
1532.8	-0.697693	-0.0183472
1533.26	0.00065918	0.00424347
1533.74	0.000491333	0.00800476
1534.2	-0.698059	-0.018338
1534.66	0.000430298	0.00424164
1535.14	-4.27246e-05	0.00800476
1535.6	-0.697754	-0.0183472
1536.06	-7.32422e-05	0.00424591
1536.54	0.000170898	0.00800171
1537	-0.698914	-0.0183411
1537.46	-0.000408936	0.00425079
1537.94	-0.000674438	0.00800476
1538.4	-0.698364	-0.018335
1538.86	-0.00039978	0.00425079
1539.34	0.000463867	0.00799866
1539.8	-0.69873	-0.018335
1540.26	-0.000234985	0.00425385
1540.74	0.000497437	0.00800171
1541.2	-0.69873	-0.018335
1541.66	0.000640869	0.00424683
1542.14	0.000244141	0.00799561
1542.6	-0.698547	-0.0183289
1543.06	0.000250244	0.00424957
1543.54	-0.000299072	0.00800781
1544	-0.697601	-0.018338
1544.46	0.000741577	0.00424988
1544.94	-0.000350952	0.00800781
1545.4	-0.697662	-0.0183411
1545.86	0.000289917	0.00425171
1546.34	-0.000152588	0.00800476
1546.8	-0.698914	-0.018338
1547.26	-0.000198364	0.00425873
1547.74	0.000546265	0.00799866
1548.2	-0.697906	-0.0183472
1548.66	-0.000393677	0.00426147
1549.14	0.000363159	0.00799561
1549.6	-0.698059	-0.0183289
1550.06	-0.000192261	0.00426086
1550.54	0.000613403	0.00799561
1551	-0.697906	-0.018335
1551.46	0.000561523	0.00425934
1551.94	0.000457764	0.00798645
1552.4	-0.698792	-0.0183258
1552.86	-0.000485229	0.00426422
1553.34	-0.000296021	0.0079834
1553.8	-0.697968	-0.0183411
1554.26	0.000765991	0.00425781
1554.74	-0.00032959	0.00799255
1555.2	-0.69809	-0.0183258
1555.66	0.00012207	0.00426178
1556.14	0.000494385	0.0079895
1556.6	-0.69873	-0.0183228
1557.06	-0.000457764	0.00426819
1557.54	0.000527954	0.00798645
1558	-0.698914	-0.0183228
1558.46	-0.0003479	0.00426971
1558.94	0.000292969	0.00799255
1559.4	-0.699036	-0.0183319
1559.86	-0.000189209	0.0042691
1560.34	-0.000616455	0.00798035
1560.8	-0.69873	-0.0183197
1561.26	0.000787354	0.00426361
1561.74	-0.000387573	0.00797119
1562.2	-0.697906	-0.018335
1562.66	-0.000469971	0.00427124
1563.14	-1.83105e-05	0.00797729
1563.6	-0.697601	-0.0183289
1564.06	-0.000396729	0.00427246
1564.54	0.000463867	0.00797729
1565	-0.698242	-0.0183258
1565.46	-0.000473022	0.00427429
1565.94	-0.000668335	0.00798035
1566.4	-0.697693	-0.0183228
1566.86	0.000238037	0.00427063
1567.34	-0.000411987	0.00796814
1567.8	-0.698578	-0.0183136
1568.26	-7.62939e-05	0.00427063
1568.74	-0.00022583	0.00796814
1569.2	-0.698212	-0.0183228
1569.66	-0.000338745	0.00427704
1570.14	-0.000619507	0.0079834
1570.6	-0.697571	-0.0183289
1571.06	0.00039978	0.0042749
1571.54	0.00017395	0.00796509
1572	-0.697968	-0.0183258
1572.46	0.000149536	0.00427765
1572.94	3.05176e-06	0.00796509
1573.4	-0.697693	-0.0183228
1573.86	0.000387573	0.00427368
1574.34	-0.000628662	0.00796204
1574.8	-0.697906	-0.0183228
1575.26	0.000164795	0.00427551
1575.74	-0.000424194	0.00797119
1576.2	-0.698914	-0.0183167
1576.66	0.000744629	0.00427704
1577.14	-0.000692749	0.00797424
1577.6	-0.698486	-0.0183105
1578.06	0.000485229	0.00427612
1578.54	0.000427246	0.00797424
1579	-0.697662	-0.0183167
1579.46	-0.000442505	0.00428558
1579.94	-0.000689697	0.00796509
1580.4	-0.698273	-0.0183167
1580.86	0.000131226	0.00428497
1581.34	0.000216675	0.00796814
1581.8	-0.698853	-0.0183136
1582.26	0.000140381	0.00428192
1582.74	0.000405884	0.00795898
1583.2	-0.698822	-0.0183105
1583.66	-0.00017395	0.00428314
1584.14	0.000366211	0.00797119
1584.6	-0.698883	-0.0183105
1585.06	4.88281e-05	0.00428864
1585.54	0.000366211	0.00795593
1586	-0.698364	-0.0183014
1586.46	0.000479126	0.00428284
1586.94	0.000430298	0.00795593
1587.4	-0.698395	-0.0183167
1587.86	0.00015564	0.00428772
1588.34	-0.000650024	0.00795288
1588.8	-0.698029	-0.0183105
1589.26	3.05176e-06	0.00429382
1589.74	0.000552368	0.00795288
1590.16	-0.000405884	0.00234344