File: Edgar/20240607/20240607/electrodeposition_pulsed_potential_20240607_C/pulses_5000_to_6000.txt
Time (s)	WE(1).Potential (V)	WE(1).Current (A)
3725.53	-0.698212	-0.0214569
3725.99	0.000656128	0.0026947
3726.47	-0.00039978	0.00562134
3726.93	-0.697998	-0.0184662
3727.39	0.000650024	0.00438721
3727.87	7.62939e-05	0.00651581
3728.33	-0.697876	-0.017926
3728.79	0.000714111	0.00472687
3729.27	-0.000131226	0.00671509
3729.73	-0.698517	-0.0177887
3730.19	0.000463867	0.00482361
3730.67	-0.000531006	0.00677887
3731.13	-0.698761	-0.0177399
3731.59	0.000485229	0.00485535
3732.07	-0.000473022	0.00680573
3732.53	-0.6987	-0.0177246
3732.99	0.000274658	0.00487213
3733.47	0.000552368	0.00681519
3733.93	-0.697784	-0.0177155
3734.39	-0.000326538	0.00489044
3734.87	-0.000424194	0.00682739
3735.33	-0.698822	-0.0177002
3735.79	-0.000396729	0.00489624
3736.27	0.000396729	0.00683289
3736.73	-0.697723	-0.017691
3737.19	-0.000387573	0.00490509
3737.67	6.71387e-05	0.00684509
3738.13	-0.698151	-0.0176819
3738.59	-0.000201416	0.00491302
3739.07	-1.83105e-05	0.0068515
3739.53	-0.698486	-0.0176758
3739.99	0.00067749	0.00490875
3740.47	-0.000521851	0.00685638
3740.93	-0.697784	-0.0176788
3741.39	0.000109863	0.00492035
3741.87	0.000534058	0.00685547
3742.33	-0.697662	-0.0176727
3742.79	0.000424194	0.00491852
3743.27	0.000363159	0.00685852
3743.73	-0.6987	-0.0176605
3744.19	-0.000100708	0.00492493
3744.67	0.000738525	0.00686127
3745.13	-0.697754	-0.0176666
3745.59	0.000415039	0.00493103
3746.07	-0.000430298	0.00687103
3746.53	-0.697784	-0.0176636
3746.99	-0.000247192	0.00493561
3747.47	-0.00050354	0.00687195
3747.93	-0.698578	-0.0176514
3748.39	-0.000140381	0.00493774
3748.87	-0.000119019	0.00687317
3749.33	-0.698669	-0.0176544
3749.79	-0.000479126	0.00494171
3750.27	0.000765991	0.00686981
3750.73	-0.698395	-0.0176575
3751.19	0.000708008	0.00493622
3751.67	-0.000454712	0.00687714
3752.13	-0.698517	-0.0176514
3752.59	-0.000158691	0.0049408
3753.07	-3.05176e-06	0.00687683
3753.53	-0.69873	-0.0176514
3753.99	-0.000463867	0.00494659
3754.47	0.000637817	0.00687347
3754.93	-0.698395	-0.0176422
3755.39	0.000784302	0.00494324
3755.87	0.0006073	0.00687622
3756.33	-0.698029	-0.0176483
3756.79	-0.000289917	0.0049469
3757.27	-0.000305176	0.00688263
3757.73	-0.69873	-0.0176544
3758.19	0.000640869	0.00494324
3758.67	-0.00050354	0.00688446
3759.13	-0.698883	-0.0176331
3759.59	0.000384521	0.00494812
3760.07	0.000646973	0.00688049
3760.53	-0.698944	-0.0176422
3760.99	0.000350952	0.00494598
3761.47	0.000665283	0.00687836
3761.93	-0.697693	-0.0176483
3762.39	0.000390625	0.00494781
3762.87	0.000466919	0.00688141
3763.33	-0.698761	-0.01763
3763.79	-0.000411987	0.00495605
3764.27	0.000656128	0.00687958
3764.73	-0.698334	-0.0176422
3765.19	0.000582886	0.004953
3765.67	0.00057373	0.00688232
3766.13	-0.698853	-0.0176331
3766.59	-2.44141e-05	0.00495636
3767.07	0.000308228	0.0068811
3767.53	-0.698608	-0.01763
3767.99	0.000448608	0.00495453
3768.47	3.35693e-05	0.00688293
3768.93	-0.698334	-0.0176392
3769.39	-0.000146484	0.00495605
3769.87	0.000637817	0.00688049
3770.33	-0.697968	-0.017627
3770.79	-0.000259399	0.00495514
3771.27	-0.000115967	0.00688812
3771.73	-0.69809	-0.0176331
3772.19	-0.00043335	0.00496033
3772.67	-6.71387e-05	0.00688477
3773.13	-0.697723	-0.0176361
3773.59	0.000720215	0.00495392
3774.07	-0.000280762	0.00688629
3774.53	-0.698822	-0.0176239
3774.99	0.000601196	0.00495819
3775.47	0.000354004	0.00688171
3775.93	-0.6987	-0.0176331
3776.39	-0.000360107	0.00496124
3776.87	-0.00039978	0.00688843
3777.33	-0.698029	-0.0176239
3777.79	0.000564575	0.00495636
3778.27	0.000363159	0.00688599
3778.73	-0.697815	-0.01763
3779.19	-0.000375366	0.00496429
3779.67	-0.000515747	0.00688782
3780.13	-0.698669	-0.017627
3780.59	-0.000494385	0.00496277
3781.07	0.000643921	0.00688293
3781.53	-0.697693	-0.01763
3781.99	-3.05176e-05	0.00496155
3782.47	-0.000482178	0.00689087
3782.93	-0.698578	-0.0176147
3783.39	-0.000259399	0.00496613
3783.87	0.000634766	0.00688416
3784.33	-0.697998	-0.01763
3784.79	5.79834e-05	0.00496246
3785.27	-0.00045166	0.00689178
3785.73	-0.698486	-0.0176178
3786.19	0.000567627	0.00496277
3786.67	-0.000216675	0.00688965
3787.13	-0.698273	-0.01763
3787.59	-7.32422e-05	0.00496613
3788.07	-0.000540161	0.00688965
3788.53	-0.698853	-0.0176239
3788.99	-0.000411987	0.00496887
3789.47	-0.000210571	0.0068866
3789.93	-0.698608	-0.0176208
3790.39	0.000588989	0.00496521
3790.87	-0.000473022	0.00689087
3791.33	-0.697998	-0.017627
3791.79	-0.000228882	0.00496643
3792.27	0.00027771	0.00688721
3792.73	-0.698853	-0.0176147
3793.19	0.000634766	0.00496185
3793.67	-0.000469971	0.00688934
3794.13	-0.698486	-0.0176147
3794.59	-0.000283813	0.00496765
3795.07	-0.000164795	0.00688385
3795.53	-0.697723	-0.0176178
3795.99	0.000683594	0.00496155
3796.47	-0.000512695	0.00688965
3796.93	-0.6987	-0.017627
3797.39	-0.000192261	0.00497101
3797.87	0.000115967	0.00688385
3798.33	-0.698029	-0.0176117
3798.79	0.000268555	0.00496521
3799.27	-0.000366211	0.00688904
3799.73	-0.69809	-0.0176208
3800.19	0.000802612	0.00496429
3800.67	-0.000579834	0.00688782
3801.13	-0.697693	-0.0176239
3801.59	0.000588989	0.00496307
3802.07	0.000601196	0.00688202
3802.53	-0.698273	-0.0176086
3802.99	-0.00027771	0.00496979
3803.47	0.000183105	0.00688416
3803.93	-0.697723	-0.0176208
3804.39	-0.000415039	0.00497101
3804.87	0.000506592	0.00687988
3805.33	-0.698303	-0.0176086
3805.79	0.000671387	0.00496338
3806.27	0.000112915	0.00688629
3806.73	-0.698822	-0.0176117
3807.19	-0.000262451	0.00497162
3807.67	7.62939e-05	0.00688507
3808.13	-0.698944	-0.0176147
3808.59	0.000280762	0.00496582
3809.07	0.000271606	0.00688202
3809.53	-0.697723	-0.0176147
3809.99	-0.000442505	0.0049707
3810.47	-0.000274658	0.00688263
3810.93	-0.698364	-0.0176147
3811.39	-0.000411987	0.00497162
3811.87	3.66211e-05	0.00688324
3812.33	-0.698914	-0.0176056
3812.79	-0.000436401	0.00497284
3813.27	0.000683594	0.00688019
3813.73	-0.697937	-0.0176208
3814.19	-0.000350952	0.00497131
3814.67	0.000714111	0.00687866
3815.13	-0.698212	-0.0176117
3815.59	-2.74658e-05	0.00497437
3816.07	0.000234985	0.00688385
3816.53	-0.698853	-0.0176056
3816.99	-0.000430298	0.00497437
3817.47	-0.000274658	0.00688721
3817.93	-0.697693	-0.0176117
3818.39	0.000561523	0.00496643
3818.87	-0.000143433	0.00688202
3819.33	-0.698059	-0.0176178
3819.79	0.000656128	0.00496735
3820.27	-0.000457764	0.00688049
3820.73	-0.698151	-0.0176147
3821.19	0.000167847	0.00496826
3821.67	-0.000515747	0.00688446
3822.13	-0.698029	-0.0176025
3822.59	0.000668335	0.00496918
3823.07	-0.000167847	0.00687988
3823.53	-0.69809	-0.0176086
3823.99	-0.000256348	0.00497467
3824.47	0.000643921	0.00687622
3824.93	-0.697937	-0.0176056
3825.39	-0.000283813	0.00496979
3825.87	-0.000421143	0.00688354
3826.33	-0.698364	-0.0176056
3826.79	0.00038147	0.00496979
3827.27	-0.000509644	0.00688416
3827.73	-0.698761	-0.0176117
3828.19	0.000656128	0.00496826
3828.67	-0.000396729	0.00688354
3829.13	-0.698486	-0.0176056
3829.59	0.00072937	0.00496674
3830.07	-0.000570679	0.0068811
3830.53	-0.698578	-0.0176025
3830.99	0.000683594	0.00496979
3831.47	-0.000518799	0.00688202
3831.93	-0.698914	-0.0176086
3832.39	6.71387e-05	0.00497375
3832.87	0.00050354	0.006875
3833.33	-0.69873	-0.0176086
3833.79	0.000741577	0.00496857
3834.27	-0.000488281	0.00688171
3834.73	-0.698303	-0.0175995
3835.19	0.000640869	0.00496704
3835.67	-0.000512695	0.00688171
3836.13	-0.698273	-0.0176056
3836.59	0.000390625	0.00496918
3837.07	-0.000445557	0.00688202
3837.53	-0.698853	-0.0176056
3837.99	0.000698853	0.00496918
3838.47	-0.000408936	0.00688171
3838.93	-0.697815	-0.0176056
3839.39	0.000125122	0.00497162
3839.87	0.000430298	0.00687836
3840.33	-0.698547	-0.0176056
3840.79	0.000244141	0.00497528
3841.27	-0.000344849	0.00688049
3841.73	-0.698883	-0.0176056
3842.19	0.000735474	0.0049707
3842.67	0.000668335	0.00687378
3843.13	-0.697693	-0.0176086
3843.59	-0.000357056	0.00497772
3844.07	0.000231934	0.00687531
3844.53	-0.698456	-0.0176056
3844.99	-0.000509644	0.0049765
3845.47	0.000631714	0.00687378
3845.93	-0.697662	-0.0176117
3846.39	-0.000387573	0.0049762
3846.87	-0.000384521	0.0068808
3847.33	-0.697571	-0.0176056
3847.79	0.000558472	0.00497223
3848.27	0.000360107	0.00687653
3848.73	-0.698517	-0.0176086
3849.19	-0.000234985	0.0049762
3849.67	0.000689697	0.00687195
3850.13	-0.697815	-0.0176117
3850.59	-0.000317383	0.00497925
3851.07	-0.000506592	0.00687897
3851.53	-0.697723	-0.0176056
3851.99	-0.000421143	0.00497864
3852.47	-0.000509644	0.00687805
3852.93	-0.697632	-0.0176025
3853.39	-0.000369263	0.00497894
3853.87	-0.000299072	0.00687561
3854.33	-0.698822	-0.0175964
3854.79	-2.13623e-05	0.00497314
3855.27	0.000387573	0.00687653
3855.73	-0.698029	-0.0176025
3856.19	-0.000256348	0.00497894
3856.67	-0.000479126	0.00687714
3857.13	-0.697998	-0.0176117
3857.59	0.000445557	0.00497528
3858.07	0.000167847	0.00687134
3858.53	-0.6987	-0.0176025
3858.99	-0.000408936	0.00498047
3859.47	-0.000497437	0.00687775
3859.93	-0.697723	-0.0176056
3860.39	0.000610352	0.00497833
3860.87	0.000234985	0.00686951
3861.33	-0.698273	-0.0176117
3861.79	0.000463867	0.00497314
3862.27	-0.000241089	0.00687408
3862.73	-0.698029	-0.0176056
3863.19	0.000219727	0.00497467
3863.67	-0.000457764	0.00687622
3864.13	-0.698151	-0.0176025
3864.59	0.000195313	0.00497314
3865.07	0.00020752	0.0068692
3865.53	-0.697968	-0.0176056
3865.99	0.000152588	0.00497864
3866.47	0.000680542	0.00686951
3866.93	-0.698853	-0.0175995
3867.39	0.000704956	0.00497284
3867.87	0.000552368	0.00686737
3868.33	-0.697784	-0.0175964
3868.79	0.000720215	0.00497467
3869.27	-0.000598145	0.00687469
3869.73	-0.697937	-0.0176056
3870.19	-0.000466919	0.00498047
3870.67	0.000286865	0.00686768
3871.13	-0.698883	-0.0175903
3871.59	0.000650024	0.00497559
3872.07	-0.000320435	0.00687134
3872.53	-0.698486	-0.0175903
3872.99	0.000543213	0.00497406
3873.47	0.000109863	0.00686737
3873.93	-0.698853	-0.0175934
3874.39	3.96729e-05	0.00498016
3874.87	0.000732422	0.00686737
3875.33	-0.698822	-0.0175934
3875.79	0.000292969	0.00497559
3876.27	-0.000109863	0.00687164
3876.73	-0.698669	-0.0175873
3877.19	2.13623e-05	0.00498138
3877.67	0.000680542	0.00686554
3878.13	-0.698944	-0.0175934
3878.59	-0.000402832	0.00498108
3879.07	7.93457e-05	0.00686737
3879.53	-0.698395	-0.0175995
3879.99	-4.57764e-05	0.00497589
3880.47	-0.000448608	0.00687286
3880.93	-0.698547	-0.0175964
3881.39	-0.000195313	0.00497864
3881.87	0.000372314	0.0068689
3882.33	-0.698944	-0.0175934
3882.79	0.000241089	0.00497711
3883.27	-0.000320435	0.00686829
3883.73	-0.698395	-0.0175873
3884.19	2.13623e-05	0.00497925
3884.67	-0.000375366	0.00686676
3885.13	-0.698822	-0.0175903
3885.59	-0.000387573	0.00498169
3886.07	-0.000418091	0.0068692
3886.53	-0.698425	-0.0175964
3886.99	-0.000326538	0.0049823
3887.47	-0.000430298	0.00687103
3887.93	-0.698914	-0.0175903
3888.39	0.000314331	0.00497864
3888.87	-0.000323486	0.00687134
3889.33	-0.698883	-0.0175812
3889.79	0.000827026	0.00497833
3890.27	0.000662231	0.00686462
3890.73	-0.698608	-0.0175842
3891.19	0.000714111	0.00497833
3891.67	-2.44141e-05	0.00686493
3892.13	-0.697815	-0.0175903
3892.59	0.000567627	0.00497986
3893.07	0.00017395	0.0068634
3893.53	-0.698395	-0.0175964
3893.99	-0.000439453	0.00498474
3894.47	-0.000210571	0.00687073
3894.93	-0.697968	-0.0175903
3895.39	-0.000479126	0.0049826
3895.87	0.0006073	0.00686188
3896.33	-0.698639	-0.0175903
3896.79	-0.000378418	0.00498383
3897.27	-0.000500488	0.00686859
3897.73	-0.697815	-0.0175873
3898.19	-0.00043335	0.00498596
3898.67	0.000653076	0.00686127
3899.13	-0.698456	-0.0175812
3899.59	0.000616455	0.00497772
3900.07	-0.000497437	0.00686554
3900.53	-0.697754	-0.0175934
3900.99	1.83105e-05	0.00498566
3901.47	0.000665283	0.00686188
3901.93	-0.698151	-0.0175964
3902.39	-0.000408936	0.00498596
3902.87	-0.000491333	0.00686676
3903.33	-0.697784	-0.0175934
3903.79	0.000741577	0.00497986
3904.27	-0.000366211	0.0068689
3904.73	-0.698151	-0.0175873
3905.19	9.46045e-05	0.00498016
3905.67	-0.000509644	0.00686676
3906.13	-0.698181	-0.0175934
3906.59	0.000515747	0.0049826
3907.07	0.000640869	0.00685974
3907.53	-0.698914	-0.0175781
3907.99	9.15527e-05	0.00498199
3908.47	-9.46045e-05	0.00686188
3908.93	-0.69812	-0.0175842
3909.39	0.000531006	0.00498352
3909.87	0.000619507	0.00686188
3910.33	-0.698395	-0.0175842
3910.79	0.000439453	0.00498383
3911.27	0.000405884	0.00685944
3911.73	-0.697723	-0.0175781
3912.19	-0.000170898	0.00498535
3912.67	-0.000152588	0.00686249
3913.13	-0.698822	-0.0175751
3913.59	0.000222778	0.00498505
3914.07	0.000616455	0.00686157
3914.53	-0.697815	-0.0175842
3914.99	8.23975e-05	0.00498108
3915.47	-0.000375366	0.00686676
3915.93	-0.698853	-0.0175842
3916.39	0.00065918	0.00498199
3916.87	0.000592041	0.00685944
3917.33	-0.698395	-0.0175781
3917.79	0.000698853	0.00498352
3918.27	0.000234985	0.00685883
3918.73	-0.698364	-0.017572
3919.19	0.000216675	0.0049826
3919.67	0.000576782	0.00686127
3920.13	-0.697754	-0.0175873
3920.59	0.000735474	0.00498352
3921.07	4.27246e-05	0.00686188
3921.53	-0.698212	-0.0175934
3921.99	-3.35693e-05	0.00498657
3922.47	-0.00045166	0.00686493
3922.93	-0.698822	-0.0175781
3923.39	0.000186157	0.00498871
3923.87	-0.000100708	0.0068573
3924.33	-0.698883	-0.0175751
3924.79	0.000552368	0.00498199
3925.27	0.000228882	0.0068573
3925.73	-0.698853	-0.017572
3926.19	0.000247192	0.00498657
3926.67	-0.000439453	0.0068631
3927.13	-0.697723	-0.0175781
3927.59	-0.000390625	0.00499084
3928.07	-0.000357056	0.00686157
3928.53	-0.697968	-0.0175751
3928.99	0.000653076	0.0049823
3929.47	-0.000204468	0.00686462
3929.93	-0.698669	-0.0175781
3930.39	0.000656128	0.00498566
3930.87	0.000619507	0.00685455
3931.33	-0.698914	-0.0175781
3931.79	0.000683594	0.00498383
3932.27	0.00065918	0.00685455
3932.73	-0.698456	-0.017572
3933.19	-0.000314331	0.00499146
3933.67	0.000170898	0.00686127
3934.13	-0.698822	-0.017572
3934.59	-0.000131226	0.00498566
3935.07	0.000653076	0.00685516
3935.53	-0.697693	-0.0175812
3935.99	-0.000125122	0.00498901
3936.47	-0.00050354	0.00686218
3936.93	-0.697845	-0.0175812
3937.39	-0.000408936	0.00499298
3937.87	0.000234985	0.00685394
3938.33	-0.698242	-0.0175781
3938.79	0.00045166	0.00499084
3939.27	-0.000445557	0.0068573
3939.73	-0.697906	-0.0175812
3940.19	0.00067749	0.00498688
3940.67	0.000442505	0.00685455
3941.13	-0.697784	-0.017569
3941.59	-0.000378418	0.00499207
3942.07	0.000628662	0.00685272
3942.53	-0.697723	-0.0175781
3942.99	0.000161743	0.00499146
3943.47	0.00020752	0.0068576
3943.93	-0.698669	-0.0175751
3944.39	-0.000393677	0.0049942
3944.87	-0.000454712	0.00685913
3945.33	-0.697723	-0.017569
3945.79	0.000543213	0.00498688
3946.27	-6.10352e-05	0.00685486
3946.73	-0.698975	-0.017569
3947.19	0.000384521	0.00499023
3947.67	0.000643921	0.0068515
3948.13	-0.697662	-0.0175751
3948.59	-0.000213623	0.00499542
3949.07	-0.000387573	0.00685364
3949.53	-0.698608	-0.0175629
3949.99	-4.88281e-05	0.00499359
3950.47	-5.18799e-05	0.00685699
3950.93	-0.698914	-0.017569
3951.39	0.000473022	0.00498779
3951.87	-0.000375366	0.00685822
3952.33	-0.69873	-0.017569
3952.79	-1.52588e-05	0.00499115
3953.27	0.000558472	0.00685059
3953.73	-0.698822	-0.0175659
3954.19	0.00015564	0.00498749
3954.67	5.49316e-05	0.00685608
3955.13	-0.698425	-0.0175629
3955.59	-0.000424194	0.00499512
3956.07	0.000497437	0.00685272
3956.53	-0.698578	-0.0175598
3956.99	0.000701904	0.00498779
3957.47	0.000613403	0.00685059
3957.93	-0.698608	-0.0175629
3958.39	-0.000473022	0.00499512
3958.87	0.000238037	0.00685577
3959.33	-0.698303	-0.0175751
3959.79	-0.000430298	0.00499664
3960.27	-0.000460815	0.00685516
3960.73	-0.697784	-0.0175751
3961.19	0.000738525	0.00498932
3961.67	0.00038147	0.00684845
3962.13	-0.697876	-0.017572
3962.59	-0.000265503	0.0049942
3963.07	-0.000436401	0.00685242
3963.53	-0.697968	-0.017572
3963.99	0.000836182	0.00499084
3964.47	0.00038147	0.00684784
3964.93	-0.697723	-0.0175659
3965.39	0.000445557	0.00498962
3965.87	-0.000131226	0.0068515
3966.33	-0.698883	-0.0175629
3966.79	0.000686646	0.00499023
3967.27	-0.00045166	0.00685425
3967.73	-0.698975	-0.0175659
3968.19	0.00017395	0.00499603
3968.67	0.000335693	0.00685303
3969.13	-0.69812	-0.0175751
3969.59	0.000567627	0.00498993
3970.07	0.000622559	0.00684601
3970.53	-0.698944	-0.017572
3970.99	5.18799e-05	0.00499664
3971.47	-0.000201416	0.00685059
3971.93	-0.69873	-0.017569
3972.39	-0.000421143	0.00499695
3972.87	0.000720215	0.0068457
3973.33	-0.698059	-0.017572
3973.79	-0.000524902	0.00499695
3974.27	0.000689697	0.00684631
3974.73	-0.698883	-0.0175598
3975.19	-0.000335693	0.00499908
3975.67	0.000360107	0.0068457
3976.13	-0.698761	-0.017569
3976.59	0.000595093	0.00499237
3977.07	-0.00050354	0.00685303
3977.53	-0.698822	-0.0175598
3977.99	-0.00010376	0.00500183
3978.47	-0.000448608	0.00684906
3978.93	-0.697906	-0.0175629
3979.39	0.000408936	0.00499359
3979.87	0.000357056	0.00684601
3980.33	-0.698517	-0.017572
3980.79	0.000662231	0.00499359
3981.27	-0.000158691	0.00684875
3981.73	-0.698822	-0.0175629
3982.19	-4.88281e-05	0.00499725
3982.67	0.00045166	0.00684906
3983.13	-0.698669	-0.0175568
3983.59	0.000756836	0.00499359
3984.07	0.000628662	0.00681519
3984.53	-0.698029	-0.0175415
3984.99	0.000549316	0.00495148
3985.47	0.000558472	0.0067569
3985.93	-0.698944	-0.0175446
3986.39	-0.000338745	0.00492615
3986.87	0.000509644	0.00673676
3987.33	-0.697876	-0.017569
3987.79	-0.000161743	0.00491119
3988.27	-0.000509644	0.00676208
3988.73	-0.6987	-0.0175995
3989.19	-0.000369263	0.00491455
3989.67	0.00065918	0.00676636
3990.13	-0.698242	-0.0176453
3990.59	0.000210571	0.00491302
3991.07	-0.0003479	0.00678711
3991.53	-0.698486	-0.0176727
3991.99	0.000662231	0.00491913
3992.47	0.000369263	0.00678589
3992.93	-0.698212	-0.0177216
3993.39	0.000750732	0.00493042
3993.87	-0.000534058	0.00681915
3994.33	-0.697906	-0.0177124
3994.79	0.000598145	0.00493591
3995.27	0.000631714	0.00681305
3995.73	-0.698975	-0.0177063
3996.19	-9.76562e-05	0.00494141
3996.67	-9.15527e-05	0.00681946
3997.13	-0.697723	-0.0177063
3997.59	-5.49316e-05	0.00494781
3998.07	-0.00039978	0.00682739
3998.53	-0.698456	-0.0177002
3998.99	-0.000390625	0.00494965
3999.47	0.000427246	0.0068222
3999.93	-0.698334	-0.0176941
4000.39	-0.000186157	0.00495453
4000.87	-0.000183105	0.00683136
4001.33	-0.698792	-0.017691
4001.79	0.000662231	0.00495209
4002.27	0.00039978	0.00682739
4002.73	-0.697754	-0.017688
4003.19	0.000524902	0.00495331
4003.67	0.000650024	0.00682983
4004.13	-0.698792	-0.0176849
4004.59	-0.000390625	0.00496338
4005.07	-0.000466919	0.0068399
4005.53	-0.698761	-0.0176727
4005.99	-0.000384521	0.00496826
4006.47	-0.000170898	0.0068399
4006.93	-0.698944	-0.0176727
4007.39	-0.000354004	0.00496857
4007.87	0.000143433	0.00684204
4008.33	-0.698547	-0.0176788
4008.79	-0.000439453	0.0049704
4009.27	-5.79834e-05	0.0068399
4009.73	-0.697754	-0.0176819
4010.19	0.000735474	0.00496765
4010.67	0.000149536	0.00683929
4011.13	-0.697662	-0.0176758
4011.59	0.000708008	0.0049707
4012.07	0.000524902	0.00683868
4012.53	-0.6987	-0.0176636
4012.99	0.000408936	0.0049707
4013.47	0.000744629	0.00684143
4013.93	-0.698822	-0.0176636
4014.39	0.000668335	0.00497284
4014.87	-0.000177002	0.00684631
4015.33	-0.6987	-0.0176636
4015.79	0.000476074	0.00497589
4016.27	0.000280762	0.00684479
4016.73	-0.697937	-0.0176636
4017.19	-3.96729e-05	0.00498352
4017.67	-0.000250244	0.00685364
4018.13	-0.698547	-0.0176666
4018.59	-0.000357056	0.00498749
4019.07	-0.000482178	0.00685364
4019.53	-0.697845	-0.0176636
4019.99	0.000540161	0.00498047
4020.47	-0.000112915	0.00685059
4020.93	-0.698517	-0.0176666
4021.39	0.000326538	0.00498657
4021.87	0.000518799	0.00684937
4022.33	-0.698212	-0.0176575
4022.79	0.000271606	0.00498901
4023.27	0.000753784	0.00684998
4023.73	-0.69809	-0.0176544
4024.19	0.000704956	0.00498566
4024.67	-6.40869e-05	0.00685394
4025.13	-0.697784	-0.0176544
4025.59	0.000479126	0.00498566
4026.07	-0.000213623	0.00685791
4026.53	-0.698669	-0.0176544
4026.99	0.000476074	0.00499084
4027.47	0.00057373	0.00685059
4027.93	-0.6987	-0.0176514
4028.39	-0.000119019	0.00498932
4028.87	0.000363159	0.0068512
4029.33	-0.697693	-0.0176544
4029.79	-0.000231934	0.00499725
4030.27	6.71387e-05	0.00685333
4030.73	-0.698944	-0.0176453
4031.19	0.000192261	0.00499603
4031.67	-0.000509644	0.00685883
4032.13	-0.698761	-0.0176483
4032.59	-0.000271606	0.00499786
4033.07	0.000344849	0.00685883
4033.53	-0.698792	-0.0176422
4033.99	8.54492e-05	0.00500031
4034.47	-0.000524902	0.00686127
4034.93	-0.698486	-0.0176392
4035.39	-8.8501e-05	0.00499725
4035.87	0.000643921	0.00685455
4036.33	-0.698944	-0.0176392
4036.79	0.000671387	0.00499481
4037.27	0.000457764	0.0068573
4037.73	-0.698212	-0.0176514
4038.19	-7.62939e-05	0.00499725
4038.67	-0.000250244	0.00685608
4039.13	-0.698669	-0.0176331
4039.59	0.000756836	0.00499664
4040.07	0.000439453	0.0068573
4040.53	-0.697968	-0.0176483
4040.99	-0.000424194	0.00500427
4041.47	-0.000500488	0.00686188
4041.93	-0.697784	-0.0176453
4042.39	0.000610352	0.00499969
4042.87	0.000631714	0.00685455
4043.33	-0.697998	-0.0176483
4043.79	-0.000396729	0.00500641
4044.27	-7.62939e-05	0.00686127
4044.73	-0.698792	-0.0176361
4045.19	0.000128174	0.00500214
4045.67	0.000628662	0.00685486
4046.13	-0.698944	-0.0176331
4046.59	-0.000366211	0.00500702
4047.07	-0.000421143	0.0068634
4047.53	-0.698151	-0.0176361
4047.99	-0.000338745	0.00500549
4048.47	-0.000515747	0.00686371
4048.93	-0.698761	-0.0176361
4049.39	0.000744629	0.00500031
4049.87	-0.000534058	0.00686249
4050.33	-0.698639	-0.0176361
4050.79	-0.00043335	0.00500793
4051.27	0.000570679	0.0068573
4051.73	-0.697723	-0.0176331
4052.19	-0.000445557	0.00500916
4052.67	0.000534058	0.00685699
4053.13	-0.698669	-0.017627
4053.59	0.000808716	0.00500366
4054.07	-0.000524902	0.00686279
4054.53	-0.697784	-0.0176422
4054.99	0.000683594	0.00500214
4055.47	0.00050354	0.00685669
4055.93	-0.698334	-0.0176422
4056.39	-0.000317383	0.00500916
4056.87	-0.000482178	0.0068631
4057.33	-0.698364	-0.0176331
4057.79	0.000125122	0.00500854
4058.27	-0.000201416	0.00685638
4058.73	-0.698547	-0.0176361
4059.19	0.000811768	0.00500458
4059.67	0.000512695	0.00685699
4060.13	-0.698822	-0.0176208
4060.59	-0.000274658	0.00500916
4061.07	0.000390625	0.00685547
4061.53	-0.699005	-0.01763
4061.99	-0.000421143	0.00501251
4062.47	0.000146484	0.00685608
4062.93	-0.697723	-0.01763
4063.39	9.76562e-05	0.00500519
4063.87	-0.000506592	0.00686188
4064.33	-0.698944	-0.0176208
4064.79	-0.000183105	0.00500946
4065.27	-0.000494385	0.00686157
4065.73	-0.698975	-0.017627
4066.19	0.000115967	0.00501099
4066.67	0.000192261	0.00685791
4067.13	-0.698853	-0.0176239
4067.59	0.000402832	0.00500977
4068.07	-0.000549316	0.00686127
4068.53	-0.698669	-0.0176208
4068.99	-1.52588e-05	0.00501373
4069.47	-0.000424194	0.00686249
4069.93	-0.69873	-0.017627
4070.39	0.000683594	0.0050058
4070.87	0.000442505	0.00685455
4071.33	-0.697662	-0.01763
4071.79	0.000244141	0.00501038
4072.27	-0.000418091	0.00685974
4072.73	-0.698914	-0.0176239
4073.19	-0.000491333	0.00501343
4073.67	0.000674438	0.00685394
4074.13	-0.698822	-0.0176178
4074.59	0.000183105	0.00501251
4075.07	0.00065918	0.00685242
4075.53	-0.698975	-0.017627
4075.99	0.000201416	0.00501251
4076.47	-7.93457e-05	0.00685516
4076.93	-0.698547	-0.0176239
4077.39	0.000213623	0.0050119
4077.87	0.000247192	0.00685028
4078.33	-0.698212	-0.0176208
4078.79	0.000708008	0.00500702
4079.27	-0.000491333	0.00685974
4079.73	-0.698578	-0.0176178
4080.19	0.000637817	0.00500763
4080.67	-0.000332642	0.00685944
4081.13	-0.698181	-0.0176208
4081.59	0.000683594	0.00500793
4082.07	-0.000482178	0.0068576
4082.53	-0.697815	-0.0176239
4082.99	0.000796509	0.00501068
4083.47	0.000244141	0.00685608
4083.93	-0.698853	-0.0176239
4084.39	0.000692749	0.00500793
4084.87	0.000387573	0.00685242
4085.33	-0.698547	-0.0176208
4085.79	-0.000125122	0.00501556
4086.27	-0.000335693	0.0068573
4086.73	-0.698364	-0.017627
4087.19	0.00072937	0.00500885
4087.67	0.000143433	0.00684937
4088.13	-0.698914	-0.0176178
4088.59	0.000598145	0.00500824
4089.07	-0.000415039	0.00685608
4089.53	-0.697876	-0.0176178
4089.99	0.000408936	0.00501129
4090.47	0.000561523	0.00684967
4090.93	-0.698822	-0.0176239
4091.39	0.000204468	0.00501343
4091.87	6.10352e-06	0.00685577
4092.33	-0.698792	-0.0176147
4092.79	0.000793457	0.00501038
4093.27	-0.000393677	0.0068576
4093.73	-0.698639	-0.0176147
4094.19	0.000134277	0.00501556
4094.67	0.000534058	0.00684814
4095.13	-0.697754	-0.0176239
4095.59	-0.000219727	0.00501465
4096.07	0.000143433	0.0068512
4096.53	-0.698639	-0.0176117
4096.99	-0.000430298	0.0050174
4097.47	-0.000576782	0.00685425
4097.93	-0.697845	-0.017627
4098.39	0.000274658	0.00501678
4098.87	0.00012207	0.00684814
4099.33	-0.698853	-0.0176117
4099.79	0.000494385	0.00500977
4100.27	0.000662231	0.00684601
4100.73	-0.698822	-0.0176239
4101.19	0.000469971	0.00501221
4101.67	-0.000161743	0.00685333
4102.13	-0.697754	-0.0176208
4102.59	-0.000311279	0.00501831
4103.07	0.000363159	0.0068454
4103.53	-0.697784	-0.0176147
4103.99	0.000686646	0.00501007
4104.47	0.000442505	0.00684906
4104.93	-0.698395	-0.0176147
4105.39	0.000170898	0.00501648
4105.87	-0.000527954	0.00685272
4106.33	-0.698364	-0.0176147
4106.79	0.00032959	0.0050119
4107.27	-6.71387e-05	0.00685272
4107.73	-0.698761	-0.0176208
4108.19	0.000839233	0.00501251
4108.67	0.000335693	0.0068454
4109.13	-0.6987	-0.0176178
4109.59	0.000674438	0.00501343
4110.07	-0.000189209	0.0068515
4110.53	-0.697723	-0.0176147
4110.99	-0.000186157	0.00501556
4111.47	0.000595093	0.00684418
4111.93	-0.6987	-0.0176178
4112.39	6.10352e-05	0.00501892
4112.87	-7.62939e-05	0.00685211
4113.33	-0.698792	-0.0176178
4113.79	0.000640869	0.00501099
4114.27	0.000387573	0.00684601
4114.73	-0.697632	-0.0176239
4115.19	-0.000436401	0.00501923
4115.67	-0.000265503	0.00684723
4116.13	-0.698578	-0.0176147
4116.59	3.35693e-05	0.00501495
4117.07	0.000436401	0.00684235
4117.53	-0.697876	-0.0176178
4117.99	0.00012207	0.0050119
4118.47	0.000564575	0.00684448
4118.93	-0.698486	-0.0176117
4119.39	-0.000442505	0.00501892
4119.87	0.000613403	0.00684418
4120.33	-0.698944	-0.0176178
4120.79	0.000332642	0.00501556
4121.27	0.000579834	0.00684143
4121.73	-0.698303	-0.0176117
4122.19	-0.000411987	0.00502075
4122.67	0.000247192	0.00684174
4123.13	-0.698853	-0.0176117
4123.59	0.000723267	0.00501587
4124.07	0.000476074	0.00684387
4124.53	-0.697815	-0.0176208
4124.99	-0.00038147	0.00502258
4125.47	0.000256348	0.00684204
4125.93	-0.698486	-0.0176056
4126.39	-0.000393677	0.00502075
4126.87	0.000143433	0.0068454
4127.33	-0.697784	-0.0176208
4127.79	0.000424194	0.00502045
4128.27	0.000524902	0.00684021
4128.73	-0.698059	-0.0176178
4129.19	-0.000442505	0.00502136
4129.67	-0.000299072	0.00684784
4130.13	-0.697693	-0.0176147
4130.59	-0.000109863	0.00502106
4131.07	0.000683594	0.00684082
4131.53	-0.697754	-0.0176208
4131.99	0.000759888	0.00501434
4132.47	-0.000411987	0.00684723
4132.93	-0.698212	-0.0176086
4133.39	0.00078125	0.00501373
4133.87	0.000350952	0.0068399
4134.33	-0.698883	-0.0176086
4134.79	-0.000195313	0.00502258
4135.27	-0.00017395	0.00684204
4135.73	-0.698914	-0.0176117
4136.19	0.000189209	0.00502014
4136.67	0.000692749	0.00683807
4137.13	-0.697754	-0.0176147
4137.59	-0.000326538	0.00502319
4138.07	0.000253296	0.00684479
4138.53	-0.697845	-0.0176117
4138.99	0.000393677	0.00501892
4139.47	0.000265503	0.00684296
4139.93	-0.697662	-0.0176208
4140.39	0.000100708	0.00501709
4140.87	0.000643921	0.0068396
4141.33	-0.697693	-0.0176086
4141.79	-0.000415039	0.0050235
4142.27	-0.000418091	0.00684631
4142.73	-0.698944	-0.0176025
4143.19	-0.000378418	0.00502472
4143.67	-0.000375366	0.00684479
4144.13	-0.697723	-0.0176147
4144.59	0.000115967	0.00501892
4145.07	0.00038147	0.00683716
4145.53	-0.697723	-0.0176147
4145.99	0.000637817	0.00501678
4146.47	0.000668335	0.00683777
4146.93	-0.698425	-0.0176117
4147.39	8.54492e-05	0.00502258
4147.87	0.000488281	0.00683533
4148.33	-0.697754	-0.0176117
4148.79	0.000521851	0.00501709
4149.27	0.000335693	0.0068399
4149.73	-0.698486	-0.0176086
4150.19	0.000610352	0.00501862
4150.67	0.000241089	0.00683746
4151.13	-0.698883	-0.0176025
4151.59	-0.000341797	0.00502289
4152.07	0.000274658	0.00684082
4152.53	-0.697876	-0.0176147
4152.99	-3.35693e-05	0.00501892
4153.47	0.00038147	0.0068399
4153.93	-0.697754	-0.0176147
4154.39	-0.000369263	0.00502686
4154.87	-0.000152588	0.00683899
4155.33	-0.698273	-0.0175995
4155.79	-0.000424194	0.00502563
4156.27	0.000683594	0.00683685
4156.73	-0.698181	-0.0176086
4157.19	0.000750732	0.00501862
4157.67	-0.000167847	0.00684509
4158.13	-0.697845	-0.0176086
4158.59	0.000759888	0.00501953
4159.07	0.000189209	0.00683716
4159.53	-0.698669	-0.0175995
4159.99	0.000695801	0.00501923
4160.47	-9.46045e-05	0.00684235
4160.93	-0.697937	-0.0176056
4161.39	-0.000338745	0.00502747
4161.87	-0.000317383	0.00683899
4162.33	-0.698883	-0.0176086
4162.79	-0.000302124	0.0050296
4163.27	0.000582886	0.00683319
4163.73	-0.697693	-0.0176025
4164.19	-0.000280762	0.00502686
4164.67	0.0003479	0.00683685
4165.13	-0.698914	-0.0176025
4165.59	0.000741577	0.00502106
4166.07	-0.000274658	0.00684113
4166.53	-0.697662	-0.0176056
4166.99	-0.000314331	0.00502869
4167.47	-4.88281e-05	0.00684082
4167.93	-0.698853	-0.0175964
4168.39	-0.00045166	0.0050296
4168.87	-0.000213623	0.00683777
4169.33	-0.698853	-0.0175995
4169.79	0.000411987	0.00502472
4170.27	-0.000308228	0.00683807
4170.73	-0.697998	-0.0176056
4171.19	-4.88281e-05	0.00502838
4171.67	0.000592041	0.00683411
4172.13	-0.698608	-0.0176025
4172.59	0.000228882	0.00502777
4173.07	0.000323486	0.00683868
4173.53	-0.697754	-0.0176086
4173.99	0	0.00502533
4174.47	-0.000259399	0.00683807
4174.93	-0.697754	-0.0176025
4175.39	0.000634766	0.00502167
4175.87	0.000668335	0.00683289
4176.33	-0.698669	-0.0175995
4176.79	0.000665283	0.00502228
4177.27	-0.000500488	0.00683685
4177.73	-0.698883	-0.0175964
4178.19	-0.000418091	0.00503113
4178.67	0.0006073	0.00683258
4179.13	-0.698883	-0.0175934
4179.59	0.000375366	0.00502411
4180.07	0.000509644	0.00683319
4180.53	-0.698578	-0.0176056
4180.99	0.00015564	0.00502502
4181.47	0.000241089	0.00683136
4181.93	-0.698486	-0.0175903
4182.39	-0.000469971	0.0050293
4182.87	0.000289917	0.00683716
4183.33	-0.698914	-0.0175934
4183.79	0.000424194	0.00502411
4184.27	-0.000515747	0.00683777
4184.73	-0.698578	-0.0175934
4185.19	0.000588989	0.00502594
4185.67	-0.000524902	0.00683685
4186.13	-0.698212	-0.0175995
4186.59	-0.00045166	0.00503082
4187.07	0.000643921	0.00683258
4187.53	-0.697723	-0.0176025
4187.99	0.000323486	0.00502228
4188.47	-0.000491333	0.00683655
4188.93	-0.698517	-0.0175995
4189.39	-0.000326538	0.00503082
4189.87	0.00017395	0.00683533
4190.33	-0.697601	-0.0175934
4190.79	0.000646973	0.00502686
4191.27	-0.000161743	0.0068338
4191.73	-0.698669	-0.0175995
4192.19	0.000595093	0.0050238
4192.67	-0.000476074	0.00683319
4193.13	-0.698792	-0.0175934
4193.59	0.000152588	0.00503052
4194.07	0.00022583	0.0068335
4194.53	-0.698425	-0.0175903
4194.99	0.000335693	0.00502838
4195.47	0.000637817	0.00682953
4195.93	-0.697906	-0.0175934
4196.39	-0.000488281	0.00503326
4196.87	-0.000161743	0.00683502
4197.33	-0.698883	-0.0175903
4197.79	0.000802612	0.00502533
4198.27	-0.000170898	0.00683014
4198.73	-0.697723	-0.0176025
4199.19	0.00072937	0.00502533
4199.67	-0.00020752	0.00683502
4200.13	-0.697693	-0.0175995
4200.59	0.000726318	0.00502655
4201.07	0.000579834	0.00682861
4201.53	-0.698608	-0.0175842
4201.99	0.00020752	0.00502808
4202.47	-0.000146484	0.00683502
4202.93	-0.697876	-0.0175903
4203.39	-0.000439453	0.00503418
4203.87	-0.000439453	0.00683258
4204.33	-0.697723	-0.0175995
4204.79	0.000640869	0.00502686
4205.27	-0.000115967	0.00683319
4205.73	-0.69754	-0.0175934
4206.19	0.000494385	0.0050293
4206.67	0.000393677	0.00682892
4207.13	-0.698792	-0.0175873
4207.59	0.000112915	0.00503296
4208.07	-0.000119019	0.00682709
4208.53	-0.698029	-0.0175934
4208.99	0.000170898	0.0050293
4209.47	0.000592041	0.00682617
4209.93	-0.698059	-0.0175995
4210.39	3.35693e-05	0.00503326
4210.87	0.00038147	0.00682953
4211.33	-0.698059	-0.0175873
4211.79	0.000363159	0.00502808
4212.27	0.000506592	0.00682953
4212.73	-0.698761	-0.0175903
4213.19	0.000567627	0.00503204
4213.67	-0.000344849	0.00683289
4214.13	-0.697968	-0.0175934
4214.59	-0.000180054	0.00503265
4215.07	-7.93457e-05	0.00683167
4215.53	-0.6987	-0.0175964
4215.99	-0.000445557	0.0050354
4216.47	0.000497437	0.00682495
4216.93	-0.698364	-0.0175903
4217.39	-0.000271606	0.00503571
4217.87	0.00067749	0.00682678
4218.33	-0.698822	-0.0175781
4218.79	0.000140381	0.00503296
4219.27	-0.000427246	0.00683228
4219.73	-0.698181	-0.0175903
4220.19	-0.000369263	0.0050354
4220.67	0.000299072	0.00682526
4221.13	-0.698914	-0.0175873
4221.59	0.000393677	0.0050293
4222.07	1.83105e-05	0.00682617
4222.53	-0.698822	-0.0175812
4222.99	0.000692749	0.00503235
4223.47	-0.000457764	0.00683197
4223.93	-0.698792	-0.0175873
4224.39	0.000738525	0.0050296
4224.87	0.000509644	0.00682556
4225.33	-0.698517	-0.0175781
4225.79	-0.000302124	0.0050351
4226.27	-0.00017395	0.00682678
4226.73	-0.697754	-0.0175934
4227.19	-0.000442505	0.00503723
4227.67	9.15527e-05	0.00682983
4228.13	-0.697815	-0.0175903
4228.59	0.000390625	0.0050296
4229.07	-0.000286865	0.00682953
4229.53	-0.698822	-0.0175812
4229.99	0.000442505	0.00503021
4230.47	0.000369263	0.0068222
4230.93	-0.6987	-0.0175934
4231.39	-0.000421143	0.00503815
4231.87	0.000308228	0.00682465
4232.33	-0.698486	-0.0175873
4232.79	-0.000463867	0.00503754
4233.27	-0.000534058	0.00682587
4233.73	-0.698883	-0.0175781
4234.19	0.000747681	0.00503021
4234.67	0.000531006	0.00681946
4235.13	-0.698914	-0.0175781
4235.59	-0.000366211	0.00503815
4236.07	-0.000378418	0.0068277
4236.53	-0.697723	-0.0175873
4236.99	0.000375366	0.00503479
4237.47	-0.00012207	0.00682831
4237.93	-0.698303	-0.0175873
4238.39	0.000601196	0.00503052
4238.87	-0.000469971	0.0068277
4239.33	-0.697815	-0.0175903
4239.79	-0.000341797	0.00503906
4240.27	-0.000430298	0.00682709
4240.73	-0.698883	-0.0175873
4241.19	-0.000109863	0.00503815
4241.67	-0.00043335	0.00682739
4242.13	-0.697998	-0.0175812
4242.59	0.000778198	0.00503082
4243.07	8.8501e-05	0.00682495
4243.53	-0.6987	-0.0175812
4243.99	-0.000430298	0.00503845
4244.47	-0.000473022	0.00682587
4244.93	-0.698456	-0.0175842
4245.39	-0.000244141	0.00503632
4245.87	0.000488281	0.00681763
4246.33	-0.698273	-0.0175842
4246.79	3.05176e-06	0.00503418
4247.27	-0.000393677	0.00682129
4247.73	-0.697784	-0.0175842
4248.19	0.000686646	0.00503387
4248.67	0.000646973	0.00681732
4249.13	-0.69873	-0.017569
4249.59	0.000421143	0.00503479
4250.07	0.000216675	0.00681793
4250.53	-0.698517	-0.017572
4250.99	0.000726318	0.00503174
4251.47	7.01904e-05	0.00681793
4251.93	-0.698669	-0.0175781
4252.39	0.000137329	0.00503967
4252.87	-6.71387e-05	0.00681549
4253.33	-0.698914	-0.0175812
4253.79	-0.000292969	0.00503967
4254.27	-0.00050354	0.0068219
4254.73	-0.698914	-0.0175842
4255.19	0.000714111	0.00503204
4255.67	0.000558472	0.00681427
4256.13	-0.69812	-0.0175903
4256.59	-0.000396729	0.00503906
4257.07	-0.000186157	0.0068222
4257.53	-0.698578	-0.0175842
4257.99	0.000653076	0.00503082
4258.47	0.000665283	0.00681396
4258.93	-0.698853	-0.0175781
4259.39	-0.000372314	0.00503784
4259.87	-0.000262451	0.00681824
4260.33	-0.697784	-0.0175842
4260.79	-0.00027771	0.00503937
4261.27	8.8501e-05	0.00681976
4261.73	-0.698761	-0.0175781
4262.19	-0.000216675	0.00503876
4262.67	-0.000259399	0.00681519
4263.13	-0.698547	-0.0175751
4263.59	-0.000219727	0.00503571
4264.07	-0.000372314	0.00676697
4264.53	-0.698059	-0.0174927
4264.99	-0.000363159	0.00500488
4265.47	-0.000354004	0.00673828
4265.93	-0.698914	-0.0175171
4266.39	-0.000402832	0.0049939
4266.87	0.000637817	0.00672424
4267.33	-0.698822	-0.0175171
4267.79	-0.000411987	0.00499207
4268.27	-0.000134277	0.00672943
4268.73	-0.697662	-0.0175232
4269.19	0.000704956	0.00498383
4269.67	-0.00012207	0.00672668
4270.13	-0.699005	-0.0175232
4270.59	-0.000378418	0.00499115
4271.07	-0.000299072	0.00673096
4271.53	-0.698456	-0.017514
4271.99	-0.000189209	0.00499298
4272.47	0.000738525	0.00672455
4272.93	-0.697754	-0.0175232
4273.39	-0.00050354	0.00499329
4273.87	0.000393677	0.00672699
4274.33	-0.698853	-0.0175171
4274.79	-0.000338745	0.00499664
4275.27	0.000128174	0.00673462
4275.73	-0.6987	-0.017514
4276.19	0.000482178	0.00499176
4276.67	-0.000274658	0.00673767
4277.13	-0.698822	-0.017514
4277.59	-7.32422e-05	0.00499451
4278.07	0.000344849	0.00672974
4278.53	-0.69809	-0.0175262
4278.99	-4.57764e-05	0.00499847
4279.47	-0.000506592	0.00673798
4279.93	-0.698944	-0.01763
4280.39	0.000698853	0.00500824
4280.87	-0.000125122	0.00679352
4281.33	-0.698853	-0.0176331
4281.79	0.000665283	0.00500732
4282.27	-0.00022583	0.00679657
4282.73	-0.698853	-0.0176361
4283.19	-0.000213623	0.00501526
4283.67	-0.00038147	0.00679749
4284.13	-0.698547	-0.0176361
4284.59	-0.000177002	0.00501282
4285.07	-0.000485229	0.00679901
4285.53	-0.697845	-0.017627
4285.99	7.01904e-05	0.00501343
4286.47	0.00050354	0.00679443
4286.93	-0.697693	-0.0176331
4287.39	0.000112915	0.00501312
4287.87	-0.000570679	0.00679932
4288.33	-0.697662	-0.01763
4288.79	0.000390625	0.00501617
4289.27	-0.000363159	0.00680176
4289.73	-0.697723	-0.017627
4290.19	0.000634766	0.00501556
4290.67	-0.000497437	0.00680237
4291.13	-0.697906	-0.01763
4291.59	0.000579834	0.0050177
4292.07	0.000241089	0.00679749
4292.53	-0.697937	-0.017627
4292.99	0.000650024	0.00501709
4293.47	-0.000134277	0.00680481
4293.93	-0.698517	-0.0176239
4294.39	-0.000424194	0.00502716
4294.87	0.000650024	0.00679749
4295.33	-0.697937	-0.0176117
4295.79	0.000741577	0.00502045
4296.27	0.00015564	0.00680023
4296.73	-0.6987	-0.0176178
4297.19	-0.000430298	0.00502991
4297.67	0.000540161	0.0068045
4298.13	-0.697968	-0.0176178
4298.59	0.000299072	0.0050238
4299.07	-0.000354004	0.0068045
4299.53	-0.698273	-0.0176208
4299.99	0.000216675	0.00502563
4300.47	-0.000500488	0.00680756
4300.93	-0.698883	-0.0176086
4301.39	0.000692749	0.00502563
4301.87	-0.000476074	0.00680786
4302.33	-0.6987	-0.0176086
4302.79	-4.27246e-05	0.00503387
4303.27	9.15527e-06	0.00680664
4303.73	-0.698151	-0.0176117
4304.19	-0.000152588	0.00503387
4304.67	0.000338745	0.00680115
4305.13	-0.698425	-0.0176147
4305.59	-0.000198364	0.00503052
4306.07	-3.05176e-05	0.00680542
4306.53	-0.698914	-0.0176086
4306.99	0.000744629	0.00502594
4307.47	-0.000570679	0.00680664
4307.93	-0.697968	-0.0176239
4308.39	0.000482178	0.00502869
4308.87	-0.000418091	0.00680695
4309.33	-0.698853	-0.0176147
4309.79	-0.000421143	0.00503326
4310.27	0.000567627	0.00680115
4310.73	-0.698914	-0.0176086
4311.19	-0.000228882	0.00503021
4311.67	0.00027771	0.00680054
4312.13	-0.698029	-0.0176147
4312.59	6.71387e-05	0.00502655
4313.07	-0.000283813	0.00680267
4313.53	-0.698151	-0.0176208
4313.99	-0.000387573	0.00503387
4314.47	-0.000494385	0.00680664
4314.93	-0.698944	-0.0176117
4315.39	-0.000421143	0.00503601
4315.87	0.000631714	0.00679932
4316.33	-0.697937	-0.0176208
4316.79	-1.2207e-05	0.00503479
4317.27	-0.000592041	0.00680359
4317.73	-0.69873	-0.0176056
4318.19	-7.93457e-05	0.00503632
4318.67	-0.000170898	0.00679962
4319.13	-0.697815	-0.0176117
4319.59	-0.000460815	0.00503601
4320.07	-5.18799e-05	0.00679962
4320.53	-0.69873	-0.0176086
4320.99	0.000613403	0.00502777
4321.47	0.00055542	0.006796875
4321.93	-0.698181	-0.0176117
4322.39	-0.000323486	0.00503143
4322.87	0.000531006	0.00679657
4323.33	-0.698334	-0.0176025
4323.79	0.000424194	0.00503113
4324.27	-0.000430298	0.0068045
4324.73	-0.698914	-0.0176086
4325.19	0.000524902	0.00502838
4325.67	-0.000415039	0.00680481
4326.13	-0.698853	-0.0176056
4326.59	-0.00045166	0.0050351
4327.07	-0.000558472	0.0068042
4327.53	-0.697784	-0.0176056
4327.99	0.000546265	0.00503174
4328.47	-6.40869e-05	0.00679901
4328.93	-0.69809	-0.0176056
4329.39	0.00072937	0.00502777
4329.87	-0.000326538	0.00680054
4330.33	-0.697723	-0.0176086
4330.79	0.000701904	0.00502869
4331.27	0.00032959	0.00679504
4331.73	-0.697723	-0.0176178
4332.19	-0.000259399	0.00503113
4332.67	0.000427246	0.00679779
4333.13	-0.698486	-0.0176025
4333.59	0.000634766	0.00502808
4334.07	7.62939e-05	0.00679901
4334.53	-0.697876	-0.0176117
4334.99	4.27246e-05	0.00503204
4335.47	0.000405884	0.00679352
4335.93	-0.698273	-0.0176147
4336.39	-0.000445557	0.00503723
4336.87	-0.000592041	0.00679901
4337.33	-0.698853	-0.0175964
4337.79	0.000747681	0.00502808
4338.27	-0.000531006	0.00679993
4338.73	-0.698486	-0.0175995
4339.19	-0.000299072	0.00503723
4339.67	-0.000216675	0.00679718
4340.13	-0.698608	-0.0175995
4340.59	0.000720215	0.00502991
4341.07	0	0.00679413
4341.53	-0.697906	-0.0175995
4341.99	4.57764e-05	0.0050293
4342.47	-0.000549316	0.00679749
4342.93	-0.698822	-0.0176056
4343.39	0.000238037	0.00503143
4343.87	-0.000289917	0.00679901
4344.33	-0.698151	-0.0176117
4344.79	-0.000421143	0.00503754
4345.27	-0.000177002	0.00679718
4345.73	-0.698853	-0.0175995
4346.19	-0.000411987	0.00503754
4346.67	0.000390625	0.00679626
4347.13	-0.698944	-0.0176086
4347.59	0.000317383	0.0050354
4348.07	0.000189209	0.00679413
4348.53	-0.69873	-0.0175995
4348.99	-0.000393677	0.00503754
4349.47	0.00062561	0.00678894
4349.93	-0.698822	-0.0176025
4350.39	0.000259399	0.00503143
4350.87	-0.000415039	0.00679474
4351.33	-0.697906	-0.0176056
4351.79	0.000286865	0.0050296
4352.27	-0.000393677	0.0067923
4352.73	-0.698029	-0.0176025
4353.19	0.000372314	0.00503357
4353.67	-0.000360107	0.00679565
4354.13	-0.698334	-0.0176056
4354.59	0.00057373	0.00503021
4355.07	-0.000531006	0.00679504
4355.53	-0.6987	-0.0176025
4355.99	-0.000430298	0.00503845
4356.47	-0.000302124	0.00679596
4356.93	-0.697998	-0.0176086
4357.39	-0.000430298	0.0050354
4357.87	0.000393677	0.00678864
4358.33	-0.698212	-0.0175964
4358.79	0.000708008	0.00503113
4359.27	0.000445557	0.00678741
4359.73	-0.698883	-0.0175995
4360.19	0.000595093	0.00503235
4360.67	0.000674438	0.0067868
4361.13	-0.697784	-0.0176086
4361.59	0.000585937	0.0050351
4362.07	-0.000506592	0.00679077
4362.53	-0.697723	-0.0176086
4362.99	0.000198364	0.00503296
4363.47	-0.00032959	0.00679291
4363.93	-0.697693	-0.0176025
4364.39	4.88281e-05	0.00503784
4364.87	0.000158691	0.00679108
4365.33	-0.698364	-0.0175934
4365.79	0.000442505	0.00503479
4366.27	-0.000466919	0.00679077
4366.73	-0.697693	-0.0176025
4367.19	-0.000344849	0.0050351
4367.67	0.000671387	0.0067865
4368.13	-0.698242	-0.0176056
4368.59	0.000323486	0.00503296
4369.07	-0.000228882	0.00679321
4369.53	-0.698608	-0.0175934
4369.99	0.000195313	0.00503387
4370.47	-2.44141e-05	0.00678741
4370.93	-0.697876	-0.0176025
4371.39	2.74658e-05	0.00503906
4371.87	0.000363159	0.00678375
4372.33	-0.698425	-0.0176025
4372.79	0.000708008	0.00503265
4373.27	0.000314331	0.00678497
4373.73	-0.698303	-0.0175934
4374.19	-0.00027771	0.00504181
4374.67	-0.000445557	0.00679199
4375.13	-0.697906	-0.0176025
4375.59	0.00072937	0.00503204
4376.07	0.000650024	0.00678314
4376.53	-0.697906	-0.0175903
4376.99	0.000769043	0.00503387
4377.47	-0.000546265	0.00679138
4377.93	-0.698669	-0.0175934
4378.39	-0.00032959	0.00503845
4378.87	-0.000320435	0.00678772
4379.33	-0.69809	-0.0176025
4379.79	-0.000131226	0.00504028
4380.27	0.000564575	0.00678619
4380.73	-0.698639	-0.0175873
4381.19	-0.000262451	0.00504272
4381.67	-0.000311279	0.00679169
4382.13	-0.698883	-0.0175934
4382.59	-0.000396729	0.00503784
4383.07	-0.000231934	0.00678894
4383.53	-0.698883	-0.0175842
4383.99	-0.000448608	0.00504242
4384.47	0.000466919	0.00678436
4384.93	-0.698547	-0.0175842
4385.39	0.000634766	0.00503754
4385.87	0.000442505	0.00678436
4386.33	-0.698853	-0.0175903
4386.79	-0.000241089	0.00503754
4387.27	0.00072937	0.00678192
4387.73	-0.698517	-0.0175964
4388.19	0.000112915	0.00503784
4388.67	-0.000283813	0.0067865
4389.13	-0.697754	-0.0175934
4389.59	0.000372314	0.00503967
4390.07	0.000640869	0.00678131
4390.53	-0.697784	-0.0175934
4390.99	-0.000341797	0.00504456
4391.47	9.76562e-05	0.0067865
4391.93	-0.697998	-0.0175903
4392.39	-0.000183105	0.00504517
4392.87	0.000561523	0.00678314
4393.33	-0.698303	-0.0175842
4393.79	0.000552368	0.00503876
4394.27	0.000616455	0.00678009
4394.73	-0.697601	-0.0175934
4395.19	-2.13623e-05	0.00504303
4395.67	0.000256348	0.00678101
4396.13	-0.698273	-0.0175964
4396.59	-1.52588e-05	0.00504059
4397.07	-0.000210571	0.00678284
4397.53	-0.698364	-0.0175873
4397.99	-0.000354004	0.00504303
4398.47	4.57764e-05	0.00678284
4398.93	-0.698273	-0.0175964
4399.39	0.000576782	0.00503754
4399.87	-0.000494385	0.00678772
4400.33	-0.697723	-0.0175903
4400.79	-0.000405884	0.00504486
4401.27	-0.000274658	0.00678711
4401.73	-0.698944	-0.0175903
4402.19	-0.00022583	0.00504578
4402.67	-0.000482178	0.00678558
4403.13	-0.698578	-0.0175781
4403.59	-0.000439453	0.00504425
4404.07	-0.000515747	0.0067865
4404.53	-0.698883	-0.0175873
4404.99	-0.00032959	0.00504547
4405.47	0.00015564	0.0067804
4405.93	-0.697815	-0.0175873
4406.39	-8.8501e-05	0.00504486
4406.87	0.000698853	0.00677704
4407.33	-0.698547	-0.0175934
4407.79	3.96729e-05	0.00503845
4408.27	0.00050354	0.00677979
4408.73	-0.698853	-0.0175812
4409.19	9.46045e-05	0.00503998
4409.67	0.000628662	0.00677673
4410.13	-0.698914	-0.0175873
4410.59	0.00045166	0.00504028
4411.07	-4.27246e-05	0.00678223
4411.53	-0.697845	-0.0175934
4411.99	-0.000473022	0.00504333
4412.47	-0.000366211	0.00678467
4412.93	-0.698151	-0.0175842
4413.39	0.00071106	0.00503845
4413.87	-0.000280762	0.00678101
4414.33	-0.698181	-0.0175903
4414.79	0.000289917	0.00504272
4415.27	0.000497437	0.00677582
4415.73	-0.697815	-0.0175934
4416.19	-0.000430298	0.00504761
4416.67	0.000741577	0.00677643
4417.13	-0.698181	-0.0175873
4417.59	-0.000509644	0.00504486
4418.07	0.000430298	0.00677399
4418.53	-0.69873	-0.0175842
4418.99	0.00071106	0.00503876
4419.47	-0.000183105	0.00677765
4419.93	-0.698456	-0.0175812
4420.39	-0.000424194	0.00504578
4420.87	-0.000509644	0.00678131
4421.33	-0.697754	-0.0175842
4421.79	0.0003479	0.00503845
4422.27	0.000283813	0.00677948
4422.73	-0.698883	-0.0175751
4423.19	-0.000418091	0.00504578
4423.67	0.000344849	0.00677582
4424.13	-0.697693	-0.0175873
4424.59	0.000701904	0.00503876
4425.07	-0.000485229	0.00678009
4425.49	0.000799561	0.00393585