File: Edgar/20240607/20240607/electrodeposition_pulsed_potential_20240607_C/pulses_4000_to_5000.txt
Time (s)	WE(1).Potential (V)	WE(1).Current (A)
3016.76	-0.698669	-0.021283
3017.22	0.000112915	0.00296692
3017.7	0.000558472	0.00615906
3018.16	-0.698029	-0.0183746
3018.62	0.000476074	0.00446259
3019.1	-0.000491333	0.00687164
3019.56	-0.698059	-0.0179596
3020.02	-0.000473022	0.00470703
3020.5	-0.000326538	0.00700623
3020.96	-0.698883	-0.017868
3021.42	0.000289917	0.00475922
3021.9	-0.00050354	0.00704498
3022.36	-0.698792	-0.0178436
3022.82	0.000244141	0.00478851
3023.3	0.000640869	0.00705719
3023.76	-0.698914	-0.0178253
3024.22	-0.000421143	0.00480438
3024.7	0.000537109	0.00706909
3025.16	-0.698822	-0.0178162
3025.62	-0.00045166	0.00481445
3026.1	0.000299072	0.00707642
3026.56	-0.698853	-0.0178131
3027.02	0.000708008	0.00481415
3027.5	-0.000253296	0.00708862
3027.96	-0.698914	-0.017804
3028.42	0.000488281	0.00482147
3028.9	-0.000186157	0.00709259
3029.36	-0.698914	-0.0177979
3029.82	9.76562e-05	0.0048288
3030.3	-0.000369263	0.00709839
3030.76	-0.698578	-0.0177917
3031.22	-0.000393677	0.00483521
3031.7	-0.000515747	0.00710419
3032.16	-0.697815	-0.0177979
3032.62	0.000650024	0.00483185
3033.1	-0.000506592	0.0071048
3033.56	-0.697906	-0.0178009
3034.02	-0.000439453	0.0048407
3034.5	0.000189209	0.00710175
3034.96	-0.698486	-0.0177826
3035.42	0.000750732	0.00483551
3035.9	-9.15527e-05	0.00710907
3036.36	-0.697937	-0.0177979
3036.82	0.000314331	0.00483643
3037.3	-0.000411987	0.00711151
3037.76	-0.697693	-0.0177917
3038.22	0.000198364	0.00484406
3038.7	-0.000515747	0.00711212
3039.16	-0.697693	-0.0177826
3039.62	0.000418091	0.00484161
3040.1	0.000204468	0.00710968
3040.56	-0.698273	-0.0177856
3041.02	-0.0003479	0.00485077
3041.5	0.000180054	0.00710693
3041.96	-0.698822	-0.0177765
3042.42	0.000726318	0.00484375
3042.9	-0.000521851	0.00711548
3043.36	-0.698761	-0.0177795
3043.82	0.000115967	0.00485046
3044.3	3.96729e-05	0.0071109
3044.76	-0.698364	-0.0177856
3045.22	-0.000372314	0.00485413
3045.7	0.000195313	0.00711334
3046.16	-0.697968	-0.0177887
3046.62	0.000683594	0.00484619
3047.1	0.000466919	0.00711304
3047.56	-0.698914	-0.0177734
3048.02	-0.000219727	0.00485565
3048.5	-0.000521851	0.00711884
3048.96	-0.698853	-0.0177795
3049.42	0.00067749	0.00484955
3049.9	0	0.00711639
3050.36	-0.697845	-0.0177765
3050.82	-0.000241089	0.00485535
3051.3	-0.000537109	0.00711914
3051.76	-0.697906	-0.0177765
3052.22	0.000396729	0.00485748
3052.7	-6.10352e-06	0.00711395
3053.16	-0.698761	-0.0177734
3053.62	-0.000186157	0.0048584
3054.1	-0.000524902	0.00711884
3054.56	-0.698761	-0.0177673
3055.02	-0.000418091	0.00486176
3055.5	-0.000485229	0.00711914
3055.96	-0.697632	-0.0177765
3056.42	-0.000262451	0.00486267
3056.9	0.00017395	0.00711731
3057.36	-0.698761	-0.0177643
3057.82	0.000738525	0.00485504
3058.3	-0.000299072	0.00711487
3058.76	-0.698883	-0.0177673
3059.22	0.000201416	0.00485962
3059.7	0.000500488	0.0071109
3060.16	-0.698883	-0.0177643
3060.62	-0.000375366	0.00486084
3061.1	0.000643921	0.0071109
3061.56	-0.698547	-0.0177704
3062.02	0.000686646	0.00485565
3062.5	0.0006073	0.00711426
3062.96	-0.698792	-0.0177673
3063.42	0.000656128	0.00485687
3063.9	-0.000445557	0.00711945
3064.36	-0.698914	-0.0177551
3064.82	-0.000439453	0.00486511
3065.3	-0.000210571	0.00711365
3065.76	-0.697662	-0.0177673
3066.22	3.66211e-05	0.00486053
3066.7	-0.000588989	0.00711853
3067.16	-0.698486	-0.0177551
3067.62	2.13623e-05	0.00485931
3068.1	-0.000268555	0.00711487
3068.56	-0.697754	-0.0177734
3069.02	0.000717163	0.00485962
3069.5	0.000640869	0.0071106
3069.96	-0.698456	-0.0177551
3070.42	-3.05176e-05	0.00486725
3070.9	0.000189209	0.00711121
3071.36	-0.698853	-0.0177643
3071.82	-0.000219727	0.0048642
3072.3	0.000152588	0.0071106
3072.76	-0.697632	-0.0177612
3073.22	-0.000421143	0.00486755
3073.7	-0.000247192	0.007117
3074.16	-0.698334	-0.0177582
3074.62	0.000735474	0.00486145
3075.1	-0.000390625	0.007117
3075.56	-0.697693	-0.0177612
3076.02	0.000106812	0.00486725
3076.5	-0.000424194	0.00711548
3076.96	-0.697937	-0.0177551
3077.42	0.000799561	0.00486298
3077.9	-0.000143433	0.00711609
3078.36	-0.697784	-0.0177582
3078.82	-6.71387e-05	0.00486542
3079.3	-0.000357056	0.00711639
3079.76	-0.697876	-0.0177521
3080.22	-0.000228882	0.00486664
3080.7	0.000405884	0.00710632
3081.16	-0.698822	-0.017749
3081.62	-0.000378418	0.00486969
3082.1	0.000210571	0.00710693
3082.56	-0.698334	-0.0177551
3083.02	0.000564575	0.00486267
3083.5	0.000558472	0.00710876
3083.96	-0.697693	-0.0177673
3084.42	-0.000344849	0.00487
3084.9	0.000686646	0.00710724
3085.36	-0.698883	-0.0177521
3085.82	0.000198364	0.00486572
3086.3	0.000631714	0.00710693
3086.76	-0.698334	-0.0177582
3087.22	-0.000363159	0.00487244
3087.7	-0.00043335	0.00711151
3088.16	-0.698914	-0.017749
3088.62	0.000717163	0.0048645
3089.1	-0.000222778	0.00711334
3089.56	-0.698975	-0.0177521
3090.02	0.000656128	0.00486481
3090.5	0.000512695	0.00710754
3090.96	-0.698853	-0.0177551
3091.42	0.000726318	0.00486633
3091.9	-0.000531006	0.00711273
3092.36	-0.698792	-0.017749
3092.82	0.000775146	0.00486481
3093.3	-1.83105e-05	0.007109375
3093.76	-0.6987	-0.017746
3094.22	0.000418091	0.00486603
3094.7	0.000506592	0.00710541
3095.16	-0.697571	-0.0177551
3095.62	-0.000384521	0.00487274
3096.1	-0.000366211	0.00711121
3096.56	-0.697723	-0.0177551
3097.02	0.000512695	0.00486847
3097.5	-0.000259399	0.00711182
3097.96	-0.698669	-0.017749
3098.42	0.000213623	0.00486572
3098.9	0.000338745	0.00710297
3099.36	-0.698975	-0.017749
3099.82	0.000695801	0.00486481
3100.3	0.000650024	0.00710358
3100.76	-0.69809	-0.017749
3101.22	6.40869e-05	0.00487091
3101.7	0.000692749	0.00710114
3102.16	-0.698608	-0.0177429
3102.62	3.05176e-05	0.00486603
3103.1	-0.000476074	0.00710632
3103.56	-0.698151	-0.0177399
3104.02	-0.00012207	0.00487366
3104.5	-0.000491333	0.00710754
3104.96	-0.698975	-0.017746
3105.42	0.000701904	0.00486786
3105.9	0.00043335	0.0070993
3106.36	-0.698029	-0.017746
3106.82	0.00039978	0.0048703
3107.3	0.000332642	0.00709686
3107.76	-0.6987	-0.0177399
3108.22	-0.000445557	0.00487396
3108.7	-0.000149536	0.00710205
3109.16	-0.698242	-0.017746
3109.62	-0.000256348	0.00487183
3110.1	0.000320435	0.0070993
3110.56	-0.697693	-0.017749
3111.02	0.000726318	0.00486755
3111.5	0.00067749	0.00709869
3111.96	-0.698883	-0.0177429
3112.42	-0.000466919	0.00487183
3112.9	-0.000476074	0.00710297
3113.36	-0.698547	-0.0177429
3113.82	0.000283813	0.00486877
3114.3	-0.000463867	0.00710541
3114.76	-0.69873	-0.017746
3115.22	0.000622559	0.00486694
3115.7	-0.000308228	0.00710449
3116.16	-0.697937	-0.017749
3116.62	-0.000405884	0.0048761
3117.1	-0.000570679	0.00710358
3117.56	-0.697968	-0.0177551
3118.02	0.000735474	0.00486755
3118.5	-0.000524902	0.00710266
3118.96	-0.6987	-0.0177368
3119.42	0.000323486	0.00487335
3119.9	0.000585937	0.00709564
3120.36	-0.697662	-0.0177429
3120.82	0.000723267	0.00486969
3121.3	-0.000482178	0.00710175
3121.76	-0.698792	-0.0177399
3122.22	-0.000488281	0.00487671
3122.7	0.000588989	0.00709412
3123.16	-0.698914	-0.0177429
3123.62	7.62939e-05	0.0048761
3124.1	8.54492e-05	0.00709961
3124.56	-0.697784	-0.0177368
3125.02	0.000170898	0.00487518
3125.5	0.0006073	0.00709381
3125.96	-0.697693	-0.0177277
3126.42	-0.000442505	0.00486908
3126.9	-0.000143433	0.00708466
3127.36	-0.698608	-0.0177246
3127.82	-0.000424194	0.00485229
3128.3	-0.000506592	0.00707001
3128.76	-0.698456	-0.017746
3129.22	0.000402832	0.00484039
3129.7	0.000564575	0.00705872
3130.16	-0.697632	-0.017749
3130.62	-0.000299072	0.00484741
3131.1	0.000448608	0.00705994
3131.56	-0.697937	-0.0177429
3132.02	0.000292969	0.00484161
3132.5	-0.000585937	0.00707367
3132.96	-0.698792	-0.0177673
3133.42	-0.00039978	0.00485291
3133.9	-0.000488281	0.00707733
3134.36	-0.698914	-0.0177612
3134.82	-0.000131226	0.00485504
3135.3	0.000436401	0.00707367
3135.76	-0.697693	-0.0177704
3136.22	-0.000283813	0.0048587
3136.7	0.000665283	0.00707214
3137.16	-0.697876	-0.0177704
3137.62	0.00083313	0.00485229
3138.1	-0.000439453	0.00708099
3138.56	-0.698395	-0.0177582
3139.02	0.000756836	0.00485443
3139.5	-3.05176e-06	0.0070755
3139.96	-0.697632	-0.0177612
3140.42	-0.000305176	0.00486481
3140.9	0.000558472	0.00707336
3141.36	-0.698364	-0.0177551
3141.82	0.000271606	0.00485992
3142.3	-0.000125122	0.00707611
3142.76	-0.697784	-0.0177582
3143.22	0.000784302	0.0048584
3143.7	-0.000323486	0.00708313
3144.16	-0.698059	-0.0177521
3144.62	0.00050354	0.00486084
3145.1	-0.000463867	0.00708405
3145.56	-0.698303	-0.0177612
3146.02	0.000567627	0.00486359
3146.5	-0.00045166	0.00708282
3146.96	-0.69812	-0.017749
3147.42	0.000210571	0.00486237
3147.9	-0.000576782	0.00708313
3148.36	-0.698914	-0.0177399
3148.82	0.000640869	0.00486389
3149.3	-0.000491333	0.00708618
3149.76	-0.698914	-0.017749
3150.22	0.000756836	0.00486603
3150.7	-0.000479126	0.00708496
3151.16	-0.698578	-0.0177399
3151.62	0.000714111	0.00486633
3152.1	-0.000482178	0.00708557
3152.56	-0.697754	-0.0177521
3153.02	0.000823975	0.00486877
3153.5	0.000201416	0.00707764
3153.96	-0.697906	-0.017749
3154.42	-0.000436401	0.00487579
3154.9	-0.000405884	0.00708374
3155.36	-0.698944	-0.0177399
3155.82	-9.76562e-05	0.00487213
3156.3	0.000592041	0.00707825
3156.76	-0.697723	-0.017749
3157.22	0.000387573	0.00487274
3157.7	-0.000430298	0.00708008
3158.16	-0.698486	-0.0177307
3158.62	1.2207e-05	0.0048703
3159.1	0.000286865	0.00708069
3159.56	-0.697754	-0.017749
3160.02	-0.000234985	0.0048761
3160.5	0.000631714	0.00707703
3160.96	-0.698853	-0.0177399
3161.42	-0.000387573	0.00487823
3161.9	0.000558472	0.00707703
3162.36	-0.697968	-0.0177429
3162.82	-0.000296021	0.00488068
3163.3	4.57764e-05	0.00708435
3163.76	-0.698486	-0.0177277
3164.22	0.00017395	0.00487732
3164.7	0.000534058	0.00707947
3165.16	-0.698792	-0.0177307
3165.62	-6.71387e-05	0.00487701
3166.1	-0.000457764	0.00708344
3166.56	-0.698761	-0.0177338
3167.02	-0.000262451	0.00488098
3167.5	0.000332642	0.00708099
3167.96	-0.698883	-0.0177307
3168.42	0.000720215	0.00487335
3168.9	-7.62939e-05	0.00707977
3169.36	-0.697968	-0.0177338
3169.82	0.0006073	0.0048764
3170.3	-0.000146484	0.00708374
3170.76	-0.698486	-0.0177399
3171.22	0.000631714	0.00487518
3171.7	-0.000473022	0.0070816
3172.16	-0.698364	-0.0177368
3172.62	0.000222778	0.00487854
3173.1	-0.000595093	0.0070816
3173.56	-0.698364	-0.0177307
3174.02	0.000152588	0.00488373
3174.5	4.57764e-05	0.00707764
3174.96	-0.698853	-0.0177338
3175.42	-0.00027771	0.00488312
3175.9	-0.000509644	0.00708252
3176.36	-0.698059	-0.0177399
3176.82	0.000643921	0.00487976
3177.3	-0.000518799	0.00708252
3177.76	-0.698486	-0.0177307
3178.22	0.00065918	0.00487732
3178.7	-0.000167847	0.00708191
3179.16	-0.698151	-0.0177338
3179.62	-0.000198364	0.00488312
3180.1	-0.000500488	0.00708221
3180.56	-0.698181	-0.0177338
3181.02	-0.000289917	0.0048822
3181.5	0.000430298	0.00707489
3181.96	-0.698273	-0.0177368
3182.42	0.000634766	0.00487885
3182.9	0.000228882	0.00707367
3183.36	-0.697876	-0.0177277
3183.82	-0.000180054	0.00488129
3184.3	-0.000244141	0.00707825
3184.76	-0.698578	-0.0177246
3185.22	0.000775146	0.00488007
3185.7	0.000683594	0.0070752
3186.16	-0.697571	-0.0177216
3186.62	0.000512695	0.00488068
3187.1	0.000521851	0.00707306
3187.56	-0.698883	-0.0177216
3188.02	-0.00039978	0.004888
3188.5	0.000445557	0.00707184
3188.96	-0.697723	-0.0177277
3189.42	-0.000299072	0.00488617
3189.9	0.000640869	0.00707336
3190.36	-0.698547	-0.0177185
3190.82	-0.000387573	0.00488983
3191.3	-0.000125122	0.00707825
3191.76	-0.697693	-0.0177185
3192.22	0.000259399	0.00488251
3192.7	-0.000457764	0.00707825
3193.16	-0.697662	-0.0177277
3193.62	0.000769043	0.00488373
3194.1	0.000683594	0.00707153
3194.56	-0.698029	-0.0177216
3195.02	-0.000296021	0.00488983
3195.5	0.00045166	0.00707245
3195.96	-0.698059	-0.0177216
3196.42	-1.83105e-05	0.00488831
3196.9	0.000497437	0.00707031
3197.36	-0.697937	-0.0177246
3197.82	0.000750732	0.00488281
3198.3	-0.000131226	0.00707062
3198.76	-0.697754	-0.0177216
3199.22	-0.000335693	0.00489075
3199.7	2.74658e-05	0.00707581
3200.16	-0.697968	-0.0177277
3200.62	0.000732422	0.00488251
3201.1	-0.000170898	0.00707642
3201.56	-0.697571	-0.0177185
3202.02	-0.000390625	0.00489075
3202.5	-0.000344849	0.00707428
3202.96	-0.697754	-0.0177216
3203.42	-0.000491333	0.00489166
3203.9	-0.000552368	0.00707336
3204.36	-0.698151	-0.0177246
3204.82	-0.000326538	0.00489197
3205.3	-0.000448608	0.00707611
3205.76	-0.697754	-0.0177216
3206.22	0.000695801	0.00488586
3206.7	0.00065918	0.00706879
3207.16	-0.698944	-0.0177155
3207.62	0.000350952	0.00488495
3208.1	0.000643921	0.00706818
3208.56	-0.697754	-0.0177216
3209.02	0.000372314	0.00489136
3209.5	0.000616455	0.00706787
3209.96	-0.698334	-0.0177277
3210.42	0.000717163	0.00486542
3210.9	-0.000512695	0.00701813
3211.36	-0.698517	-0.0176453
3211.82	-0.00043335	0.00482117
3212.3	-0.000531006	0.00694763
3212.76	-0.697937	-0.0176331
3213.22	0.0006073	0.00479309
3213.7	0.000424194	0.00692383
3214.16	-0.698395	-0.01763
3214.62	0.000579834	0.00479523
3215.1	0.000271606	0.00695831
3215.56	-0.697906	-0.0177399
3216.02	-0.000445557	0.00479248
3216.5	0.000491333	0.00695404
3216.96	-0.697845	-0.0177399
3217.42	-1.52588e-05	0.00479156
3217.9	0.000323486	0.00695923
3218.36	-0.698883	-0.0177277
3218.82	0.000271606	0.0047937
3219.3	0.000338745	0.00695801
3219.76	-0.698212	-0.0177307
3220.22	0.000500488	0.0047934
3220.7	9.46045e-05	0.00696564
3221.16	-0.698883	-0.0177277
3221.62	-0.000216675	0.00480011
3222.1	-0.000515747	0.00697113
3222.56	-0.698914	-0.0177216
3223.02	6.10352e-05	0.00480164
3223.5	0.000671387	0.00696533
3223.96	-0.698853	-0.0177246
3224.42	-0.000439453	0.00481171
3224.9	0.000497437	0.00696899
3225.36	-0.698181	-0.0177185
3225.82	0.000570679	0.00480927
3226.3	-0.000463867	0.00697906
3226.76	-0.697876	-0.0177185
3227.22	-0.000405884	0.0048172
3227.7	-0.000219727	0.00697723
3228.16	-0.698303	-0.0176819
3228.62	0.000680542	0.0047821
3229.1	-0.000500488	0.00692627
3229.56	-0.69873	-0.0176666
3230.02	0.000704956	0.00477234
3230.5	0.00062561	0.00690094
3230.96	-0.698303	-0.0176758
3231.42	0.000119019	0.00477112
3231.9	-2.44141e-05	0.00696014
3232.36	-0.698792	-0.0177795
3232.82	0.000735474	0.00478821
3233.3	-9.46045e-05	0.00694946
3233.76	-0.697937	-0.0177856
3234.22	-0.000445557	0.00479797
3234.7	0.000683594	0.00695068
3235.16	-0.697784	-0.0177856
3235.62	0.000198364	0.0047995
3236.1	0.000598145	0.00695435
3236.56	-0.698853	-0.0177765
3237.02	0.000326538	0.00480377
3237.5	0.000454712	0.00696106
3237.96	-0.698883	-0.0177704
3238.42	0.000509644	0.00480774
3238.9	-0.000531006	0.0069696
3239.36	-0.698212	-0.0177643
3239.82	0.000268555	0.00480988
3240.3	-0.000195313	0.00697418
3240.76	-0.698883	-0.0177673
3241.22	-0.000286865	0.00481873
3241.7	-0.000100708	0.00697723
3242.16	-0.697723	-0.0177643
3242.62	0.000299072	0.00482208
3243.1	0.000488281	0.00700531
3243.56	-0.698181	-0.017807
3244.02	-0.000473022	0.00483093
3244.5	0.000662231	0.00700012
3244.96	-0.698578	-0.0178101
3245.42	0.000186157	0.00482971
3245.9	-0.000512695	0.00700989
3246.36	-0.699005	-0.017804
3246.82	-0.000305176	0.00483856
3247.3	-0.000518799	0.00701111
3247.76	-0.697754	-0.0178101
3248.22	-0.000280762	0.00484283
3248.7	0.000436401	0.00700592
3249.16	-0.697845	-0.017807
3249.62	-0.000283813	0.00484741
3250.1	-0.000436401	0.00701782
3250.56	-0.698059	-0.0177979
3251.02	-0.000457764	0.00484924
3251.5	-0.000286865	0.00701752
3251.96	-0.698792	-0.0177948
3252.42	0.000396729	0.00484924
3252.9	-0.000259399	0.00701904
3253.36	-0.698242	-0.0177795
3253.82	-0.000488281	0.00485382
3254.3	-9.15527e-06	0.00701782
3254.76	-0.698639	-0.0177795
3255.22	0.000473022	0.00485168
3255.7	0	0.00702118
3256.16	-0.698914	-0.0177795
3256.62	-0.000320435	0.00484924
3257.1	-0.000283813	0.00698242
3257.56	-0.698181	-0.0177277
3258.02	-0.000415039	0.00483734
3258.5	0.000610352	0.00696198
3258.96	-0.697723	-0.0177612
3259.42	0.000674438	0.0048233
3259.9	0.00050354	0.00696564
3260.36	-0.698364	-0.0177582
3260.82	0.000338745	0.00482574
3261.3	0.000296021	0.00696747
3261.76	-0.697662	-0.0177673
3262.22	-6.71387e-05	0.00482819
3262.7	0.000201416	0.0069693
3263.16	-0.698029	-0.017807
3263.62	0.00072937	0.00483154
3264.1	0.000390625	0.00699066
3264.56	-0.698547	-0.0178162
3265.02	0.000515747	0.00482727
3265.5	-0.000280762	0.00700195
3265.96	-0.697723	-0.0178253
3266.42	0.000540161	0.00483032
3266.9	-0.000463867	0.00700348
3267.36	-0.69873	-0.0178101
3267.82	0.000698853	0.00483368
3268.3	-0.000418091	0.00700653
3268.76	-0.698792	-0.017804
3269.22	0.000817871	0.00483826
3269.7	-0.000402832	0.00700562
3270.16	-0.697876	-0.0178131
3270.62	0.000616455	0.00483887
3271.1	0.000680542	0.00700256
3271.56	-0.698242	-0.0178162
3272.02	0.000457764	0.00484558
3272.5	-0.000531006	0.00701202
3272.96	-0.698303	-0.0177979
3273.42	-0.000186157	0.00485291
3273.9	0.000369263	0.00700531
3274.36	-0.6987	-0.0177917
3274.82	-8.54492e-05	0.00485535
3275.3	0.000552368	0.00700867
3275.76	-0.698914	-0.0177948
3276.22	0.000747681	0.00484985
3276.7	0.000631714	0.00700928
3277.16	-0.698578	-0.0177917
3277.62	-0.000411987	0.00485901
3278.1	0.000317383	0.00701111
3278.56	-0.6987	-0.0177948
3279.02	0.000375366	0.0048526
3279.5	-0.000115967	0.00701935
3279.96	-0.698151	-0.0177948
3280.42	-4.88281e-05	0.00486298
3280.9	0.000598145	0.00701385
3281.36	-0.697723	-0.0177887
3281.82	-0.000344849	0.00486328
3282.3	0.000167847	0.00701477
3282.76	-0.69873	-0.0177856
3283.22	0.000610352	0.00486115
3283.7	-0.000585937	0.00702148
3284.16	-0.698853	-0.0177826
3284.62	0.000375366	0.00486145
3285.1	0.000195313	0.0070166
3285.56	-0.697723	-0.0177856
3286.02	-0.000393677	0.00487152
3286.5	5.79834e-05	0.00702179
3286.96	-0.698914	-0.0177826
3287.42	0.000128174	0.00486847
3287.9	-0.000469971	0.00702332
3288.36	-0.697723	-0.0177887
3288.82	0.000494385	0.00486969
3289.3	0.000393677	0.00702484
3289.76	-0.698608	-0.0177734
3290.22	0.000628662	0.00486725
3290.7	0.00045166	0.00701904
3291.16	-0.698883	-0.0177795
3291.62	0.000317383	0.00487457
3292.1	-0.000372314	0.0070282
3292.56	-0.697815	-0.0177856
3293.02	0.00065918	0.00487091
3293.5	0.00065918	0.00702271
3293.96	-0.698669	-0.0177795
3294.42	-0.000305176	0.0048819
3294.9	0.000369263	0.00701935
3295.36	-0.698761	-0.0177734
3295.82	2.13623e-05	0.00488068
3296.3	0.00038147	0.00702179
3296.76	-0.697662	-0.0177734
3297.22	-0.000396729	0.0048819
3297.7	0.00038147	0.00702454
3298.16	-0.697815	-0.0177673
3298.62	0.000744629	0.0048764
3299.1	7.93457e-05	0.0070282
3299.56	-0.698853	-0.0177612
3300.02	-0.000439453	0.00488312
3300.5	-0.000476074	0.00702728
3300.96	-0.6987	-0.0177582
3301.42	3.05176e-05	0.00488403
3301.9	-0.000442505	0.00702789
3302.36	-0.697998	-0.0177734
3302.82	0.000592041	0.00488129
3303.3	-0.000500488	0.00702911
3303.76	-0.698822	-0.0177673
3304.22	-0.000274658	0.00488892
3304.7	0.000595093	0.00702179
3305.16	-0.698303	-0.0177704
3305.62	-0.000408936	0.0048877
3306.1	0.000656128	0.00702332
3306.56	-0.698944	-0.0177582
3307.02	-0.000167847	0.00488922
3307.5	0.000338745	0.00702362
3307.96	-0.698212	-0.0177673
3308.42	7.93457e-05	0.00488586
3308.9	0.00017395	0.00702972
3309.36	-0.698761	-0.0177582
3309.82	-0.000466919	0.00489014
3310.3	0.000436401	0.00702606
3310.76	-0.698822	-0.0177612
3311.22	-0.000402832	0.00489105
3311.7	-0.000323486	0.00703003
3312.16	-0.698822	-0.017746
3312.62	0.000750732	0.00488586
3313.1	-0.000454712	0.00702881
3313.56	-0.698608	-0.0177582
3314.02	-0.000457764	0.0048941
3314.5	-0.000564575	0.00703033
3314.96	-0.697693	-0.0177612
3315.42	0.000619507	0.00488647
3315.9	0.00043335	0.00702209
3316.36	-0.69873	-0.0177551
3316.82	-7.62939e-05	0.0048938
3317.3	0.000537109	0.00702148
3317.76	-0.69809	-0.0177612
3318.22	-0.000442505	0.0048941
3318.7	0.000494385	0.00702087
3319.16	-0.697723	-0.0177612
3319.62	-0.00027771	0.00489624
3320.1	-0.000506592	0.00702789
3320.56	-0.698639	-0.017749
3321.02	0.000500488	0.00489044
3321.5	-0.000482178	0.0070285
3321.96	-0.698853	-0.0177521
3322.42	-0.00012207	0.00489197
3322.9	0.000378418	0.00702179
3323.36	-0.698395	-0.0177582
3323.82	-0.000445557	0.00489685
3324.3	0.000546265	0.00702026
3324.76	-0.698029	-0.017749
3325.22	0.000585937	0.00488861
3325.7	0.000396729	0.00702209
3326.16	-0.698547	-0.0177582
3326.62	-2.44141e-05	0.00489227
3327.1	0.000619507	0.00702087
3327.56	-0.698151	-0.0177582
3328.02	-0.000332642	0.00489807
3328.5	-3.05176e-06	0.00702789
3328.96	-0.698547	-0.017746
3329.42	0.00050354	0.00489563
3329.9	0.000280762	0.00702332
3330.36	-0.697662	-0.0177551
3330.82	9.46045e-05	0.00489685
3331.3	6.40869e-05	0.00702393
3331.76	-0.697968	-0.017746
3332.22	-9.46045e-05	0.00489899
3332.7	-0.000515747	0.00702545
3333.16	-0.697815	-0.0177521
3333.62	0.000787354	0.00489349
3334.1	0.000357056	0.00701782
3334.56	-0.698486	-0.0177521
3335.02	0.000323486	0.00489258
3335.5	0.000549316	0.00702087
3335.96	-0.698822	-0.0177429
3336.42	-0.000128174	0.00489563
3336.9	-7.01904e-05	0.00702118
3337.36	-0.697968	-0.0177429
3337.82	0.000558472	0.00489166
3338.3	0.00057373	0.00701935
3338.76	-0.698425	-0.0177399
3339.22	0.000326538	0.00489227
3339.7	7.93457e-05	0.00701874
3340.16	-0.697815	-0.017749
3340.62	-0.000286865	0.00490051
3341.1	-0.000234985	0.00702148
3341.56	-0.697876	-0.0177429
3342.02	-0.000228882	0.00489777
3342.5	-0.000256348	0.00702087
3342.96	-0.697723	-0.0177521
3343.42	0.000753784	0.0048938
3343.9	0.000320435	0.00702179
3344.36	-0.69873	-0.0177429
3344.82	0.000454712	0.00489868
3345.3	5.79834e-05	0.00702026
3345.76	-0.697754	-0.017749
3346.22	-0.000366211	0.00490204
3346.7	4.27246e-05	0.00701752
3347.16	-0.6987	-0.0177368
3347.62	9.46045e-05	0.00490051
3348.1	-0.000479126	0.00702301
3348.56	-0.697723	-0.017749
3349.02	0.000561523	0.0048996
3349.5	0.000708008	0.00701508
3349.96	-0.698486	-0.017749
3350.42	0.000671387	0.00489685
3350.9	-0.000305176	0.00701904
3351.36	-0.698517	-0.017749
3351.82	0.000653076	0.00489777
3352.3	-0.000509644	0.00702179
3352.76	-0.697784	-0.0177429
3353.22	0.000744629	0.00489532
3353.7	-0.000152588	0.00701508
3354.16	-0.697968	-0.0177399
3354.62	0.000784302	0.00489594
3355.1	-0.000149536	0.00701569
3355.56	-0.697784	-0.017746
3356.02	-6.10352e-05	0.00489899
3356.5	-0.000183105	0.00701965
3356.96	-0.69873	-0.017746
3357.42	-0.000320435	0.00490173
3357.9	-0.000415039	0.00701813
3358.36	-0.698822	-0.0177399
3358.82	0.000204468	0.00490356
3359.3	-0.000180054	0.00701904
3359.76	-0.698212	-0.017746
3360.22	0.000393677	0.00489624
3360.7	0.000665283	0.00701202
3361.16	-0.698486	-0.0177338
3361.62	0.000613403	0.00489624
3362.1	-0.000469971	0.00701904
3362.56	-0.698853	-0.0177399
3363.02	0.00065918	0.00489685
3363.5	-0.0003479	0.00701233
3363.96	-0.698853	-0.0177399
3364.42	0.00062561	0.00490082
3364.9	-0.000527954	0.00701691
3365.36	-0.698669	-0.0177368
3365.82	0.000592041	0.0048999
3366.3	-0.00045166	0.00701752
3366.76	-0.697632	-0.0177429
3367.22	0.000234985	0.00489929
3367.7	0.000671387	0.00700836
3368.16	-0.697723	-0.0177429
3368.62	-0.000494385	0.0049057
3369.1	0.000338745	0.00700653
3369.56	-0.697754	-0.0177399
3370.02	0.000518799	0.00489838
3370.5	0.000259399	0.00701172
3370.96	-0.698914	-0.0177338
3371.42	-0.000250244	0.00490295
3371.9	0.000646973	0.00700714
3372.36	-0.698181	-0.0177368
3372.82	-0.000344849	0.0049054
3373.3	-1.52588e-05	0.00701447
3373.76	-0.698242	-0.0177368
3374.22	-0.000463867	0.00490601
3374.7	0.000570679	0.00700806
3375.16	-0.698029	-0.0177368
3375.62	0.000112915	0.00490021
3376.1	-0.000299072	0.00701416
3376.56	-0.698578	-0.017746
3377.02	0.00072937	0.00489899
3377.5	0.000152588	0.00700989
3377.96	-0.697723	-0.0177399
3378.42	0.000524902	0.00489899
3378.9	0.000701904	0.00700806
3379.36	-0.697723	-0.0177399
3379.82	-0.00038147	0.00490631
3380.3	0.000665283	0.00700592
3380.76	-0.697601	-0.0177368
3381.22	-4.57764e-05	0.00490265
3381.7	0.000238037	0.00700806
3382.16	-0.697693	-0.0177368
3382.62	0.00038147	0.00490051
3383.1	-0.00045166	0.00700836
3383.56	-0.698456	-0.0177246
3384.02	-0.000335693	0.00490906
3384.5	-0.000265503	0.00700836
3384.96	-0.697845	-0.0177368
3385.42	0.000750732	0.00490173
3385.9	0.000506592	0.00700562
3386.36	-0.698578	-0.017746
3386.82	-0.000418091	0.00490814
3387.3	0.000631714	0.00700348
3387.76	-0.697754	-0.0177338
3388.22	-0.00043335	0.00490906
3388.7	-0.000106812	0.00700348
3389.16	-0.697754	-0.0177338
3389.62	-5.79834e-05	0.00490906
3390.1	-0.00043335	0.00700989
3390.56	-0.698669	-0.0177277
3391.02	-0.000192261	0.00490967
3391.5	0.000540161	0.00700226
3391.96	-0.698486	-0.0177277
3392.42	-0.00032959	0.00490723
3392.9	-0.000427246	0.00701111
3393.36	-0.698761	-0.0177246
3393.82	0.000579834	0.00490631
3394.3	-0.000265503	0.00700989
3394.76	-0.69812	-0.0177277
3395.22	-0.000302124	0.00491028
3395.7	0.000637817	0.00700226
3396.16	-0.697754	-0.0177307
3396.62	0.000518799	0.00490479
3397.1	-1.83105e-05	0.00700623
3397.56	-0.698883	-0.0177307
3398.02	0.000521851	0.00490265
3398.5	0.000640869	0.00700317
3398.96	-0.698883	-0.0177246
3399.42	-5.49316e-05	0.00490631
3399.9	-0.00015564	0.00700226
3400.36	-0.698547	-0.0177216
3400.82	-0.000418091	0.0049115
3401.3	-0.00020752	0.00700287
3401.76	-0.697632	-0.0177307
3402.22	-0.000375366	0.00491241
3402.7	2.13623e-05	0.00700104
3403.16	-0.697662	-0.0177338
3403.62	-0.000250244	0.00491333
3404.1	-0.000338745	0.00700592
3404.56	-0.69812	-0.0177307
3405.02	0.000631714	0.00490387
3405.5	0.000250244	0.00700287
3405.96	-0.698853	-0.0177216
3406.42	0.00071106	0.00490387
3406.9	0.000338745	0.00699799
3407.36	-0.697937	-0.0177277
3407.82	0.000247192	0.00490936
3408.3	-0.000592041	0.00700439
3408.76	-0.698761	-0.0177185
3409.22	0.000506592	0.00490448
3409.7	0.000140381	0.00700195
3410.16	-0.698425	-0.0177185
3410.62	7.01904e-05	0.0049118
3411.1	0.000518799	0.00699738
3411.56	-0.698242	-0.0177185
3412.02	-0.000234985	0.00491058
3412.5	-0.000216675	0.00700409
3412.96	-0.698669	-0.0177185
3413.42	0.00085144	0.00490662
3413.9	0.000665283	0.00699646
3414.36	-0.698792	-0.0177185
3414.82	0.000244141	0.00491089
3415.3	-9.76562e-05	0.00699921
3415.76	-0.697815	-0.0177277
3416.22	0.000643921	0.00490662
3416.7	-0.000518799	0.00700317
3417.16	-0.698639	-0.0177185
3417.62	0.000509644	0.00490997
3418.1	-0.000488281	0.00700348
3418.56	-0.698853	-0.0177155
3419.02	-0.000234985	0.00491638
3419.5	-0.00050354	0.00700104
3419.96	-0.698517	-0.0177216
3420.42	0.000653076	0.00490875
3420.9	-0.000430298	0.00700165
3421.36	-0.698914	-0.0177216
3421.82	0.000582886	0.00490936
3422.3	-0.000280762	0.00700195
3422.76	-0.697845	-0.0177246
3423.22	0.000476074	0.00491302
3423.7	-0.000576782	0.00700134
3424.16	-0.697968	-0.0177246
3424.62	-0.00032959	0.00491669
3425.1	-0.000268555	0.00700104
3425.56	-0.698975	-0.0177216
3426.02	0.000344849	0.00491272
3426.5	0.000183105	0.00699738
3426.96	-0.698425	-0.0177216
3427.42	0.000738525	0.00490845
3427.9	0.000619507	0.00699219
3428.36	-0.698334	-0.0177246
3428.82	0.000735474	0.00490814
3429.3	-0.000341797	0.00699829
3429.76	-0.697693	-0.0177216
3430.22	-0.000189209	0.00491364
3430.7	-0.00012207	0.00699585
3431.16	-0.697601	-0.0177185
3431.62	-0.000140381	0.00491425
3432.1	0.000543213	0.00699188
3432.56	-0.698547	-0.0177216
3433.02	0.000613403	0.00490936
3433.5	-0.000497437	0.00699493
3433.96	-0.698669	-0.0177185
3434.42	-0.000411987	0.00491791
3434.9	-5.49316e-05	0.00699677
3435.36	-0.697876	-0.0177246
3435.82	-0.00017395	0.0049173
3436.3	-0.000219727	0.00699524
3436.76	-0.698212	-0.0177216
3437.22	0.000186157	0.00491241
3437.7	-8.54492e-05	0.0069928
3438.16	-0.697845	-0.0177155
3438.62	0.000680542	0.00491028
3439.1	0.00039978	0.00698853
3439.56	-0.698151	-0.0177185
3440.02	0.000714111	0.00491241
3440.5	0.000100708	0.00699066
3440.96	-0.697632	-0.0177124
3441.42	-0.000231934	0.00491943
3441.9	-0.000427246	0.0069931
3442.36	-0.698212	-0.0177094
3442.82	0.000759888	0.00491272
3443.3	8.23975e-05	0.00699524
3443.76	-0.698883	-0.0177124
3444.22	0.000689697	0.00491425
3444.7	0.000518799	0.006987
3445.16	-0.698395	-0.0177185
3445.62	0.000360107	0.00491547
3446.1	-0.000363159	0.00699493
3446.56	-0.698578	-0.0177155
3447.02	-0.000378418	0.00491852
3447.5	-0.000485229	0.00699493
3447.96	-0.697906	-0.0177155
3448.42	0.000317383	0.00491241
3448.9	-0.00027771	0.00698975
3449.36	-0.697693	-0.0177124
3449.82	0.000537109	0.00491608
3450.3	-0.000509644	0.00699402
3450.76	-0.697601	-0.0177155
3451.22	0.000271606	0.00491791
3451.7	0.000613403	0.006987
3452.16	-0.697845	-0.0177124
3452.62	0.000323486	0.00491516
3453.1	0.000442505	0.00698303
3453.56	-0.698944	-0.0177063
3454.02	-0.000216675	0.00491699
3454.5	-0.000228882	0.00699158
3454.96	-0.698669	-0.0177032
3455.42	0.000204468	0.00491913
3455.9	0.0003479	0.00698425
3456.36	-0.697876	-0.0177185
3456.82	-0.000296021	0.004921875
3457.3	-0.000479126	0.00699066
3457.76	-0.697754	-0.0177155
3458.22	0.000161743	0.00491516
3458.7	0.000161743	0.00699005
3459.16	-0.698639	-0.0177032
3459.62	-0.000152588	0.00491882
3460.1	0.000646973	0.00698334
3460.56	-0.698395	-0.0177032
3461.02	0.000671387	0.00491425
3461.5	0.00062561	0.00698212
3461.96	-0.697723	-0.0177124
3462.42	3.96729e-05	0.00492096
3462.9	-0.000442505	0.00698547
3463.36	-0.6987	-0.0177063
3463.82	2.74658e-05	0.00491547
3464.3	-0.000402832	0.00698944
3464.76	-0.69812	-0.0177094
3465.22	0.000332642	0.00492035
3465.7	0.00027771	0.00698212
3466.16	-0.698547	-0.0177124
3466.62	-0.000408936	0.00492371
3467.1	0.000656128	0.0069809
3467.56	-0.697723	-0.0177155
3468.02	0.000411987	0.00491547
3468.5	-0.000491333	0.00698883
3468.96	-0.698883	-0.0177063
3469.42	-0.000134277	0.00491974
3469.9	0.000540161	0.00697968
3470.36	-0.698914	-0.0177032
3470.82	-0.000405884	0.00492279
3471.3	0.0006073	0.00697937
3471.76	-0.697784	-0.0177185
3472.22	-0.00043335	0.0049231
3472.7	-0.000595093	0.00698517
3473.16	-0.698242	-0.0177155
3473.62	0.000253296	0.00491577
3474.1	0.000558472	0.00697723
3474.56	-0.698334	-0.0177063
3475.02	-0.0003479	0.00492218
3475.5	0.000183105	0.00697906
3475.96	-0.698914	-0.0177032
3476.42	0.000164795	0.00491791
3476.9	0.000268555	0.0069809
3477.36	-0.697723	-0.0177185
3477.82	-0.000128174	0.00491821
3478.3	-0.000448608	0.00698547
3478.76	-0.697754	-0.0177063
3479.22	-0.000421143	0.00492371
3479.7	-0.000531006	0.00698456
3480.16	-0.698914	-0.0177063
3480.62	0.000604248	0.00491699
3481.1	0.000674438	0.0069754
3481.56	-0.698608	-0.0177124
3482.02	0.000726318	0.00491669
3482.5	0.000564575	0.00697906
3482.96	-0.698914	-0.0177002
3483.42	-0.000430298	0.00492554
3483.9	0.000424194	0.0069751
3484.36	-0.698517	-0.0177002
3484.82	-5.18799e-05	0.0049234
3485.3	-0.000469971	0.00698273
3485.76	-0.698944	-0.0177063
3486.22	0.000326538	0.00492157
3486.7	0.000445557	0.00697662
3487.16	-0.698578	-0.0177002
3487.62	-0.00017395	0.00492096
3488.1	0.000689697	0.00697632
3488.56	-0.69873	-0.0176971
3489.02	0.000143433	0.00492279
3489.5	0.000656128	0.00697388
3489.96	-0.697662	-0.0177094
3490.42	-0.000448608	0.00492432
3490.9	0.000454712	0.00697235
3491.36	-0.698761	-0.0176941
3491.82	-0.000259399	0.00492523
3492.3	-0.000482178	0.00698029
3492.76	-0.697784	-0.0177063
3493.22	-0.000491333	0.00492615
3493.7	0.000402832	0.00697449
3494.16	-0.698151	-0.0177094
3494.62	0.000448608	0.00491882
3495.1	0.000582886	0.00697235
3495.56	-0.698914	-0.0177032
3496.02	0.000289917	0.00491974
3496.5	-0.000384521	0.00697571
3496.96	-0.697815	-0.0177063
3497.42	0.000598145	0.0049176
3497.9	0.000765991	0.00697113
3498.36	-0.698578	-0.017691
3498.82	0.000354004	0.00491791
3499.3	-0.00010376	0.00697357
3499.76	-0.6987	-0.0176971
3500.22	0.000436401	0.00492035
3500.7	0.000640869	0.00697021
3501.16	-0.698486	-0.0177063
3501.62	-0.00038147	0.00492706
3502.1	-0.000469971	0.00697693
3502.56	-0.697723	-0.0177002
3503.02	-0.000491333	0.00492706
3503.5	0.000262451	0.00697571
3503.96	-0.6987	-0.017691
3504.42	-0.000436401	0.00492828
3504.9	0.000643921	0.00696869
3505.36	-0.698914	-0.0176941
3505.82	0.000109863	0.00492615
3506.3	-0.000494385	0.00697601
3506.76	-0.697693	-0.0176971
3507.22	0.000674438	0.00492035
3507.7	0.000720215	0.00696777
3508.16	-0.698883	-0.0176941
3508.62	0.000466919	0.00491913
3509.1	0.000247192	0.00697205
3509.56	-0.698364	-0.0177002
3510.02	0.000738525	0.00492096
3510.5	-0.000378418	0.0069751
3510.96	-0.697784	-0.0177063
3511.42	-0.000442505	0.00492889
3511.9	-0.000473022	0.00697296
3512.36	-0.697754	-0.0176971
3512.82	0.000183105	0.0049234
3513.3	0.000738525	0.00696808
3513.76	-0.698578	-0.0176849
3514.22	-0.000161743	0.00492401
3514.7	0.000646973	0.00696625
3515.16	-0.698853	-0.017688
3515.62	-6.10352e-05	0.00492432
3516.1	0.000167847	0.00696716
3516.56	-0.697815	-0.017688
3517.02	-0.000158691	0.00492584
3517.5	-0.00050354	0.00697235
3517.96	-0.698517	-0.017691
3518.42	0.000552368	0.00492065
3518.9	0.00045166	0.0069632
3519.36	-0.698456	-0.017688
3519.82	-3.96729e-05	0.0049295
3520.3	0.000540161	0.00696381
3520.76	-0.697571	-0.0176941
3521.22	-0.000378418	0.00492889
3521.7	0.000405884	0.00696594
3522.16	-0.697845	-0.0176941
3522.62	0.000344849	0.00492554
3523.1	7.62939e-05	0.0069635
3523.56	-0.698761	-0.017688
3524.02	-0.000500488	0.00493042
3524.5	-0.000204468	0.00696686
3524.96	-0.698761	-0.017691
3525.42	-0.000424194	0.00493164
3525.9	0.000531006	0.00696228
3526.36	-0.698334	-0.017688
3526.82	9.15527e-05	0.00493011
3527.3	-9.15527e-05	0.00696594
3527.76	-0.69812	-0.0177002
3528.22	0.000311279	0.00492493
3528.7	-0.00055542	0.0069696
3529.16	-0.698517	-0.0176819
3529.62	0.000680542	0.00492615
3530.1	-3.05176e-05	0.00696869
3530.56	-0.698792	-0.017688
3531.02	0.000515747	0.00492737
3531.5	0.000131226	0.00696594
3531.96	-0.698212	-0.0176819
3532.42	0.000622559	0.00492462
3532.9	-0.000326538	0.00696869
3533.36	-0.697784	-0.017691
3533.82	0.000769043	0.00492798
3534.3	7.93457e-05	0.00696747
3534.76	-0.698242	-0.017691
3535.22	0.000363159	0.00492981
3535.7	-0.00038147	0.00696625
3536.16	-0.697723	-0.0176941
3536.62	0.000732422	0.00492706
3537.1	-9.15527e-05	0.00696594
3537.56	-0.698334	-0.017691
3538.02	0.000662231	0.00492645
3538.5	-0.000610352	0.00696594
3538.96	-0.698883	-0.0176849
3539.42	-0.000418091	0.00493164
3539.9	0.000430298	0.00696198
3540.36	-0.697723	-0.0176941
3540.82	-0.000314331	0.0049353
3541.3	-0.000463867	0.00696564
3541.76	-0.698914	-0.0176849
3542.22	0.000714111	0.00492706
3542.7	0.000296021	0.00696075
3543.16	-0.698364	-0.0176819
3543.62	-0.000286865	0.00493256
3544.1	0.000143433	0.0069577
3544.56	-0.697998	-0.0176849
3545.02	0.000418091	0.00492798
3545.5	-0.000131226	0.00696136
3545.96	-0.698029	-0.017691
3546.42	-0.00027771	0.00493561
3546.9	-0.000137329	0.00696442
3547.36	-0.698151	-0.017688
3547.82	0.000689697	0.00492798
3548.3	0.000268555	0.00695862
3548.76	-0.698853	-0.0176788
3549.22	0.000808716	0.00493011
3549.7	0.000579834	0.00695923
3550.16	-0.698578	-0.0176819
3550.62	0.00067749	0.00492859
3551.1	0.000543213	0.00695984
3551.56	-0.698883	-0.0176788
3552.02	0.000665283	0.00492981
3552.5	-0.000332642	0.00696503
3552.96	-0.697693	-0.0176849
3553.42	0.000152588	0.00493164
3553.9	0.000576782	0.00695587
3554.36	-0.698059	-0.017691
3554.82	0.000744629	0.0049295
3555.3	0.000372314	0.00695984
3555.76	-0.69873	-0.0176819
3556.22	-0.000320435	0.00493561
3556.7	4.57764e-05	0.00696106
3557.16	-0.698883	-0.0176849
3557.62	0.00045166	0.00493134
3558.1	0.000463867	0.00695831
3558.56	-0.697723	-0.0176819
3559.02	-0.000109863	0.00493469
3559.5	-0.000366211	0.0069635
3559.96	-0.698639	-0.0176758
3560.42	-9.15527e-06	0.00493866
3560.9	0.000595093	0.00695282
3561.36	-0.698395	-0.0176758
3561.82	-0.000411987	0.00493835
3562.3	0.000592041	0.00695465
3562.76	-0.697876	-0.0176849
3563.22	2.44141e-05	0.00493469
3563.7	0.000631714	0.00695282
3564.16	-0.697723	-0.0176788
3564.62	-0.000439453	0.0049353
3565.1	0.000646973	0.00695251
3565.56	-0.698853	-0.0176788
3566.02	-0.000253296	0.0049353
3566.5	-0.000427246	0.00696106
3566.96	-0.698944	-0.0176758
3567.42	4.88281e-05	0.00493683
3567.9	0.000616455	0.00695251
3568.36	-0.698029	-0.0176758
3568.82	0.000189209	0.00493652
3569.3	3.35693e-05	0.00696075
3569.76	-0.697754	-0.0176819
3570.22	-0.000460815	0.00493866
3570.7	0.000527954	0.0069519
3571.16	-0.697662	-0.0176788
3571.62	0.000262451	0.00493622
3572.1	0.000595093	0.00695099
3572.56	-0.698578	-0.0176727
3573.02	0.000427246	0.00493622
3573.5	0.000366211	0.00695099
3573.96	-0.697876	-0.0176758
3574.42	0.000442505	0.00493927
3574.9	0.000668335	0.00694946
3575.36	-0.697845	-0.0176849
3575.82	0.000152588	0.00493774
3576.3	-0.000256348	0.00695404
3576.76	-0.697662	-0.0176819
3577.22	3.05176e-05	0.0049353
3577.7	-0.000515747	0.00695648
3578.16	-0.698639	-0.0176788
3578.62	3.05176e-06	0.00493958
3579.1	0.000512695	0.00695282
3579.56	-0.698059	-0.0176727
3580.02	0.000772095	0.00493591
3580.5	-9.15527e-05	0.00695435
3580.96	-0.698761	-0.0176727
3581.42	0.000692749	0.00493439
3581.9	0.000662231	0.00694946
3582.36	-0.698944	-0.0176697
3582.82	-0.000204468	0.0049411
3583.3	0.000692749	0.00694794
3583.76	-0.697754	-0.0176788
3584.22	-0.00027771	0.00494171
3584.7	0.000170898	0.00694733
3585.16	-0.697723	-0.0176788
3585.62	0.00022583	0.00493835
3586.1	-0.000494385	0.00695435
3586.56	-0.697998	-0.0176758
3587.02	0.000744629	0.00493469
3587.5	-0.000457764	0.00695465
3587.96	-0.698029	-0.0176697
3588.42	0.00050354	0.00493469
3588.9	-0.00050354	0.00695374
3589.36	-0.697906	-0.0176788
3589.82	0.000109863	0.00493561
3590.3	-0.000323486	0.006953125
3590.76	-0.698853	-0.0176727
3591.22	-0.000167847	0.00494232
3591.7	0.000524902	0.00694519
3592.16	-0.69812	-0.0176636
3592.62	0.000518799	0.0049353
3593.1	0.000143433	0.00695038
3593.56	-0.697876	-0.0176788
3594.02	0.00020752	0.00493652
3594.5	-0.000253296	0.0069458
3594.96	-0.698395	-0.0176697
3595.42	0.000653076	0.00493774
3595.9	-0.000494385	0.00695038
3596.36	-0.69809	-0.0176636
3596.82	-0.000430298	0.00494263
3597.3	-0.000250244	0.00694885
3597.76	-0.698059	-0.0176758
3598.22	0.000384521	0.00493958
3598.7	0.00062561	0.00694366
3599.16	-0.697754	-0.0176758
3599.62	0.000784302	0.00493835
3600.1	-4.88281e-05	0.0069458
3600.56	-0.697784	-0.0176788
3601.02	0.000662231	0.00493652
3601.5	-0.000469971	0.00695007
3601.96	-0.698364	-0.0176575
3602.42	0.000518799	0.0049353
3602.9	-0.000439453	0.00695099
3603.36	-0.698822	-0.0176636
3603.82	-0.000296021	0.00494385
3604.3	-0.000164795	0.00694458
3604.76	-0.697815	-0.0176636
3605.22	-0.000473022	0.00494354
3605.7	-0.000112915	0.00694763
3606.16	-0.697815	-0.0176727
3606.62	0.000448608	0.00493683
3607.1	0.0006073	0.00694153
3607.56	-0.697662	-0.0176605
3608.02	-0.000134277	0.00494415
3608.5	0.000546265	0.00694031
3608.96	-0.697968	-0.0176758
3609.42	0.000698853	0.00493958
3609.9	0.000732422	0.00694031
3610.36	-0.698669	-0.0176697
3610.82	0.000253296	0.00493835
3611.3	-0.000198364	0.00694244
3611.76	-0.698853	-0.0176666
3612.22	-7.32422e-05	0.00494415
3612.7	-0.000228882	0.00694244
3613.16	-0.697723	-0.0176697
3613.62	-0.000192261	0.00494446
3614.1	-0.000415039	0.00694427
3614.56	-0.698608	-0.0176697
3615.02	0.000430298	0.00493652
3615.5	-0.000552368	0.00694366
3615.96	-0.697784	-0.0176666
3616.42	0.000695801	0.00493835
3616.9	0.000268555	0.00693878
3617.36	-0.698944	-0.0176605
3617.82	-0.000338745	0.00494507
3618.3	0.000210571	0.00694214
3618.76	-0.698853	-0.0176575
3619.22	0.000540161	0.0049408
3619.7	0.000192261	0.00694336
3620.16	-0.697968	-0.0176636
3620.62	-0.000393677	0.00494629
3621.1	-0.00039978	0.00694458
3621.56	-0.697998	-0.0176697
3622.02	0.000735474	0.00493988
3622.5	0.000653076	0.00693665
3622.96	-0.697754	-0.0176636
3623.42	-3.05176e-05	0.00494171
3623.9	-7.93457e-05	0.00693878
3624.36	-0.697784	-0.0176666
3624.82	0.000793457	0.00493896
3625.3	0.000524902	0.00694092
3625.76	-0.698639	-0.0176514
3626.22	-0.000418091	0.00494659
3626.7	0.000106812	0.00693726
3627.16	-0.698883	-0.0176605
3627.62	0.000219727	0.00494171
3628.1	-0.000442505	0.00694183
3628.56	-0.698608	-0.0176636
3629.02	0.000402832	0.0049408
3629.5	-0.000415039	0.00694214
3629.96	-0.698334	-0.0176514
3630.42	0.000784302	0.00493988
3630.9	-0.000476074	0.00694214
3631.36	-0.698822	-0.0176575
3631.82	-0.000372314	0.00494659
3632.3	0.000656128	0.00693329
3632.76	-0.698944	-0.0176575
3633.22	0.000753784	0.0049408
3633.7	0.000299072	0.00693634
3634.16	-0.69812	-0.0176636
3634.62	-0.000228882	0.00494812
3635.1	-0.000241089	0.0069339
3635.56	-0.698059	-0.0176575
3636.02	-3.05176e-05	0.00494354
3636.5	-5.79834e-05	0.00693512
3636.96	-0.697754	-0.0176636
3637.42	-0.000411987	0.00494873
3637.9	-0.000387573	0.00694
3638.36	-0.698669	-0.0176483
3638.82	0.000534058	0.0049408
3639.3	-0.000241089	0.00693909
3639.76	-0.697723	-0.0176605
3640.22	-0.000500488	0.00494904
3640.7	0.000616455	0.00693359
3641.16	-0.698822	-0.0176514
3641.62	0.000436401	0.00494415
3642.1	-0.000143433	0.00693726
3642.56	-0.698029	-0.0176544
3643.02	-0.00038147	0.00494751
3643.5	0.000576782	0.00693024
3643.96	-0.697662	-0.0176575
3644.42	-1.2207e-05	0.00494781
3644.9	-0.000506592	0.0069339
3645.36	-0.698883	-0.0176514
3645.82	0.000775146	0.00494141
3646.3	-0.00020752	0.00693207
3646.76	-0.698883	-0.0176544
3647.22	8.8501e-05	0.00494843
3647.7	0.000161743	0.00692932
3648.16	-0.697815	-0.0176605
3648.62	-0.000408936	0.00495026
3649.1	0.000408936	0.00692749
3649.56	-0.697723	-0.0176575
3650.02	0.000247192	0.00494171
3650.5	0.000308228	0.00692749
3650.96	-0.698578	-0.0176483
3651.42	0.00055542	0.00494385
3651.9	0.000610352	0.00692841
3652.36	-0.698944	-0.0176544
3652.82	-0.000341797	0.00494812
3653.3	-0.000445557	0.0069339
3653.76	-0.698883	-0.0176483
3654.22	0.000604248	0.00494232
3654.7	0.000283813	0.00693298
3655.16	-0.697968	-0.0176575
3655.62	0.000595093	0.00494263
3656.1	0.000601196	0.00692566
3656.56	-0.698822	-0.0176514
3657.02	-0.000430298	0.00495087
3657.5	-0.000485229	0.00693329
3657.96	-0.698151	-0.0176453
3658.42	0.000717163	0.00494507
3658.9	0.000363159	0.00692932
3659.36	-0.698578	-0.0176483
3659.82	-0.000402832	0.00495239
3660.3	-0.000411987	0.00693481
3660.76	-0.697693	-0.0176575
3661.22	-0.000183105	0.00495209
3661.7	0.000180054	0.00692596
3662.16	-0.697998	-0.0176483
3662.62	0.00045166	0.00494598
3663.1	-0.000305176	0.00692871
3663.56	-0.697784	-0.0176575
3664.02	0.00062561	0.00494537
3664.5	-0.00038147	0.0069278
3664.96	-0.698395	-0.0176575
3665.42	-0.000442505	0.00494965
3665.9	-0.000518799	0.00693115
3666.36	-0.698792	-0.0176422
3666.82	-0.000448608	0.00495239
3667.3	-0.000106812	0.00693054
3667.76	-0.6987	-0.0176575
3668.22	0.000643921	0.00494415
3668.7	-7.62939e-05	0.00692963
3669.16	-0.698547	-0.0176453
3669.62	-0.000326538	0.00494904
3670.1	-0.000448608	0.00693176
3670.56	-0.698669	-0.0176392
3671.02	-0.00010376	0.00495331
3671.5	1.2207e-05	0.0069278
3671.96	-0.697632	-0.0176483
3672.42	-0.000408936	0.00495361
3672.9	0.000576782	0.00692383
3673.36	-0.697845	-0.0176514
3673.82	9.46045e-05	0.00495209
3674.3	-0.000427246	0.00692993
3674.76	-0.698669	-0.0176483
3675.22	0.000738525	0.00494598
3675.7	0.000177002	0.00692627
3676.16	-0.698151	-0.0176453
3676.62	0.000723267	0.00494659
3677.1	0.00017395	0.00692261
3677.56	-0.698914	-0.0176483
3678.02	0.000595093	0.0049469
3678.5	-0.000494385	0.00692749
3678.96	-0.698853	-0.0176453
3679.42	-0.00043335	0.00495453
3679.9	0.000656128	0.00691986
3680.36	-0.697754	-0.0176483
3680.82	0.00071106	0.0049469
3681.3	-0.000308228	0.00692596
3681.76	-0.697571	-0.0176483
3682.22	0.000222778	0.00494904
3682.7	0.000424194	0.00692047
3683.16	-0.698059	-0.0176453
3683.62	-0.000418091	0.00495544
3684.1	-0.000454712	0.006922
3684.56	-0.69812	-0.0176514
3685.02	0.00067749	0.00494568
3685.5	0.000701904	0.00691467
3685.96	-0.698486	-0.0176361
3686.42	-0.000366211	0.00495087
3686.9	0.000610352	0.00691132
3687.36	-0.697601	-0.0176544
3687.82	0.000354004	0.00494659
3688.3	0.000509644	0.00691376
3688.76	-0.697937	-0.0176544
3689.22	0.000610352	0.00494202
3689.7	0.000708008	0.00691223
3690.16	-0.698181	-0.0176544
3690.62	-1.52588e-05	0.00494476
3691.1	-0.000366211	0.00691956
3691.56	-0.697754	-0.0176544
3692.02	-1.83105e-05	0.00494537
3692.5	3.96729e-05	0.00691833
3692.96	-0.698914	-0.0176483
3693.42	-0.000421143	0.00495026
3693.9	0.000466919	0.00691437
3694.36	-0.697937	-0.0176422
3694.82	0.000265503	0.00494385
3695.3	-0.000512695	0.00691833
3695.76	-0.69809	-0.0176453
3696.22	0.000585937	0.00494659
3696.7	-0.000323486	0.0069165
3697.16	-0.697662	-0.0176453
3697.62	-0.000134277	0.00495331
3698.1	0.000244141	0.00691162
3698.56	-0.698425	-0.0176483
3699.02	-0.000360107	0.00495422
3699.5	0.000518799	0.00691498
3699.96	-0.697784	-0.0176422
3700.42	0.000213623	0.0049527
3700.9	0.000527954	0.00691254
3701.36	-0.698608	-0.0176422
3701.82	-0.000482178	0.00495392
3702.3	-0.000436401	0.00688477
3702.76	-0.698181	-0.0176056
3703.22	0.000704956	0.00490997
3703.7	0.000247192	0.00684814
3704.16	-0.698517	-0.0176239
3704.62	0.00012207	0.00488831
3705.1	-6.10352e-05	0.00683838
3705.56	-0.697754	-0.0176392
3706.02	9.76562e-05	0.00488983
3706.5	9.15527e-06	0.00683197
3706.96	-0.697693	-0.0176422
3707.42	0.000643921	0.00488434
3707.9	-0.000396729	0.00683502
3708.36	-0.697815	-0.0176422
3708.82	0.000540161	0.00488464
3709.3	0.000537109	0.00683014
3709.76	-0.697693	-0.0176392
3710.22	0.000311279	0.00489441
3710.7	-0.000125122	0.0068399
3711.16	-0.698669	-0.0176392
3711.62	0.000228882	0.00489258
3712.1	0.000476074	0.00683594
3712.56	-0.698883	-0.0176331
3713.02	3.05176e-06	0.00489624
3713.5	0.000469971	0.00683655
3713.96	-0.697693	-0.017627
3714.42	-3.66211e-05	0.00489716
3714.9	0.000140381	0.0068399
3715.36	-0.698883	-0.0176239
3715.82	-9.46045e-05	0.00491577
3716.3	0.000274658	0.00687317
3716.72	-7.32422e-05	0.00368561