File: Edgar/20240522/20240522/electrodeposition_pulsed_potential_20240522_A/pulses_5000_to_6000.txt
Time (s)	WE(1).Potential (V)	WE(1).Current (A)
6798.75	-0.698303	-0.0230682
6799.63	0.521118	1.828e-05
6800.53	0.520691	0.000152832
6801.39	-0.698578	-0.0193634
6802.27	0.520691	2.02026e-05
6803.17	0.520782	0.000101898
6804.05	-0.000213623	0.00277283
6804.91	0.520844	1.94397e-05
6805.81	0.521454	6.75659e-05
6806.69	0.000216675	0.00192444
6807.55	0.521759	1.32446e-05
6808.45	0.521545	4.91333e-05
6809.35	0.520782	0.0147583
6810.19	0.521515	1.19934e-05
6811.09	0.52066	4.60205e-05
6811.99	0.521088	0.0116852
6812.83	0.521088	1.37024e-05
6813.73	0.52066	3.91541e-05
6814.63	0.520325	0.00881348
6815.47	0.520721	1.50452e-05
6816.37	0.521118	3.12805e-05
6817.27	0.520538	0.00355408
6818.11	0.521088	1.39465e-05
6819.01	0.521637	2.55432e-05
6819.91	0.52121	0.00102142
6820.75	0.521393	1.08032e-05
6821.65	0.520782	2.62451e-05
6822.55	0.521606	0.000478607
6823.39	0.521027	1.25122e-05
6824.29	0.521027	2.27661e-05
6825.19	0.52066	0.000266968
6826.05	-0.69751	-0.023175
6826.93	0.521606	1.71204e-05
6827.83	0.521057	0.000157654
6828.69	-0.698425	-0.0193848
6829.57	0.521027	1.94702e-05
6830.47	0.521667	9.77783e-05
6831.35	-0.00022583	0.00276855
6832.21	0.521423	1.60217e-05
6833.11	0.520966	7.22046e-05
6833.99	0.000210571	0.00192444
6834.85	0.52063	1.9989e-05
6835.75	0.521576	5.08118e-05
6836.65	0.519958	0.0147736
6837.49	0.521423	1.41296e-05
6838.39	0.520752	4.36401e-05
6839.29	0.520752	0.0116974
6840.13	0.52124	1.31836e-05
6841.03	0.521637	3.27148e-05
6841.93	0.520264	0.00884399
6842.77	0.521698	9.97925e-06
6843.67	0.520905	3.21655e-05
6844.57	0.52063	0.00365326
6845.41	0.520844	1.50757e-05
6846.31	0.52063	3.07007e-05
6847.21	0.520782	0.00104309
6848.05	0.520599	1.5625e-05
6848.95	0.521515	2.24609e-05
6849.85	0.52066	0.000492126
6850.69	0.521576	8.48389e-06
6851.59	0.521423	2.20032e-05
6852.49	0.520996	0.00026886
6853.35	-0.697388	-0.0231842
6854.23	0.521393	1.88293e-05
6855.13	0.52121	0.000159668
6855.99	-0.698669	-0.0194031
6856.87	0.521057	1.80969e-05
6857.77	0.521729	9.93958e-05
6858.65	-0.000289917	0.00275085
6859.51	0.521545	1.47705e-05
6860.41	0.521576	6.87256e-05
6861.29	4.57764e-05	0.00191162
6862.15	0.52063	1.98364e-05
6863.05	0.520721	5.75256e-05
6863.95	0.519897	0.0147705
6864.79	0.521118	1.61743e-05
6865.69	0.521454	4.01917e-05
6866.59	0.521088	0.0117157
6867.43	0.521301	1.23291e-05
6868.33	0.52063	4.00085e-05
6869.23	0.521057	0.00885925
6870.07	0.521149	1.36414e-05
6870.97	0.520752	3.38745e-05
6871.87	0.521301	0.00375549
6872.71	0.521027	1.46484e-05
6873.61	0.520721	3.06396e-05
6874.51	0.521484	0.00105652
6875.35	0.521729	9.24683e-06
6876.25	0.521667	2.18506e-05
6877.15	0.52063	0.000498566
6877.99	0.521698	8.20923e-06
6878.89	0.521759	1.93481e-05
6879.79	0.521393	0.00027005
6880.65	-0.698395	-0.0232025
6881.53	0.520752	2.43835e-05
6882.43	0.520752	0.000164429
6883.29	-0.697876	-0.0194244
6884.17	0.521149	1.84937e-05
6885.07	0.520844	0.000104126
6885.95	0.000286865	0.00273071
6886.81	0.520782	1.78833e-05
6887.71	0.521149	7.16553e-05
6888.59	0.000753784	0.00188904
6889.45	0.521667	1.2085e-05
6890.35	0.521332	5.31311e-05
6891.25	0.519928	0.0147614
6892.09	0.521088	1.49841e-05
6892.99	0.521637	4.02527e-05
6893.89	0.520081	0.01171875
6894.73	0.520569	1.83716e-05
6895.63	0.52066	3.88794e-05
6896.53	0.521027	0.00887756
6897.37	0.521057	1.47705e-05
6898.27	0.521729	2.79236e-05
6899.17	0.52066	0.00382874
6900.01	0.521484	1.28174e-05
6900.91	0.52063	3.09753e-05
6901.81	0.521576	0.00106995
6902.65	0.520599	1.49841e-05
6903.55	0.521667	2.15759e-05
6904.45	0.52121	0.000502319
6905.29	0.521667	8.14819e-06
6906.19	0.520966	2.36816e-05
6907.09	0.520905	0.000276123
6907.95	-0.697693	-0.0232086
6908.83	0.520721	2.39868e-05
6909.73	0.520935	0.000163422
6910.59	-0.697876	-0.0194489
6911.47	0.520844	2.15149e-05
6912.37	0.521637	0.000102631
6913.25	-4.88281e-05	0.00271271
6914.11	0.521545	1.61133e-05
6915.01	0.521637	6.96716e-05
6915.89	-0.000256348	0.0018808
6916.75	0.521606	1.3916e-05
6917.65	0.521698	5.2063e-05
6918.55	0.519928	0.0147522
6919.39	0.521698	1.24512e-05
6920.29	0.521698	4.03748e-05
6921.19	0.520447	0.011731
6922.03	0.521759	1.17493e-05
6922.93	0.520782	3.94592e-05
6923.83	0.521332	0.00889282
6924.67	0.521332	1.25427e-05
6925.57	0.52066	3.50037e-05
6926.47	0.520569	0.00389343
6927.31	0.521484	1.03455e-05
6928.21	0.521271	2.70996e-05
6929.11	0.521637	0.00108368
6929.95	0.520905	1.57166e-05
6930.85	0.521637	2.31323e-05
6931.75	0.521484	0.000511169
6932.59	0.521637	8.5144e-06
6933.49	0.521698	1.95618e-05
6934.39	0.520721	0.000281494
6935.25	-0.697662	-0.0232178
6936.13	0.520813	2.27051e-05
6937.03	0.520752	0.000168396
6937.89	-0.698303	-0.0194611
6938.77	0.520691	2.18811e-05
6939.67	0.521515	0.000104279
6940.55	4.27246e-05	0.00269257
6941.41	0.52121	1.91345e-05
6942.31	0.520721	7.66602e-05
6943.19	0.000674438	0.00185852
6944.05	0.52066	2.02637e-05
6944.95	0.521118	5.51147e-05
6945.85	0.52066	0.0147369
6946.69	0.521637	1.2146e-05
6947.59	0.521088	4.51355e-05
6948.49	0.520172	0.011731
6949.33	0.52179	1.14746e-05
6950.23	0.520874	3.80554e-05
6951.13	0.521057	0.00890503
6951.97	0.52066	1.72119e-05
6952.87	0.521515	2.90833e-05
6953.77	0.521362	0.00395386
6954.61	0.520599	1.58386e-05
6955.51	0.52066	3.08838e-05
6956.41	0.521301	0.00109894
6957.25	0.521545	9.94873e-06
6958.15	0.520844	2.74048e-05
6959.05	0.520569	0.000520325
6959.89	0.520813	1.45264e-05
6960.79	0.521698	1.90125e-05
6961.69	0.520782	0.000283142
6962.55	-0.69809	-0.0232208
6963.43	0.521637	1.71204e-05
6964.33	0.521332	0.000166779
6965.19	-0.697845	-0.0194672
6966.07	0.521637	1.57166e-05
6966.97	0.520874	0.000110779
6967.85	-0.000213623	0.00267731
6968.71	0.52066	2.20032e-05
6969.61	0.520691	7.70874e-05
6970.49	-0.000314331	0.00185242
6971.35	0.521301	1.51672e-05
6972.25	0.521667	5.27039e-05
6973.15	0.519867	0.0147461
6973.99	0.520874	1.77917e-05
6974.89	0.52121	4.40369e-05
6975.79	0.521027	0.0117279
6976.63	0.520599	1.72729e-05
6977.53	0.520691	3.93066e-05
6978.43	0.520203	0.00890808
6979.27	0.521698	1.10779e-05
6980.17	0.520691	3.55835e-05
6981.07	0.521057	0.00381622
6981.91	0.520935	1.40991e-05
6982.81	0.521332	2.61536e-05
6983.71	0.520905	0.00108459
6984.55	0.52066	1.51978e-05
6985.45	0.521484	2.30103e-05
6986.35	0.521454	0.000510864
6987.19	0.521179	1.1261e-05
6988.09	0.521118	2.19421e-05
6988.99	0.521057	0.000280701
6989.85	-0.697601	-0.023175
6990.73	0.521332	1.90735e-05
6991.63	0.521332	0.000166962
6992.49	-0.698608	-0.0194305
6993.37	0.520905	2.14539e-05
6994.27	0.520935	0.000109558
6995.15	0.000640869	0.00269287
6996.01	0.521729	1.47095e-05
6996.91	0.521667	7.1167e-05
6997.79	0.000531006	0.00186005
6998.65	0.521301	1.5686e-05
6999.55	0.521698	5.20935e-05
7000.45	0.52063	0.0147461
7001.29	0.521606	1.24207e-05
7002.19	0.521606	4.0863e-05
7003.09	0.520447	0.0117493
7003.93	0.521606	1.09558e-05
7004.83	0.52066	4.02222e-05
7005.73	0.521179	0.00892029
7006.57	0.520782	1.5686e-05
7007.47	0.520844	3.39355e-05
7008.37	0.52121	0.00386139
7009.21	0.521149	1.15967e-05
7010.11	0.521606	2.58789e-05
7011.01	0.520752	0.00110291
7011.85	0.521484	1.07117e-05
7012.75	0.521118	2.49023e-05
7013.65	0.521545	0.000518799
7014.49	0.520844	1.34888e-05
7015.39	0.521057	2.31628e-05
7016.29	0.521667	0.000281525
7017.15	-0.697418	-0.0231995
7018.03	0.520691	2.32849e-05
7018.93	0.520721	0.000172516
7019.79	-0.697693	-0.0194672
7020.67	0.521301	1.80054e-05
7021.57	0.521729	0.000105194
7022.45	0.000616455	0.00266754
7023.31	0.52063	2.09961e-05
7024.21	0.52066	7.84302e-05
7025.09	0.000549316	0.0018396
7025.95	0.521423	1.54419e-05
7026.85	0.52121	5.49927e-05
7027.75	0.520874	0.01474
7028.59	0.521423	1.40076e-05
7029.49	0.521576	4.11682e-05
7030.39	0.520721	0.0117371
7031.23	0.520844	1.44653e-05
7032.13	0.521393	3.4729e-05
7033.03	0.520264	0.0089325
7033.87	0.521637	1.11389e-05
7034.77	0.521362	3.01208e-05
7035.67	0.521576	0.00392578
7036.51	0.520905	1.4801e-05
7037.41	0.521149	2.7771e-05
7038.31	0.521454	0.00111206
7039.15	0.521484	8.27026e-06
7040.05	0.521637	2.15454e-05
7040.95	0.52121	0.000523987
7041.79	0.521027	1.24207e-05
7042.69	0.521118	2.23389e-05
7043.59	0.521545	0.000286804
7044.45	-0.698029	-0.0232056
7045.33	0.521332	1.99585e-05
7046.23	0.521088	0.00017276
7047.09	-0.698364	-0.0194763
7047.97	0.520905	2.03857e-05
7048.87	0.520691	0.000113495
7049.75	9.15527e-06	0.00264557
7050.61	0.521606	1.51672e-05
7051.51	0.521545	7.43408e-05
7052.39	0.00071106	0.00181885
7053.25	0.521606	1.31836e-05
7054.15	0.52066	5.99976e-05
7055.05	0.520416	0.0147308
7055.89	0.521362	1.37939e-05
7056.79	0.520935	4.51355e-05
7057.69	0.520996	0.0117432
7058.53	0.521759	1.15051e-05
7059.43	0.521667	3.32031e-05
7060.33	0.521393	0.0089447
7061.17	0.521149	1.44958e-05
7062.07	0.520782	3.39661e-05
7062.97	0.52063	0.00402344
7063.81	0.521545	1.09558e-05
7064.71	0.521057	2.948e-05
7065.61	0.520599	0.00113495
7066.45	0.521271	9.61304e-06
7067.35	0.521637	2.24609e-05
7068.25	0.520874	0.000538635
7069.09	0.521576	8.60596e-06
7069.99	0.521606	1.95923e-05
7070.89	0.521606	0.000290283
7071.75	-0.697327	-0.0232239
7072.63	0.521606	1.84937e-05
7073.53	0.521332	0.000173584
7074.39	-0.697693	-0.019516
7075.27	0.520691	2.26135e-05
7076.17	0.521332	0.000109436
7077.05	0.000204468	0.00261932
7077.91	0.520721	2.01111e-05
7078.81	0.521545	7.40356e-05
7079.69	-0.000262451	0.00180542
7080.55	0.521118	1.66626e-05
7081.45	0.521301	5.63049e-05
7082.35	0.520844	0.0147186
7083.19	0.521454	1.3916e-05
7084.09	0.521576	4.08325e-05
7084.99	0.521057	0.0117432
7085.83	0.520874	1.69373e-05
7086.73	0.521698	3.3783e-05
7087.63	0.520355	0.00896301
7088.47	0.521515	1.14441e-05
7089.37	0.521057	3.34473e-05
7090.27	0.521545	0.00409821
7091.11	0.521088	1.31836e-05
7092.01	0.52066	3.19214e-05
7092.91	0.521057	0.00114899
7093.75	0.520599	1.55334e-05
7094.65	0.52066	2.88696e-05
7095.55	0.521667	0.000540771
7096.39	0.52124	1.06201e-05
7097.29	0.521423	2.11182e-05
7098.19	0.520691	0.000299744
7099.05	-0.698151	-0.0232391
7099.93	0.52121	2.06604e-05
7100.83	0.521179	0.000175568
7101.69	-0.697632	-0.0195404
7102.57	0.520966	2.12708e-05
7103.47	0.521698	0.000109863
7104.35	0.000540161	0.0025946
7105.21	0.520721	2.03552e-05
7106.11	0.521149	7.80334e-05
7106.99	-8.54492e-05	0.00178741
7107.85	0.520721	1.95618e-05
7108.75	0.52124	5.75867e-05
7109.65	0.519897	0.0147186
7110.49	0.520935	1.6449e-05
7111.39	0.521545	4.4281e-05
7112.29	0.520386	0.0117554
7113.13	0.520691	1.61743e-05
7114.03	0.521606	3.43018e-05
7114.93	0.520264	0.00897827
7115.77	0.52066	1.67542e-05
7116.67	0.521576	2.94189e-05
7117.57	0.521515	0.00419495
7118.41	0.520782	1.52588e-05
7119.31	0.521637	2.42615e-05
7120.21	0.521362	0.00116516
7121.05	0.521637	8.45337e-06
7121.95	0.520905	2.63672e-05
7122.85	0.520935	0.000554504
7123.69	0.521606	8.3313e-06
7124.59	0.520691	2.56653e-05
7125.49	0.521027	0.000302521
7126.35	-0.69809	-0.0232635
7127.23	0.521088	2.27356e-05
7128.13	0.521637	0.000176178
7128.99	-0.698425	-0.0195648
7129.87	0.521545	1.69067e-05
7130.77	0.521759	0.000111755
7131.65	-0.000265503	0.00257233
7132.51	0.520691	2.08435e-05
7133.41	0.520905	7.94983e-05
7134.29	9.15527e-05	0.00175934
7135.15	0.520844	1.77917e-05
7136.05	0.52121	5.73425e-05
7136.95	0.520477	0.0146973
7137.79	0.52063	1.83716e-05
7138.69	0.521606	4.31213e-05
7139.59	0.520477	0.0117676
7140.43	0.52063	1.80054e-05
7141.33	0.52121	3.71399e-05
7142.23	0.52066	0.00898743
7143.07	0.520691	1.62659e-05
7143.97	0.520721	3.53699e-05
7144.87	0.521484	0.00424072
7145.71	0.520721	1.68457e-05
7146.61	0.52066	3.125E-05
7147.51	0.520569	0.00118103
7148.35	0.521393	1.04065e-05
7149.25	0.520935	2.61841e-05
7150.15	0.520905	0.00055603
7150.99	0.52124	1.07422e-05
7151.89	0.521332	2.1698e-05
7152.79	0.521698	0.00030249
7153.65	-0.697937	-0.0232819
7154.53	0.52063	2.49329e-05
7155.43	0.521667	0.0001796875
7156.29	-0.697723	-0.0195862
7157.17	0.520691	2.28577e-05
7158.07	0.521484	0.000113129
7158.95	0.000488281	0.002547
7159.81	0.521637	1.45874e-05
7160.71	0.52063	8.20007e-05
7161.59	3.96729e-05	0.00174774
7162.45	0.52066	1.97449e-05
7163.35	0.520691	6.06384e-05
7164.25	0.519867	0.0147003
7165.09	0.521515	1.28784e-05
7165.99	0.520721	4.72412e-05
7166.89	0.521027	0.0117645
7167.73	0.520721	1.80054e-05
7168.63	0.520752	4.10767e-05
7169.53	0.520203	0.00901184
7170.37	0.52063	1.67236e-05
7171.27	0.521576	3.00598e-05
7172.17	0.520691	0.00435059
7173.01	0.521698	1.09253e-05
7173.91	0.521576	2.49634e-05
7174.81	0.520752	0.00119873
7175.65	0.521423	9.91821e-06
7176.55	0.521606	2.24304e-05
7177.45	0.521606	0.000560303
7178.29	0.521667	8.54492e-06
7179.19	0.521027	2.38342e-05
7180.09	0.520721	0.000312805
7180.95	-0.698395	-0.0232849
7181.83	0.521698	1.66016e-05
7182.73	0.520721	0.000187653
7183.59	-0.698639	-0.0195923
7184.47	0.520935	2.16064e-05
7185.37	0.521301	0.000117737
7186.25	0.000720215	0.00252777
7187.11	0.521576	1.57471e-05
7188.01	0.521637	7.86438e-05
7188.89	0.000628662	0.00172729
7189.75	0.520905	1.83105e-05
7190.65	0.520874	6.19812e-05
7191.55	0.519928	0.0146912
7192.39	0.520874	1.68762e-05
7193.29	0.521423	4.32129e-05
7194.19	0.520691	0.0117523
7195.03	0.521118	1.48926e-05
7195.93	0.521393	3.67737e-05
7196.83	0.520386	0.00901794
7197.67	0.520905	1.51978e-05
7198.57	0.521545	2.99377e-05
7199.47	0.520844	0.00440826
7200.31	0.521545	1.06812e-05
7201.21	0.52179	2.46887e-05
7202.11	0.520905	0.00121124
7202.95	0.521637	9.61304e-06
7203.85	0.521606	2.2522e-05
7204.75	0.520721	0.00057373
7205.59	0.520874	1.33057e-05
7206.49	0.521484	2.18811e-05
7207.39	0.521362	0.000312744
7208.25	-0.697357	-0.0233002
7209.13	0.521118	2.03552e-05
7210.03	0.520874	0.00018866
7210.89	-0.697876	-0.0196136
7211.77	0.520782	2.10876e-05
7212.67	0.521271	0.000118591
7213.55	-0.000286865	0.00251099
7214.41	0.521423	1.61743e-05
7215.31	0.521545	7.88574e-05
7216.19	0.00065918	0.00171143
7217.05	0.520691	1.88599e-05
7217.95	0.521057	6.06995e-05
7218.85	0.519928	0.0146881
7219.69	0.52121	1.62964e-05
7220.59	0.520721	5.01709e-05
7221.49	0.521179	0.0117584
7222.33	0.521667	1.1322e-05
7223.23	0.521698	3.46375e-05
7224.13	0.520508	0.00903015
7224.97	0.520996	1.34277e-05
7225.87	0.520874	3.42712e-05
7226.77	0.521393	0.00445709
7227.61	0.520844	1.45874e-05
7228.51	0.52066	3.25623e-05
7229.41	0.520844	0.00122589
7230.25	0.520935	1.47705e-05
7231.15	0.521698	2.20947e-05
7232.05	0.520782	0.000579834
7232.89	0.521698	9.27734e-06
7233.79	0.521271	2.36206e-05
7234.69	0.520752	0.00031955
7235.55	-0.698395	-0.0232971
7236.43	0.52063	2.3468e-05
7237.33	0.521637	0.000186279
7238.19	-0.698029	-0.0196259
7239.07	0.521667	1.61133e-05
7239.97	0.521637	0.000116913
7240.85	-0.000354004	0.00249237
7241.71	0.521667	1.57471e-05
7242.61	0.521301	8.11462e-05
7243.49	-3.05176e-05	0.00170074
7244.35	0.521606	1.25732e-05
7245.25	0.52063	6.27747e-05
7246.15	0.519897	0.014682
7246.99	0.521698	1.24512e-05
7247.89	0.521637	4.41284e-05
7248.79	0.520874	0.0117645
7249.63	0.521423	1.38245e-05
7250.53	0.520874	3.89099e-05
7251.43	0.520477	0.00903931
7252.27	0.52182	9.91821e-06
7253.17	0.520721	3.49731e-05
7254.07	0.520569	0.00452515
7254.91	0.520874	1.34888e-05
7255.81	0.52066	3.20435e-05
7256.71	0.521606	0.00123383
7257.55	0.52063	1.52893e-05
7258.45	0.521606	2.29492e-05
7259.35	0.521606	0.000582275
7260.19	0.521393	9.18579e-06
7261.09	0.520844	2.55737e-05
7261.99	0.521027	0.000319672
7262.85	-0.698364	-0.0233124
7263.73	0.521637	1.77307e-05
7264.63	0.52063	0.000193665
7265.49	-0.697754	-0.0196533
7266.37	0.521729	1.57776e-05
7267.27	0.520691	0.000125244
7268.15	0.000692749	0.00246887
7269.01	0.521149	1.84937e-05
7269.91	0.520569	8.5144e-05
7270.79	-0.000311279	0.0016861
7271.65	0.520874	1.86462e-05
7272.55	0.520691	6.29272e-05
7273.45	0.520172	0.0146759
7274.29	0.521759	1.17798e-05
7275.19	0.520996	4.76685e-05
7276.09	0.52005	0.0117737
7276.93	0.520691	1.81885e-05
7277.83	0.52179	3.46375e-05
7278.73	0.520844	0.00905151
7279.57	0.521606	1.07727e-05
7280.47	0.520782	3.43323e-05
7281.37	0.521271	0.00457184
7282.21	0.520813	1.34277e-05
7283.11	0.521545	2.56042e-05
7284.01	0.520966	0.00125122
7284.85	0.521606	9.61304e-06
7285.75	0.52179	2.17896e-05
7286.65	0.52066	0.000592957
7287.49	0.521393	1.00403e-05
7288.39	0.521545	2.13013e-05
7289.29	0.521118	0.000323517
7290.15	-0.698364	-0.0233215
7291.03	0.521423	1.87378e-05
7291.93	0.520844	0.000194763
7292.79	-0.698395	-0.0196686
7293.67	0.520966	1.98059e-05
7294.57	0.520752	0.000126251
7295.45	9.76562e-05	0.00245605
7296.31	0.520966	1.89819e-05
7297.21	0.520935	8.49609e-05
7298.09	-0.000192261	0.00167297
7298.95	0.521637	1.42517e-05
7299.85	0.521698	5.73425e-05
7300.75	0.520264	0.0146729
7301.59	0.521759	1.22681e-05
7302.49	0.521667	4.4342e-05
7303.39	0.519989	0.0117706
7304.23	0.52121	1.34583e-05
7305.13	0.520752	4.11682e-05
7306.03	0.520416	0.00906677
7306.87	0.521301	1.22986e-05
7307.77	0.521179	3.2074e-05
7308.67	0.521454	0.00462067
7309.51	0.521484	1.12305e-05
7310.41	0.520844	3.02124e-05
7311.31	0.52121	0.00125977
7312.15	0.521484	1.06812e-05
7313.05	0.520721	2.78931e-05
7313.95	0.521545	0.000593262
7314.79	0.521149	1.14746e-05
7315.69	0.521515	2.22168e-05
7316.59	0.52063	0.000330353
7317.45	-0.697388	-0.0233551
7318.33	0.520721	2.48413e-05
7319.23	0.52063	0.000199768
7320.09	-0.698578	-0.0197083
7320.97	0.520874	2.09351e-05
7321.87	0.520996	0.000125336
7322.75	-0.000350952	0.00245239
7323.61	0.521729	1.59912e-05
7324.51	0.52063	8.74939e-05
7325.39	0.000671387	0.00165863
7326.25	0.520996	1.70898e-05
7327.15	0.521576	5.9021e-05
7328.05	0.520844	0.014679
7328.89	0.521545	1.24207e-05
7329.79	0.521118	4.77295e-05
7330.69	0.520203	0.0117798
7331.53	0.521698	1.25427e-05
7332.43	0.521637	3.52478e-05
7333.33	0.520721	0.00906677
7334.17	0.521362	1.26038e-05
7335.07	0.52063	3.57361e-05
7335.97	0.521057	0.00468872
7336.81	0.521423	1.12e-05
7337.71	0.521729	2.55432e-05
7338.61	0.521027	0.00127716
7339.45	0.520782	1.54724e-05
7340.35	0.520844	2.79236e-05
7341.25	0.521149	0.000604248
7342.09	0.521698	8.36182e-06
7342.99	0.520691	2.734375E-05
7343.89	0.520691	0.00033429
7344.75	-0.698242	-0.0233612
7345.63	0.52066	2.48718e-05
7346.53	0.521576	0.000194611
7347.39	-0.697723	-0.0197235
7348.27	0.521088	2.05078e-05
7349.17	0.52066	0.000129639
7350.05	0.000732422	0.0024292
7350.91	0.521698	1.48315e-05
7351.81	0.521332	8.43201e-05
7352.69	0.000585937	0.00164398
7353.55	0.520874	1.73035e-05
7354.45	0.521698	5.859375E-05
7355.35	0.519897	0.0146759
7356.19	0.520721	1.84326e-05
7357.09	0.521484	4.69971e-05
7357.99	0.52063	0.0117828
7358.83	0.521667	1.19629e-05
7359.73	0.521484	3.64075e-05
7360.63	0.521332	0.00907898
7361.47	0.521118	1.34888e-05
7362.37	0.520905	3.58582e-05
7363.27	0.521576	0.00471344
7364.11	0.521515	1.11694e-05
7365.01	0.521057	2.84119e-05
7365.91	0.52066	0.00128876
7366.75	0.521027	1.37939e-05
7367.65	0.520782	2.90222e-05
7368.55	0.520935	0.000609436
7369.39	0.520691	1.53198e-05
7370.29	0.52124	2.21558e-05
7371.19	0.520813	0.000335999
7372.05	-0.697998	-0.0233612
7372.93	0.521057	2.38953e-05
7373.83	0.521454	0.000197662
7374.69	-0.698639	-0.0197296
7375.57	0.521454	1.75171e-05
7376.47	0.520844	0.00012915
7377.35	0.000756836	0.00241486
7378.21	0.521088	1.84021e-05
7379.11	0.521698	8.28247e-05
7379.99	-7.93457e-05	0.00163422
7380.85	0.52179	1.40991e-05
7381.75	0.521515	5.96619e-05
7382.65	0.520874	0.0146637
7383.49	0.521515	1.30615e-05
7384.39	0.520782	5.06592e-05
7385.29	0.521057	0.0117767
7386.13	0.521606	1.19019e-05
7387.03	0.521393	3.9093e-05
7387.93	0.520416	0.00910645
7388.77	0.521545	1.08032e-05
7389.67	0.52066	3.66821e-05
7390.57	0.52066	0.00478943
7391.41	0.521118	1.45264e-05
7392.31	0.521515	2.69165e-05
7393.21	0.520813	0.00130371
7394.05	0.521149	1.2085e-05
7394.95	0.520752	2.88391e-05
7395.85	0.520691	0.000617676
7396.69	0.521118	1.26953e-05
7397.59	0.521118	2.36206e-05
7398.49	0.52182	0.000335449
7399.35	-0.698425	-0.0233734
7400.23	0.52066	2.44751e-05
7401.13	0.520721	0.000205078
7401.99	-0.698578	-0.0197601
7402.87	0.520691	2.31628e-05
7403.77	0.52121	0.000128296
7404.65	-0.000268555	0.00239807
7405.51	0.520691	2.1637e-05
7406.41	0.521149	8.90808e-05
7407.29	-0.000292969	0.00162048
7408.15	0.521362	1.5686e-05
7409.05	0.520813	6.47583e-05
7409.95	0.520142	0.0146698
7410.79	0.521118	1.42212e-05
7411.69	0.520813	4.95911e-05
7412.59	0.520966	0.0117859
7413.43	0.520782	1.71204e-05
7414.33	0.521759	3.62854e-05
7415.23	0.520294	0.0091095
7416.07	0.52066	1.71509e-05
7416.97	0.521637	3.04871e-05
7417.87	0.52066	0.00482574
7418.71	0.521301	1.03455e-05
7419.61	0.521393	2.78625e-05
7420.51	0.520966	0.00131439
7421.35	0.521606	9.15527e-06
7422.25	0.520599	2.94189e-05
7423.15	0.521332	0.000621033
7423.99	0.520691	1.47095e-05
7424.89	0.520721	2.62756e-05
7425.79	0.521362	0.000340546
7426.65	-0.698425	-0.0233795
7427.53	0.521088	2.05688e-05
7428.43	0.520966	0.000205505
7429.29	-0.698608	-0.0197693
7430.17	0.521759	1.58081e-05
7431.07	0.521515	0.00012735
7431.95	-0.000161743	0.0023822
7432.81	0.521637	1.49231e-05
7433.71	0.520721	9.10645e-05
7434.59	0.000189209	0.00160614
7435.45	0.520996	1.67847e-05
7436.35	0.520691	6.62842e-05
7437.25	0.520935	0.0146484
7438.09	0.521118	1.48926e-05
7438.99	0.521515	4.6814e-05
7439.89	0.520477	0.0117828
7440.73	0.521606	1.2085e-05
7441.63	0.520752	4.25415e-05
7442.53	0.520203	0.0091217
7443.37	0.520691	1.64185e-05
7444.27	0.521698	3.09448e-05
7445.17	0.52063	0.00487762
7446.01	0.520905	1.26038e-05
7446.91	0.521576	2.65198e-05
7447.81	0.520569	0.00132843
7448.65	0.521637	8.48389e-06
7449.55	0.521606	2.18201e-05
7450.45	0.521576	0.000626526
7451.29	0.52066	1.38855e-05
7452.19	0.520966	2.56653e-05
7453.09	0.52063	0.000350037
7453.95	-0.697357	-0.0233917
7454.83	0.52124	2.13013e-05
7455.73	0.521759	0.000204834
7456.59	-0.697845	-0.0197906
7457.47	0.520721	2.19116e-05
7458.37	0.521545	0.000128906
7459.25	-0.000161743	0.00236664
7460.11	0.520569	2.12708e-05
7461.01	0.521423	8.70056e-05
7461.89	-0.000189209	0.00159363
7462.75	0.520752	1.92566e-05
7463.65	0.52063	6.68945e-05
7464.55	0.520935	0.0146454
7465.39	0.521667	1.25427e-05
7466.29	0.520691	5.13916e-05
7467.19	0.520721	0.011795
7468.03	0.521759	1.10168e-05
7468.93	0.520813	4.21753e-05
7469.83	0.521301	0.00912476
7470.67	0.52124	1.21765e-05
7471.57	0.521301	3.20435e-05
7472.47	0.520508	0.00493378
7473.31	0.521637	8.63647e-06
7474.21	0.521576	2.70691e-05
7475.11	0.521637	0.00133881
7475.95	0.520752	1.58997e-05
7476.85	0.521667	2.27661e-05
7477.75	0.520599	0.000638733
7478.59	0.520721	1.54419e-05
7479.49	0.521515	2.1637e-05
7480.39	0.520935	0.000351624
7481.25	-0.697479	-0.02341
7482.13	0.521362	1.98975e-05
7483.03	0.52066	0.000212616
7483.89	-0.697662	-0.0198029
7484.77	0.521667	1.6449e-05
7485.67	0.520599	0.000136749
7486.55	0.000112915	0.00234344
7487.41	0.521423	1.54114e-05
7488.31	0.521515	8.68835e-05
7489.19	-2.74658e-05	0.00157928
7490.05	0.52066	2.02637e-05
7490.95	0.521271	6.36292e-05
7491.85	0.52005	0.0146454
7492.69	0.521179	1.59302e-05
7493.59	0.521301	4.98962e-05
7494.49	0.520142	0.0117889
7495.33	0.520752	1.8158e-05
7496.23	0.520874	4.04968e-05
7497.13	0.520691	0.00913086
7497.97	0.521118	1.32751e-05
7498.87	0.52124	3.25317e-05
7499.77	0.520691	0.00496704
7500.61	0.521149	1.19019e-05
7501.51	0.520813	3.0365e-05
7502.41	0.521484	0.0013501
7503.25	0.521698	9.30786e-06
7504.15	0.520691	2.92053e-05
7505.05	0.520691	0.000644531
7505.89	0.52063	1.43738e-05
7506.79	0.521667	2.02026e-05
7507.69	0.520844	0.000355927
7508.55	-0.697479	-0.0234161
7509.43	0.520844	2.40173e-05
7510.33	0.521027	0.000212341
7511.19	-0.698425	-0.019812
7512.07	0.521332	1.828e-05
7512.97	0.52124	0.000134064
7513.85	0.000482178	0.00232635
7514.71	0.520691	2.13318e-05
7515.61	0.520599	9.32922e-05
7516.49	0.000256348	0.00156311
7517.35	0.520844	1.92871e-05
7518.25	0.521301	6.32629e-05
7519.15	0.520874	0.0146332
7519.99	0.521667	1.20544e-05
7520.89	0.52063	5.3009e-05
7521.79	0.520752	0.0117828
7522.63	0.521545	1.20239e-05
7523.53	0.521118	3.99475e-05
7524.43	0.520386	0.00915222
7525.27	0.521362	1.34583e-05
7526.17	0.521637	3.04565e-05
7527.07	0.520477	0.00502777
7527.91	0.521423	1.19629e-05
7528.81	0.521484	2.70996e-05
7529.71	0.521362	0.00136444
7530.55	0.521454	1.01624e-05
7531.45	0.521057	2.54822e-05
7532.35	0.520782	0.00065033
7533.19	0.520905	1.3031e-05
7534.09	0.521667	2.08435e-05
7534.99	0.521545	0.000354645
7535.85	-0.698334	-0.0233948
7536.73	0.521667	1.80359e-05
7537.63	0.520691	0.000216675
7538.49	-0.697998	-0.0198273
7539.37	0.521606	1.80054e-05
7540.27	0.520905	0.000138275
7541.15	0.000604248	0.00230988
7542.01	0.520782	2.14844e-05
7542.91	0.52066	9.47876e-05
7543.79	0.000753784	0.00154694
7544.65	0.520996	1.69678e-05
7545.55	0.521301	6.41174e-05
7546.45	0.520752	0.0146332
7547.29	0.521606	1.21155e-05
7548.19	0.520996	5.2002e-05
7549.09	0.520111	0.011795
7549.93	0.520752	1.75171e-05
7550.83	0.521149	4.12903e-05
7551.73	0.520721	0.00915527
7552.57	0.521667	9.73511e-06
7553.47	0.520691	3.60413e-05
7554.37	0.520752	0.00506165
7555.21	0.520599	1.67236e-05
7556.11	0.520813	3.29895e-05
7557.01	0.520874	0.00138184
7557.85	0.521606	9.94873e-06
7558.75	0.521118	2.58484e-05
7559.65	0.52063	0.000656433
7560.49	0.521576	8.54492e-06
7561.39	0.521606	2.11487e-05
7562.29	0.521576	0.000358368
7563.15	-0.698181	-0.02341
7564.03	0.521271	2.12097e-05
7564.93	0.520599	0.000219086
7565.79	-0.697662	-0.0198303
7566.67	0.521698	1.64795e-05
7567.57	0.521088	0.000136841
7568.45	1.52588e-05	0.00230347
7569.31	0.521515	1.54724e-05
7570.21	0.520599	9.52148e-05
7571.09	0.000402832	0.00154022
7571.95	0.521606	1.34888e-05
7572.85	0.521667	6.19202e-05
7573.75	0.519958	0.0146271
7574.59	0.521637	1.32751e-05
7575.49	0.521667	4.74243e-05
7576.39	0.521027	0.0117859
7577.23	0.520813	1.74561e-05
7578.13	0.520721	4.31824e-05
7579.03	0.520844	0.00916138
7579.87	0.521118	1.31531e-05
7580.77	0.520935	3.5553e-05
7581.67	0.520905	0.00508057
7582.51	0.520905	1.44043e-05
7583.41	0.521515	2.66418e-05
7584.31	0.521545	0.00138489
7585.15	0.521545	8.36182e-06
7586.05	0.520996	2.83508e-05
7586.95	0.521179	0.000660095
7587.79	0.521515	9.24683e-06
7588.69	0.52063	2.60315e-05
7589.59	0.521667	0.000361603
7590.45	-0.697906	-0.0234222
7591.33	0.520996	2.28271e-05
7592.23	0.521698	0.000213806
7593.09	-0.697662	-0.0198578
7593.97	0.521484	1.73035e-05
7594.87	0.520844	0.000139557
7595.75	-6.10352e-05	0.00228455
7596.61	0.521637	1.45874e-05
7597.51	0.52121	9.31091e-05
7598.39	0.000616455	0.00152008
7599.25	0.521332	1.59607e-05
7600.15	0.521393	6.51245e-05
7601.05	0.520966	0.014621
7601.89	0.520721	1.85547e-05
7602.79	0.521118	4.96826e-05
7603.69	0.520142	0.0117981
7604.53	0.520813	1.72424e-05
7605.43	0.521271	3.93982e-05
7606.33	0.521271	0.00916443
7607.17	0.521729	9.64355e-06
7608.07	0.52066	3.67432e-05
7608.97	0.520477	0.00513
7609.81	0.521606	9.61304e-06
7610.71	0.521667	2.56042e-05
7611.61	0.521301	0.00140076
7612.45	0.521088	1.11084e-05
7613.35	0.521271	2.47803e-05
7614.25	0.520844	0.00066864
7615.09	0.520905	1.43433e-05
7615.99	0.520966	2.5116e-05
7616.89	0.52066	0.00037088
7617.75	-0.697998	-0.0234283
7618.63	0.521362	2.09961e-05
7619.53	0.520752	0.000224091
7620.39	-0.698334	-0.019873
7621.27	0.521606	1.61438e-05
7622.17	0.520691	0.000143005
7623.05	0.000601196	0.00226105
7623.91	0.521301	1.6571e-05
7624.81	0.521667	8.984375E-05
7625.69	0.000372314	0.0015152
7626.55	0.52063	1.93176e-05
7627.45	0.521454	6.59485e-05
7628.35	0.52002	0.0146179
7629.19	0.52063	1.87073e-05
7630.09	0.521454	4.88892e-05
7630.99	0.520081	0.0118042
7631.83	0.520782	1.66321e-05
7632.73	0.520935	4.14429e-05
7633.63	0.520355	0.00917969
7634.47	0.520874	1.58081e-05
7635.37	0.520905	3.63464e-05
7636.27	0.52124	0.00516602
7637.11	0.521576	8.94165e-06
7638.01	0.520905	3.07922e-05
7638.91	0.520569	0.00141541
7639.75	0.521423	9.00269e-06
7640.65	0.520996	2.76184e-05
7641.55	0.521637	0.00066864
7642.39	0.52066	1.4801e-05
7643.29	0.521118	2.38647e-05
7644.19	0.52124	0.000372986
7645.05	-0.698151	-0.0234283
7645.93	0.521301	2.07825e-05
7646.83	0.520569	0.000226379
7647.69	-0.697601	-0.0198853
7648.57	0.520691	2.23083e-05
7649.47	0.52063	0.000144592
7650.35	0.000604248	0.00225128
7651.21	0.52063	2.16675e-05
7652.11	0.521667	9.13391e-05
7652.99	9.46045e-05	0.00150238
7653.85	0.52063	1.98364e-05
7654.75	0.52179	6.39343e-05
7655.65	0.520142	0.0146057
7656.49	0.520905	1.68152e-05
7657.39	0.521576	4.90417e-05
7658.29	0.520081	0.0118103
7659.13	0.520782	1.83105e-05
7660.03	0.520691	4.4281e-05
7660.93	0.521301	0.00918274
7661.77	0.520844	1.48621e-05
7662.67	0.521027	3.34167e-05
7663.57	0.520996	0.00520752
7664.41	0.52066	1.45569e-05
7665.31	0.521484	2.78015e-05
7666.21	0.521423	0.00142517
7667.05	0.521759	8.5144e-06
7667.95	0.521606	2.3468e-05
7668.85	0.520813	0.000679321
7669.69	0.521576	9.27734e-06
7670.59	0.52066	2.73132e-05
7671.49	0.521301	0.000374969
7672.35	-0.697845	-0.0234375
7673.23	0.520752	2.3468e-05
7674.13	0.521576	0.00022226
7674.99	-0.697601	-0.0199005
7675.87	0.520721	2.27661e-05
7676.77	0.521698	0.000140778
7677.65	0.000521851	0.00223572
7678.51	0.521057	1.85547e-05
7679.41	0.520996	9.64355e-05
7680.29	0.000650024	0.00148285
7681.15	0.521545	1.37329e-05
7682.05	0.521637	6.5094e-05
7682.95	0.520996	0.0146057
7683.79	0.521057	1.58081e-05
7684.69	0.52063	5.59998e-05
7685.59	0.520782	0.0117981
7686.43	0.521362	1.41296e-05
7687.33	0.521057	4.28772e-05
7688.23	0.520264	0.00920105
7689.07	0.521088	1.29089e-05
7689.97	0.521606	3.10974e-05
7690.87	0.520569	0.0052124
7691.71	0.520935	1.46179e-05
7692.61	0.521301	2.92053e-05
7693.51	0.52121	0.0014325
7694.35	0.520782	1.40686e-05
7695.25	0.52121	2.37732e-05
7696.15	0.52066	0.00068512
7696.99	0.520599	1.50452e-05
7697.89	0.52124	2.30408e-05
7698.79	0.520813	0.00038205
7699.65	-0.697968	-0.0234497
7700.53	0.520691	2.41089e-05
7701.43	0.52063	0.000230957
7702.29	-0.697693	-0.0199158
7703.17	0.521027	2.16675e-05
7704.07	0.521057	0.000144897
7704.95	0.00050354	0.00221985
7705.81	0.52063	2.19116e-05
7706.71	0.520844	9.66187e-05
7707.59	-0.000189209	0.00147736
7708.45	0.520752	1.91956e-05
7709.35	0.521515	6.7688e-05
7710.25	0.520386	0.0146088
7711.09	0.521667	1.34888e-05
7711.99	0.520721	5.43518e-05
7712.89	0.52063	0.0118103
7713.73	0.521545	1.14441e-05
7714.63	0.520599	4.45251e-05
7715.53	0.521301	0.00919495
7716.37	0.521179	1.22681e-05
7717.27	0.521606	3.07922e-05
7718.17	0.520508	0.00520721
7719.01	0.521149	1.08337e-05
7719.91	0.52066	3.30811e-05
7720.81	0.521362	0.00143677
7721.65	0.520721	1.49536e-05
7722.55	0.52063	2.98157e-05
7723.45	0.521027	0.000687256
7724.29	0.521332	1.11389e-05
7725.19	0.520844	2.52686e-05
7726.09	0.520782	0.000384003
7726.95	-0.698212	-0.0234436
7727.83	0.520599	2.5116e-05
7728.73	0.521667	0.000227325
7729.59	-0.697632	-0.0199127
7730.47	0.520905	2.05383e-05
7731.37	0.520966	0.000146332
7732.25	0.000396729	0.00220917
7733.11	0.521484	1.62048e-05
7734.01	0.520996	9.97009e-05
7734.89	0.000219727	0.0014679
7735.75	0.520691	1.91345e-05
7736.65	0.521484	6.53076e-05
7737.55	0.520935	0.0145966
7738.39	0.521667	1.27869e-05
7739.29	0.521454	5.09033e-05
7740.19	0.520966	0.0118011
7741.03	0.521667	1.08948e-05
7741.93	0.521606	3.9032e-05
7742.83	0.521027	0.00921021
7743.67	0.520874	1.49841e-05
7744.57	0.52121	3.54309e-05
7745.47	0.521057	0.0052478
7746.31	0.521179	1.12e-05
7747.21	0.521027	2.93884e-05
7748.11	0.520569	0.00145508
7748.95	0.521698	8.27026e-06
7749.85	0.521698	2.3407e-05
7750.75	0.521637	0.000690002
7751.59	0.52063	1.43433e-05
7752.49	0.520721	2.66418e-05
7753.39	0.521423	0.000383881
7754.25	-0.698242	-0.0234497
7755.13	0.521393	1.93787e-05
7756.03	0.521149	0.000231903
7756.89	-0.698395	-0.019931
7757.77	0.520966	2.05078e-05
7758.67	0.521332	0.000144196
7759.55	-0.000296021	0.00220276
7760.41	0.521271	1.73035e-05
7761.31	0.521729	9.51233e-05
7762.19	0.000619507	0.00145111
7763.05	0.520844	1.80359e-05
7763.95	0.521576	6.76575e-05
7764.85	0.520447	0.0146057
7765.69	0.520966	1.68152e-05
7766.59	0.521759	4.91333e-05
7767.49	0.521057	0.0118073
7768.33	0.52063	1.85547e-05
7769.23	0.520935	4.33044e-05
7770.13	0.520477	0.00922546
7770.97	0.521637	1.04675e-05
7771.87	0.521667	3.16467e-05
7772.77	0.521576	0.00530365
7773.61	0.521027	1.32751e-05
7774.51	0.521423	2.63672e-05
7775.41	0.520935	0.00147186
7776.25	0.520935	1.34583e-05
7777.15	0.521118	2.57568e-05
7778.05	0.520721	0.000704956
7778.89	0.52063	1.53503e-05
7779.79	0.521332	2.21863e-05
7780.69	0.521454	0.000387909
7781.55	-0.698181	-0.0234741
7782.43	0.520721	2.39868e-05
7783.33	0.521606	0.000231262
7784.19	-0.698456	-0.0199432
7785.07	0.520721	2.2583e-05
7785.97	0.521576	0.000145721
7786.85	5.18799e-05	0.00218201
7787.71	0.520721	2.09656e-05
7788.61	0.521759	9.54895e-05
7789.49	0.000518799	0.00143524
7790.35	0.521637	1.29395e-05
7791.25	0.521271	6.97632e-05
7792.15	0.520721	0.0145874
7792.99	0.52063	1.89819e-05
7793.89	0.520966	5.45959e-05
7794.79	0.520782	0.0118164
7795.63	0.520935	1.57166e-05
7796.53	0.521759	3.96118e-05
7797.43	0.520264	0.00924072
7798.27	0.520996	1.44653e-05
7799.17	0.521698	3.16467e-05
7800.07	0.52063	0.00537079
7800.91	0.521149	1.32141e-05
7801.81	0.520966	3.11584e-05
7802.71	0.520874	0.00148773
7803.55	0.52066	1.53809e-05
7804.45	0.521851	2.31628e-05
7805.35	0.521454	0.000705566
7806.19	0.521149	1.22375e-05
7807.09	0.521057	2.49023e-05
7807.99	0.521545	0.000392456
7808.85	-0.697418	-0.0234863
7809.73	0.52124	2.11487e-05
7810.63	0.521667	0.000234222
7811.49	-0.697723	-0.0199738
7812.37	0.521637	1.77307e-05
7813.27	0.521637	0.000147827
7814.15	-0.000302124	0.0021701
7815.01	0.520691	2.1698e-05
7815.91	0.521637	9.7168e-05
7816.79	0.000314331	0.00143036
7817.65	0.521423	1.48621e-05
7818.55	0.521484	6.9397e-05
7819.45	0.520508	0.0145813
7820.29	0.521759	1.1261e-05
7821.19	0.520782	5.52063e-05
7822.09	0.52005	0.0118195
7822.93	0.521698	1.12305e-05
7823.83	0.521667	3.84216e-05
7824.73	0.520935	0.00923462
7825.57	0.520966	1.31531e-05
7826.47	0.521698	3.13721e-05
7827.37	0.520813	0.00539886
7828.21	0.521667	8.05664e-06
7829.11	0.52063	3.34778e-05
7830.01	0.520477	0.00150024
7830.85	0.521362	1.08948e-05
7831.75	0.520782	2.91138e-05
7832.65	0.520844	0.000717773
7833.49	0.521606	9.21631e-06
7834.39	0.520752	2.51465e-05
7835.29	0.520966	0.000399811
7836.15	-0.697388	-0.0234924
7837.03	0.521698	1.81274e-05
7837.93	0.521729	0.000236084
7838.79	-0.697876	-0.019986
7839.67	0.520721	2.14233e-05
7840.57	0.520721	0.000154022
7841.45	-1.83105e-05	0.00215729
7842.31	0.521637	1.34888e-05
7843.21	0.521576	9.82361e-05
7844.09	0.000497437	0.00141449
7844.95	0.521545	1.48926e-05
7845.85	0.521271	7.18079e-05
7846.75	0.520966	0.0145813
7847.59	0.521484	1.37634e-05
7848.49	0.520996	5.34973e-05
7849.39	0.520081	0.0118286
7850.23	0.520599	1.71814e-05
7851.13	0.520752	4.34875e-05
7852.03	0.520569	0.00924988
7852.87	0.520752	1.55029e-05
7853.77	0.520691	3.79639e-05
7854.67	0.521515	0.00543182
7855.51	0.520691	1.53503e-05
7856.41	0.521637	2.70691e-05
7857.31	0.521576	0.00150604
7858.15	0.521576	8.66699e-06
7859.05	0.520691	2.93274e-05
7859.95	0.520905	0.000724182
7860.79	0.521454	9.82666e-06
7861.69	0.520721	2.63367e-05
7862.59	0.521637	0.000398834
7863.45	-0.697296	-0.0234924
7864.33	0.521698	1.83411e-05
7865.23	0.521118	0.000241608
7866.09	-0.697968	-0.019986
7866.97	0.521576	1.67847e-05
7867.87	0.521301	0.000155121
7868.75	0.000735474	0.00213867
7869.61	0.521484	1.6449e-05
7870.51	0.521362	0.000100861
7871.39	0.000708008	0.00140198
7872.25	0.520569	2.03552e-05
7873.15	0.520844	7.20825e-05
7874.05	0.520935	0.0145782
7874.89	0.520721	1.78528e-05
7875.79	0.520874	5.57861e-05
7876.69	0.52066	0.0118286
7877.53	0.520782	1.71509e-05
7878.43	0.521179	4.23889e-05
7879.33	0.520844	0.00925903
7880.17	0.521149	1.22375e-05
7881.07	0.521667	3.25317e-05
7881.97	0.520447	0.00547058
7882.81	0.521484	1.12305e-05
7883.71	0.52066	3.32031e-05
7884.61	0.521393	0.00152222
7885.45	0.521179	1.24512e-05
7886.35	0.52063	3.06396e-05
7887.25	0.520569	0.000731201
7888.09	0.521149	1.23901e-05
7888.99	0.521729	2.02332e-05
7889.89	0.520599	0.000408539
7890.75	-0.697998	-0.0234955
7891.63	0.520935	2.32849e-05
7892.53	0.521362	0.000241913
7893.39	-0.69809	-0.0199982
7894.27	0.521698	1.62048e-05
7895.17	0.52124	0.000154266
7896.05	9.15527e-05	0.00212708
7896.91	0.520752	2.04773e-05
7897.81	0.521759	9.9823e-05
7898.69	-0.000250244	0.00139496
7899.55	0.521454	1.40076e-05
7900.45	0.52124	7.22656e-05
7901.35	0.519989	0.0145752
7902.19	0.520752	1.74561e-05
7903.09	0.520691	5.75867e-05
7903.99	0.520477	0.0118195
7904.83	0.52066	1.70288e-05
7905.73	0.521515	3.98865e-05
7906.63	0.520447	0.00927124
7907.47	0.520813	1.52893e-05
7908.37	0.52179	3.24707e-05
7909.27	0.521088	0.00550018
7910.11	0.521423	9.91821e-06
7911.01	0.52066	3.3905e-05
7911.91	0.521545	0.00153503
7912.75	0.521332	1.12305e-05
7913.65	0.520935	2.82288e-05
7914.55	0.520844	0.000737305
7915.39	0.521667	8.36182e-06
7916.29	0.520599	2.73132e-05
7917.19	0.521637	0.000408386
7918.05	-0.697418	-0.0235077
7918.93	0.520691	2.46582e-05
7919.83	0.520813	0.000248352
7920.69	-0.698456	-0.0200012
7921.57	0.520935	2.09045e-05
7922.47	0.52066	0.000159515
7923.35	-0.000305176	0.00212067
7924.21	0.52179	1.47705e-05
7925.11	0.521301	0.000104858
7925.99	0.000454712	0.00138214
7926.85	0.521576	1.42212e-05
7927.75	0.521606	6.99158e-05
7928.65	0.520782	0.0145721
7929.49	0.520844	1.77307e-05
7930.39	0.521515	5.23376e-05
7931.29	0.52066	0.0118347
7932.13	0.521301	1.33667e-05
7933.03	0.520905	4.53186e-05
7933.93	0.520294	0.0092804
7934.77	0.521484	1.1261e-05
7935.67	0.521576	3.29895e-05
7936.57	0.521545	0.00552582
7937.41	0.520691	1.66626e-05
7938.31	0.521637	2.80762e-05
7939.21	0.521576	0.00154572
7940.05	0.520752	1.474e-05
7940.95	0.521698	2.3407e-05
7941.85	0.520569	0.000744324
7942.69	0.52066	1.43127e-05
7943.59	0.520691	2.73743e-05
7944.49	0.520752	0.000417023
7945.35	-0.697784	-0.0235168
7946.23	0.521759	1.828e-05
7947.13	0.521088	0.000250885
7947.99	-0.698639	-0.0200287
7948.87	0.520966	2.05688e-05
7949.77	0.520691	0.000159637
7950.65	-0.000164795	0.00210175
7951.51	0.521149	1.88293e-05
7952.41	0.520844	0.00010672
7953.29	3.05176e-06	0.00137665
7954.15	0.521393	1.41602e-05
7955.05	0.52121	7.4646e-05
7955.95	0.519897	0.0145752
7956.79	0.52066	1.90735e-05
7957.69	0.520782	5.61523e-05
7958.59	0.521118	0.0118286
7959.43	0.520721	1.70898e-05
7960.33	0.52066	4.50745e-05
7961.23	0.52121	0.0092865
7962.07	0.520813	1.53198e-05
7962.97	0.521332	3.40881e-05
7963.87	0.520905	0.00556519
7964.71	0.520844	1.5625e-05
7965.61	0.520874	3.19824e-05
7966.51	0.520752	0.00156281
7967.35	0.52121	1.27258e-05
7968.25	0.521698	2.40784e-05
7969.15	0.520599	0.000751038
7969.99	0.521606	9.0332e-06
7970.89	0.521027	2.47498e-05
7971.79	0.520813	0.00041925
7972.65	-0.697693	-0.0235229
7973.53	0.520599	2.46277e-05
7974.43	0.520813	0.000253601
7975.29	-0.697601	-0.02005
7976.17	0.521729	1.57776e-05
7977.07	0.520874	0.000161743
7977.95	-0.000204468	0.00209259
7978.81	0.520813	1.97144e-05
7979.71	0.520996	0.000106445
7980.59	0.000613403	0.00135986
7981.45	0.521667	1.33667e-05
7982.35	0.52121	7.27539e-05
7983.25	0.520508	0.014566
7984.09	0.521729	1.23291e-05
7984.99	0.52063	5.83496e-05
7985.89	0.520111	0.0118347
7986.73	0.521698	1.11389e-05
7987.63	0.520935	4.3457e-05
7988.53	0.520508	0.00929871
7989.37	0.52066	1.66626e-05
7990.27	0.521698	3.22266e-05
7991.18	0.520813	0.00557953
7992.02	0.520844	1.47705e-05
7992.92	0.521576	2.7771e-05
7993.82	0.521149	0.00156738
7994.66	0.520782	1.47705e-05
7995.56	0.521027	2.75574e-05
7996.46	0.521484	0.000747375
7997.3	0.521606	8.3313e-06
7998.2	0.520599	2.70386e-05
7999.1	0.520782	0.000422089
7999.96	-0.697449	-0.0235199
8000.84	0.521637	1.8219e-05
8001.74	0.520752	0.000256622
8002.6	-0.697876	-0.0200439
8003.48	0.520752	2.22168e-05
8004.38	0.520691	0.000163971
8005.26	-0.000283813	0.00209503
8006.12	0.521606	1.68152e-05
8007.02	0.521545	0.000104004
8007.9	0.000338745	0.00136169
8008.76	0.521515	1.4679e-05
8009.66	0.52066	7.77283e-05
8010.56	0.519958	0.0145752
8011.4	0.521576	1.27563e-05
8012.3	0.52066	5.95398e-05
8013.2	0.521149	0.0118408
8014.04	0.520721	1.84326e-05
8014.94	0.521606	4.10156e-05
8015.84	0.521332	0.00930176
8016.68	0.520966	1.51672e-05
8017.58	0.521484	3.35083e-05
8018.48	0.521057	0.00556885
8019.32	0.521667	9.42993e-06
8020.22	0.520691	3.41797e-05
8021.12	0.520599	0.00157654
8021.96	0.521637	8.30078e-06
8022.86	0.521606	2.4353e-05
8023.76	0.521606	0.000753479
8024.6	0.521057	1.14136e-05
8025.5	0.521515	2.15149e-05
8026.4	0.521179	0.000422882
8027.26	-0.697937	-0.0235229
8028.14	0.521545	1.89514e-05
8029.04	0.521545	0.000254395
8029.9	-0.698517	-0.0200562
8030.78	0.521149	1.86157e-05
8031.68	0.521332	0.000161346
8032.56	-0.000296021	0.00207611
8033.42	0.520599	2.20947e-05
8034.32	0.521423	0.00010553
8035.2	-7.62939e-05	0.00135345
8036.06	0.521667	1.35803e-05
8036.96	0.521027	7.71484e-05
8037.86	0.520081	0.014566
8038.7	0.521393	1.34888e-05
8039.6	0.521271	5.61523e-05
8040.5	0.520508	0.0118561
8041.34	0.521149	1.49231e-05
8042.24	0.52124	4.245e-05
8043.14	0.520294	0.00931396
8043.98	0.521057	1.38245e-05
8044.88	0.521057	3.67126e-05
8045.78	0.521362	0.00559296
8046.62	0.52121	1.47095e-05
8047.52	0.52066	3.4668e-05
8048.42	0.520569	0.0015863
8049.26	0.521332	1.10168e-05
8050.16	0.52066	3.09448e-05
8051.06	0.521576	0.000758972
8051.9	0.521515	9.70459e-06
8052.8	0.521545	2.1698e-05
8053.7	0.52066	0.000430725
8054.56	-0.698334	-0.023526
8055.44	0.521576	1.88904e-05
8056.34	0.520599	0.000262421
8057.2	-0.698669	-0.0200684
8058.08	0.520813	2.21863e-05
8058.98	0.521667	0.00016037
8059.86	0.000640869	0.00205383
8060.72	0.520905	1.68457e-05
8061.62	0.521484	0.000106934
8062.5	0.00065918	0.00133545
8063.36	0.520935	1.87988e-05
8064.26	0.521301	7.50427e-05
8065.16	0.520203	0.0145477
8066	0.520691	1.91345e-05
8066.9	0.52066	5.91736e-05
8067.8	0.520447	0.0118561
8068.64	0.521515	1.33972e-05
8069.54	0.520599	4.76685e-05
8070.44	0.52124	0.00931702
8071.28	0.521454	1.17493e-05
8072.18	0.521484	3.38745e-05
8073.08	0.521301	0.0056369
8073.92	0.520844	1.45264e-05
8074.82	0.520782	3.2074e-05
8075.72	0.520844	0.00160126
8076.56	0.520721	1.33362e-05
8077.46	0.520844	2.89307e-05
8078.36	0.521637	0.00076416
8079.2	0.521576	8.48389e-06
8080.1	0.521057	2.39563e-05
8081	0.521301	0.00042981
8081.86	-0.697968	-0.0235382
8082.74	0.520599	2.53601e-05
8083.64	0.520996	0.00026181
8084.5	-0.697601	-0.0200806
8085.38	0.521271	1.84631e-05
8086.28	0.52063	0.00016803
8087.16	0.000604248	0.00204926
8088.02	0.521088	1.87073e-05
8088.92	0.521515	0.000108032
8089.8	0.000192261	0.00132996
8090.66	0.52063	1.96228e-05
8091.56	0.520844	7.83691e-05
8092.46	0.519867	0.0145538
8093.3	0.521362	1.4801e-05
8094.2	0.520691	5.93567e-05
8095.1	0.520081	0.011853
8095.94	0.52124	1.43127e-05
8096.84	0.521667	4.09546e-05
8097.74	0.521118	0.00931702
8098.58	0.520874	1.58386e-05
8098.72	0.520935	1.12305e-05