File: Edgar/20240522/20240522/electrodeposition_pulsed_potential_20240522_A/pulses_3000_to_4000.txt
Time (s)	WE(1).Potential (V)	WE(1).Current (A)
4152.52	-0.697601	-0.0216461
4153.4	0.52124	1.44653e-05
4154.3	0.52121	5.92651e-05
4155.16	-0.697815	-0.0167145
4156.04	0.521362	1.23901e-05
4156.94	0.521027	4.90417e-05
4157.82	0.000106812	0.00521545
4158.68	0.521271	1.21765e-05
4159.58	0.521698	3.62244e-05
4160.46	-0.000183105	0.003927
4161.32	0.521606	9.97925e-06
4162.22	0.521484	3.34167e-05
4163.12	0.519867	0.015213
4163.96	0.520996	1.09558e-05
4164.86	0.520935	3.02124e-05
4165.76	0.520569	0.0105164
4166.6	0.520691	1.31836e-05
4167.5	0.521484	2.4292e-05
4168.4	0.520599	0.00271759
4169.24	0.521606	7.78198e-06
4170.14	0.521515	2.05078e-05
4171.04	0.520752	0.000513916
4171.88	0.521698	4.91333e-06
4172.78	0.520782	2.39258e-05
4173.68	0.521423	0.00020813
4174.52	0.521454	6.16455e-06
4175.42	0.521027	2.15759e-05
4176.32	0.52124	0.000117615
4177.16	0.521088	7.8125e-06
4178.06	0.52124	1.67236e-05
4178.96	0.52066	8.49609e-05
4179.82	-0.698364	-0.0217407
4180.7	0.520599	2.04773e-05
4181.6	0.521729	5.75256e-05
4182.46	-0.698517	-0.0167511
4183.34	0.52063	1.84631e-05
4184.24	0.520691	5.17578e-05
4185.12	0.000125122	0.00523102
4185.98	0.520966	1.42822e-05
4186.88	0.521179	3.94897e-05
4187.76	0.000408936	0.00393402
4188.62	0.521271	1.33667e-05
4189.52	0.521698	3.27759e-05
4190.42	0.520782	0.0152527
4191.26	0.521698	7.96509e-06
4192.16	0.521179	2.96936e-05
4193.06	0.521179	0.0105621
4193.9	0.52066	1.37634e-05
4194.8	0.521515	2.42004e-05
4195.7	0.52121	0.00286285
4196.54	0.521515	7.04956e-06
4197.44	0.52121	2.44751e-05
4198.34	0.521393	0.000518494
4199.18	0.52063	1.31226e-05
4200.08	0.520599	2.5116e-05
4200.98	0.521088	0.000213013
4201.82	0.521057	8.17871e-06
4202.72	0.520691	2.29187e-05
4203.62	0.521637	0.000117035
4204.46	0.521515	6.19507e-06
4205.36	0.521637	1.40991e-05
4206.26	0.520782	8.52661e-05
4207.12	-0.698395	-0.0217712
4208	0.52063	1.86157e-05
4208.9	0.520996	6.19202e-05
4209.76	-0.69873	-0.0167816
4210.64	0.520691	1.75171e-05
4211.54	0.521759	4.56238e-05
4212.42	-0.000445557	0.00521118
4213.28	0.520966	1.66016e-05
4214.18	0.521729	3.80859e-05
4215.06	0.000622559	0.00391479
4215.92	0.521729	9.00269e-06
4216.82	0.520691	3.77197e-05
4217.72	0.520935	0.0152557
4218.56	0.521027	1.19629e-05
4219.46	0.521698	2.69775e-05
4220.36	0.521271	0.0106018
4221.2	0.521759	7.8125e-06
4222.1	0.521271	2.6123e-05
4223	0.521362	0.00302582
4223.84	0.520935	1.19934e-05
4224.74	0.521698	1.94702e-05
4225.64	0.521606	0.000531921
4226.48	0.52063	1.30615e-05
4227.38	0.52063	2.5177e-05
4228.28	0.521393	0.000214661
4229.12	0.521423	6.86646e-06
4230.02	0.521606	1.70288e-05
4230.92	0.520782	0.00012442
4231.76	0.521729	5.21851e-06
4232.66	0.520935	1.89209e-05
4233.56	0.521667	8.04138e-05
4234.42	-0.69751	-0.0217957
4235.3	0.521332	1.40686e-05
4236.2	0.520599	6.6925e-05
4237.06	-0.698395	-0.0168182
4237.94	0.520538	1.86768e-05
4238.84	0.521027	4.93469e-05
4239.72	0.000460815	0.00517975
4240.58	0.52121	1.27563e-05
4241.48	0.521423	3.97339e-05
4242.36	-0.000335693	0.00390015
4243.22	0.520569	1.66321e-05
4244.12	0.521667	3.17383e-05
4245.02	0.520233	0.015274
4245.86	0.520691	1.54724e-05
4246.76	0.521606	2.74353e-05
4247.66	0.520203	0.0106354
4248.5	0.520966	1.20239e-05
4249.4	0.520874	2.75574e-05
4250.3	0.520844	0.00317657
4251.14	0.52066	1.35193e-05
4252.04	0.52063	2.74963e-05
4252.94	0.52063	0.000552368
4253.78	0.520691	1.2207e-05
4254.68	0.52063	2.47498e-05
4255.58	0.520874	0.000223175
4256.42	0.521698	5.40161e-06
4257.32	0.520691	2.28577e-05
4258.22	0.521729	0.000121155
4259.06	0.52121	7.96509e-06
4259.96	0.521545	1.51367e-05
4260.86	0.520905	8.43506e-05
4261.72	-0.69751	-0.021817
4262.6	0.521667	1.51978e-05
4263.5	0.521423	6.06384e-05
4264.36	-0.698792	-0.0168549
4265.24	0.520905	1.72729e-05
4266.14	0.521484	4.88892e-05
4267.02	-0.000430298	0.0051535
4267.88	0.521759	1.12915e-05
4268.78	0.52124	4.00085e-05
4269.66	-0.000250244	0.00387909
4270.52	0.521667	9.82666e-06
4271.42	0.521698	3.27759e-05
4272.32	0.519775	0.015271
4273.16	0.521698	9.52148e-06
4274.06	0.520752	3.53699e-05
4274.96	0.520142	0.010672
4275.8	0.521454	8.20923e-06
4276.7	0.521088	2.82593e-05
4277.6	0.520538	0.00334717
4278.44	0.520752	1.31836e-05
4279.34	0.521729	2.07825e-05
4280.24	0.521729	0.000560608
4281.08	0.521149	9.46045e-06
4281.98	0.52063	2.57568e-05
4282.88	0.521423	0.000223419
4283.72	0.521301	9.3689e-06
4284.62	0.521454	1.74866e-05
4285.52	0.520752	0.000125854
4286.36	0.521179	8.20923e-06
4287.26	0.520599	2.12708e-05
4288.16	0.52063	8.72192e-05
4289.02	-0.698578	-0.0218384
4289.9	0.521698	1.31836e-05
4290.8	0.52179	6.01501e-05
4291.66	-0.698914	-0.0168976
4292.54	0.520599	1.9043e-05
4293.44	0.520996	5.19104e-05
4294.32	0.000238037	0.00512207
4295.18	0.520996	1.66016e-05
4296.08	0.521027	4.29077e-05
4296.96	0.000671387	0.00385132
4297.82	0.52063	1.64185e-05
4298.72	0.521698	3.10974e-05
4299.62	0.520081	0.0152802
4300.46	0.520599	1.58997e-05
4301.36	0.521606	2.80457e-05
4302.26	0.520081	0.0107117
4303.1	0.521729	8.05664e-06
4304	0.520538	3.02429e-05
4304.9	0.521027	0.00350555
4305.74	0.521271	1.11694e-05
4306.64	0.521301	2.44751e-05
4307.54	0.521088	0.000575562
4308.38	0.521179	9.3689e-06
4309.28	0.520721	2.43225e-05
4310.18	0.521179	0.000229889
4311.02	0.521454	6.74438e-06
4311.92	0.520691	2.3407e-05
4312.82	0.520721	0.000128754
4313.66	0.520752	1.13525e-05
4314.56	0.521332	1.70288e-05
4315.46	0.520569	8.82874e-05
4316.32	-0.698517	-0.0218567
4317.2	0.521515	1.55945e-05
4318.1	0.521301	6.19202e-05
4318.96	-0.698395	-0.016922
4319.84	0.520782	1.57471e-05
4320.74	0.521545	4.73022e-05
4321.62	-0.000231934	0.00509125
4322.48	0.521759	1.14136e-05
4323.38	0.52063	4.52271e-05
4324.26	-0.000402832	0.00382477
4325.12	0.521729	9.15527e-06
4326.02	0.520691	3.69568e-05
4326.92	0.520996	0.0152466
4327.76	0.520935	1.34583e-05
4328.66	0.520752	3.07922e-05
4329.56	0.520813	0.0107147
4330.4	0.521637	7.44629e-06
4331.3	0.521088	2.79541e-05
4332.2	0.521454	0.00364655
4333.04	0.521576	7.56836e-06
4333.94	0.520691	2.74963e-05
4334.84	0.520569	0.000591736
4335.68	0.521393	9.09424e-06
4336.58	0.521088	2.16675e-05
4337.48	0.520813	0.000234009
4338.32	0.521637	6.43921e-06
4339.22	0.520599	2.31323e-05
4340.12	0.521027	0.000127228
4340.96	0.52063	1.17798e-05
4341.86	0.52121	1.9165e-05
4342.76	0.521362	8.53577e-05
4343.62	-0.697998	-0.0218628
4344.5	0.520782	1.93787e-05
4345.4	0.521484	6.03333e-05
4346.26	-0.697845	-0.0169556
4347.14	0.520721	1.77307e-05
4348.04	0.521027	5.09338e-05
4348.92	0.000250244	0.00505615
4349.78	0.521729	1.15662e-05
4350.68	0.521301	4.14124e-05
4351.56	0.000402832	0.0038028
4352.42	0.521057	1.48315e-05
4353.32	0.521393	3.28369e-05
4354.22	0.520538	0.0152496
4355.06	0.521606	8.27026e-06
4355.96	0.520721	3.31421e-05
4356.86	0.521179	0.0107483
4357.7	0.52066	1.46484e-05
4358.6	0.520721	3.01208e-05
4359.5	0.520721	0.00381927
4360.34	0.521729	7.99561e-06
4361.24	0.52124	2.35596e-05
4362.14	0.521271	0.000601196
4362.98	0.521362	8.45337e-06
4363.88	0.520966	2.22778e-05
4364.78	0.520935	0.000237549
4365.62	0.520721	1.26038e-05
4366.52	0.520599	2.2644e-05
4367.42	0.52066	0.000133301
4368.26	0.521027	8.81958e-06
4369.16	0.52121	1.86157e-05
4370.06	0.521484	8.22144e-05
4370.92	-0.698303	-0.0218933
4371.8	0.52121	1.55945e-05
4372.7	0.521484	6.13708e-05
4373.56	-0.698792	-0.0169861
4374.44	0.52063	1.84631e-05
4375.34	0.520844	5.27649e-05
4376.22	-1.83105e-05	0.00503357
4377.08	0.520752	1.67847e-05
4377.98	0.52063	4.63867e-05
4378.86	0.000473022	0.00378265
4379.72	0.521606	1.21155e-05
4380.62	0.521423	3.42712e-05
4381.52	0.520172	0.0152557
4382.36	0.520996	1.34277e-05
4383.26	0.521545	2.85339e-05
4384.16	0.520447	0.0107758
4385	0.52066	1.57776e-05
4385.9	0.520782	2.89612e-05
4386.8	0.520538	0.00400177
4387.64	0.521149	1.07727e-05
4388.54	0.520935	2.63367e-05
4389.44	0.520599	0.000621643
4390.28	0.521301	9.00269e-06
4391.18	0.521301	2.24304e-05
4392.08	0.521606	0.000239685
4392.92	0.521729	6.19507e-06
4393.82	0.521637	1.69678e-05
4394.72	0.521759	0.000127472
4395.56	0.520905	1.0498e-05
4396.46	0.520569	2.18811e-05
4397.36	0.52066	8.95081e-05
4398.22	-0.697876	-0.0219177
4399.1	0.520874	1.78223e-05
4400	0.521606	6.10352e-05
4400.86	-0.698395	-0.0170349
4401.74	0.521332	1.48926e-05
4402.64	0.521698	4.68445e-05
4403.52	0.000628662	0.00499725
4404.38	0.52066	1.80969e-05
4405.28	0.521606	3.88794e-05
4406.16	-0.000259399	0.00376099
4407.02	0.520691	1.57471e-05
4407.92	0.521423	3.68347e-05
4408.82	0.52005	0.0152466
4409.66	0.521606	8.54492e-06
4410.56	0.521057	3.14941e-05
4411.46	0.520294	0.0107971
4412.3	0.521576	1.03149e-05
4413.2	0.521576	2.49023e-05
4414.1	0.520569	0.00418579
4414.94	0.521698	7.20215e-06
4415.84	0.520691	2.7832e-05
4416.74	0.52124	0.000631714
4417.58	0.520782	1.3092e-05
4418.48	0.521729	1.76697e-05
4419.38	0.52182	0.000242859
4420.22	0.521729	5.64575e-06
4421.12	0.521454	1.55945e-05
4422.02	0.520599	0.000137146
4422.86	0.520721	1.35498e-05
4423.76	0.521454	1.58691e-05
4424.66	0.520813	9.09424e-05
4425.52	-0.698364	-0.0219269
4426.4	0.520844	1.84631e-05
4427.3	0.521698	6.05774e-05
4428.16	-0.697815	-0.0170593
4429.04	0.521545	1.31531e-05
4429.94	0.520935	5.25513e-05
4430.82	-0.00039978	0.0049765
4431.68	0.521515	1.15967e-05
4432.58	0.520782	4.36096e-05
4433.46	0.000588989	0.00373108
4434.32	0.520569	1.76086e-05
4435.22	0.52066	3.88184e-05
4436.12	0.520905	0.0152435
4436.96	0.521515	9.91821e-06
4437.86	0.521637	2.74658e-05
4438.76	0.520752	0.0108124
4439.6	0.521729	8.5144e-06
4440.5	0.521576	2.54517e-05
4441.4	0.521179	0.00435211
4442.24	0.52121	1.24512e-05
4443.14	0.521057	2.39868e-05
4444.04	0.521088	0.000644531
4444.88	0.521027	1.11084e-05
4445.78	0.521301	1.88904e-05
4446.68	0.521698	0.000248352
4447.52	0.52063	1.36719e-05
4448.42	0.521118	2.07825e-05
4449.32	0.520599	0.000138489
4450.16	0.521484	7.2937e-06
4451.06	0.521576	1.41602e-05
4451.96	0.52066	9.15527e-05
4452.82	-0.698212	-0.0219421
4453.7	0.521057	1.57471e-05
4454.6	0.521576	6.33545e-05
4455.46	-0.698853	-0.0170959
4456.34	0.521179	1.47705e-05
4457.24	0.52063	5.38635e-05
4458.12	-0.000292969	0.00494293
4458.98	0.520935	1.54724e-05
4459.88	0.520874	4.39148e-05
4460.76	0.000738525	0.00370514
4461.62	0.520874	1.49536e-05
4462.52	0.521729	3.19214e-05
4463.42	0.520386	0.0152313
4464.26	0.520996	1.30615e-05
4465.16	0.520935	3.19824e-05
4466.06	0.520294	0.0108459
4466.9	0.520691	1.45874e-05
4467.8	0.521271	2.65198e-05
4468.7	0.521545	0.00454224
4469.54	0.521332	9.73511e-06
4470.44	0.520844	2.65808e-05
4471.34	0.521423	0.000661621
4472.18	0.521698	7.23267e-06
4473.08	0.520782	2.46887e-05
4473.98	0.520599	0.000260406
4474.82	0.521149	8.60596e-06
4475.72	0.520966	1.90125e-05
4476.62	0.520905	0.000139099
4477.46	0.520874	1.24512e-05
4478.36	0.520966	2.03857e-05
4479.26	0.520782	9.18274e-05
4480.12	-0.698151	-0.0219727
4481	0.520905	1.80359e-05
4481.9	0.521576	6.23474e-05
4482.76	-0.6987	-0.0171326
4483.64	0.52063	1.87988e-05
4484.54	0.521637	4.92554e-05
4485.42	-0.000418091	0.00491516
4486.28	0.52121	1.28174e-05
4487.18	0.521851	3.91235e-05
4488.06	0.000616455	0.00367981
4488.92	0.521667	9.8877e-06
4489.82	0.521301	3.59802e-05
4490.72	0.520752	0.0152344
4491.56	0.520966	1.35803e-05
4492.46	0.521423	2.81067e-05
4493.36	0.520966	0.0108551
4494.2	0.520569	1.55945e-05
4495.1	0.521423	2.55737e-05
4496	0.520782	0.00472107
4496.84	0.520599	1.44653e-05
4497.74	0.521576	2.20032e-05
4498.64	0.521271	0.000675964
4499.48	0.520813	1.31836e-05
4500.38	0.52063	2.5116e-05
4501.28	0.520721	0.000264801
4502.12	0.520905	1.18103e-05
4503.02	0.521576	1.70898e-05
4503.92	0.52179	0.00013443
4504.76	0.521484	7.08008e-06
4505.66	0.521667	1.6571e-05
4506.56	0.521698	8.70972e-05
4507.42	-0.698395	-0.021991
4508.3	0.521667	1.35193e-05
4509.2	0.521637	6.36902e-05
4510.06	-0.697906	-0.017157
4510.94	0.520874	1.68152e-05
4511.84	0.520935	5.40771e-05
4512.72	-7.62939e-05	0.00488739
4513.58	0.520599	1.68152e-05
4514.48	0.521393	4.1626e-05
4515.36	0.000442505	0.00366058
4516.22	0.521423	1.11084e-05
4517.12	0.521698	3.22876e-05
4518.02	0.520172	0.0152374
4518.86	0.520935	1.28784e-05
4519.76	0.521393	3.0304e-05
4520.66	0.520325	0.0108887
4521.5	0.520599	1.45264e-05
4522.4	0.52066	3.10669e-05
4523.3	0.521332	0.00486481
4524.14	0.520813	1.22681e-05
4525.04	0.521667	2.29797e-05
4525.94	0.521362	0.000690918
4526.78	0.521301	9.82666e-06
4527.68	0.521149	2.27356e-05
4528.58	0.520569	0.000270264
4529.42	0.521088	1.02539e-05
4530.32	0.520599	2.27051e-05
4531.22	0.521271	0.000140167
4532.06	0.521149	7.84302e-06
4532.96	0.520782	2.18811e-05
4533.86	0.521698	8.79211e-05
4534.72	-0.69754	-0.0220062
4535.6	0.521637	1.47705e-05
4536.5	0.521179	6.66199e-05
4537.36	-0.698425	-0.0171875
4538.24	0.521576	1.19324e-05
4539.14	0.521454	5.05676e-05
4540.02	0.000448608	0.00485748
4540.88	0.521667	1.06812e-05
4541.78	0.520905	4.76685e-05
4542.66	0.000143433	0.00363922
4543.52	0.52182	9.12476e-06
4544.42	0.52063	3.92456e-05
4545.32	0.519989	0.0152252
4546.16	0.520782	1.47705e-05
4547.06	0.520782	3.46069e-05
4547.96	0.52066	0.0108978
4548.8	0.52124	1.16882e-05
4549.7	0.521545	2.56958e-05
4550.6	0.521423	0.00506165
4551.44	0.521667	8.5144e-06
4552.34	0.520721	2.7832e-05
4553.24	0.521729	0.000709534
4554.08	0.52124	9.64355e-06
4554.98	0.520721	2.62451e-05
4555.88	0.521454	0.00027005
4556.72	0.521606	6.34766e-06
4557.62	0.52063	2.42615e-05
4558.52	0.520721	0.000146637
4559.36	0.521454	7.1106e-06
4560.26	0.521759	1.5686e-05
4561.16	0.521606	8.81348e-05
4562.02	-0.69751	-0.0220276
4562.9	0.521271	1.76697e-05
4563.8	0.52066	7.09839e-05
4564.66	-0.698242	-0.0172424
4565.54	0.52066	1.77612e-05
4566.44	0.521027	5.31311e-05
4567.32	0.000418091	0.00482452
4568.18	0.521423	1.33057e-05
4569.08	0.521088	4.29382e-05
4569.96	0.000595093	0.00360565
4570.82	0.521393	1.18103e-05
4571.72	0.521332	3.42102e-05
4572.62	0.52066	0.0152283
4573.46	0.52063	1.41602e-05
4574.36	0.521057	3.37219e-05
4575.26	0.521271	0.0109222
4576.1	0.521454	9.67407e-06
4577	0.521576	2.53601e-05
4577.9	0.520935	0.00520935
4578.74	0.52063	1.47705e-05
4579.64	0.520721	2.89001e-05
4580.54	0.521271	0.000725403
4581.38	0.520721	1.28479e-05
4582.28	0.521454	1.97449e-05
4583.18	0.521118	0.000277222
4584.02	0.521057	8.60596e-06
4584.92	0.521698	1.66016e-05
4585.82	0.52063	0.000148468
4586.66	0.52063	1.24512e-05
4587.56	0.521515	1.74866e-05
4588.46	0.520844	9.52148e-05
4589.32	-0.698547	-0.0220337
4590.2	0.52179	1.25732e-05
4591.1	0.520691	7.16553e-05
4591.96	-0.698608	-0.0172638
4592.84	0.521545	1.24207e-05
4593.74	0.520752	5.5603e-05
4594.62	-0.000378418	0.00479706
4595.48	0.521057	1.45264e-05
4596.38	0.520599	4.74243e-05
4597.26	-0.000106812	0.0035907
4598.12	0.521759	9.24683e-06
4599.02	0.521698	3.43628e-05
4599.92	0.521027	0.015213
4600.76	0.521454	1.05591e-05
4601.66	0.521667	2.82288e-05
4602.56	0.521149	0.0109436
4603.4	0.521515	9.0332e-06
4604.3	0.520599	3.24097e-05
4605.2	0.521545	0.00536438
4606.04	0.521606	8.3313e-06
4606.94	0.521606	2.05688e-05
4607.84	0.521637	0.000740967
4608.68	0.52121	8.54492e-06
4609.58	0.521698	1.9928e-05
4610.48	0.520691	0.000285919
4611.32	0.521027	1.05286e-05
4612.22	0.520721	2.42004e-05
4613.12	0.521698	0.000142822
4613.96	0.520935	9.79614e-06
4614.86	0.520966	1.98975e-05
4615.76	0.521423	9.08203e-05
4616.62	-0.698517	-0.0220551
4617.5	0.52066	1.98059e-05
4618.4	0.521362	6.62231e-05
4619.26	-0.6987	-0.0173004
4620.14	0.521423	1.52893e-05
4621.04	0.521118	5.58472e-05
4621.92	0.000485229	0.00476318
4622.78	0.520691	1.79749e-05
4623.68	0.520721	4.74854e-05
4624.56	-0.000268555	0.00356598
4625.42	0.521545	1.00708e-05
4626.32	0.521698	3.32947e-05
4627.22	0.520721	0.015213
4628.06	0.520905	1.47095e-05
4628.96	0.521729	2.91138e-05
4629.86	0.521301	0.010965
4630.7	0.521118	1.14441e-05
4631.6	0.521088	3.08838e-05
4632.5	0.521301	0.00549744
4633.34	0.52066	1.47095e-05
4634.24	0.520996	2.57874e-05
4635.14	0.521271	0.000760803
4635.98	0.521271	8.27026e-06
4636.88	0.521088	2.26135e-05
4637.78	0.521759	0.000285339
4638.62	0.520508	1.35498e-05
4639.52	0.52066	2.45667e-05
4640.42	0.52124	0.000147888
4641.26	0.520782	1.17493e-05
4642.16	0.52066	2.28271e-05
4643.06	0.521667	9.14917e-05
4643.92	-0.697723	-0.0220764
4644.8	0.521027	1.84937e-05
4645.7	0.521545	6.5918e-05
4646.56	-0.697815	-0.017337
4647.44	0.521393	1.54114e-05
4648.34	0.52121	5.43518e-05
4649.22	-0.000115967	0.00473877
4650.08	0.521301	1.33667e-05
4650.98	0.521149	4.45862e-05
4651.86	0.00055542	0.00353607
4652.72	0.52121	1.27258e-05
4653.62	0.520996	3.93677e-05
4654.52	0.519867	0.01521
4655.36	0.520599	1.79749e-05
4656.26	0.521057	3.49426e-05
4657.16	0.521149	0.0109833
4658	0.520966	1.36414e-05
4658.9	0.521576	2.58484e-05
4659.8	0.520508	0.00564728
4660.64	0.521729	7.78198e-06
4661.54	0.520721	2.81067e-05
4662.44	0.520844	0.00078186
4663.28	0.520691	1.37634e-05
4664.18	0.521088	2.24609e-05
4665.08	0.520569	0.000296875
4665.92	0.521729	5.70679e-06
4666.82	0.521667	1.8158e-05
4667.72	0.521698	0.000148224
4668.56	0.521515	6.62231e-06
4669.46	0.52066	2.27356e-05
4670.36	0.521454	9.44214e-05
4671.22	-0.698608	-0.0220947
4672.1	0.520691	2.14844e-05
4673	0.520691	7.19604e-05
4673.86	-0.698914	-0.0173706
4674.74	0.521698	1.19019e-05
4675.64	0.52124	5.31006e-05
4676.52	0.000616455	0.00470398
4677.38	0.520996	1.53809e-05
4678.28	0.521149	4.55627e-05
4679.16	-7.32422e-05	0.00351959
4680.02	0.520935	1.53198e-05
4680.92	0.521423	3.57056e-05
4681.82	0.520111	0.015213
4682.66	0.521179	1.34888e-05
4683.56	0.520874	3.26538e-05
4684.46	0.520721	0.0110077
4685.3	0.520813	1.39771e-05
4686.2	0.521057	2.92969e-05
4687.1	0.520996	0.00575897
4687.94	0.52121	1.15967e-05
4688.84	0.521454	2.14539e-05
4689.74	0.521118	0.000794067
4690.58	0.520966	1.0498e-05
4691.48	0.52066	2.60925e-05
4692.38	0.520599	0.000302856
4693.22	0.521698	6.98853e-06
4694.12	0.521698	1.85547e-05
4695.02	0.52063	0.000155487
4695.86	0.521423	7.1106e-06
4696.76	0.521484	1.74866e-05
4697.66	0.521729	9.28345e-05
4698.52	-0.697815	-0.0221252
4699.4	0.520752	2.04773e-05
4700.3	0.520508	7.27539e-05
4701.16	-0.697906	-0.0174072
4702.04	0.520721	1.66321e-05
4702.94	0.520691	5.72815e-05
4703.82	-0.000357056	0.00468475
4704.68	0.520935	1.63574e-05
4705.58	0.52063	4.75159e-05
4706.46	0.000341797	0.00349335
4707.32	0.521637	1.19019e-05
4708.22	0.521057	3.80249e-05
4709.12	0.520111	0.0152008
4709.96	0.521515	1.11389e-05
4710.86	0.521515	3.125E-05
4711.76	0.520172	0.0110229
4712.6	0.521454	1.05591e-05
4713.5	0.521393	2.75879e-05
4714.4	0.520477	0.00588562
4715.24	0.52066	1.50452e-05
4716.14	0.521606	2.31934e-05
4717.04	0.521698	0.000810242
4717.88	0.521515	8.57544e-06
4718.78	0.520599	2.59399e-05
4719.68	0.521759	0.000301666
4720.52	0.521179	1.07727e-05
4721.42	0.521484	1.89819e-05
4722.32	0.52182	0.000152588
4723.16	0.521698	5.52368e-06
4724.06	0.52182	1.55945e-05
4724.96	0.521149	9.71985e-05
4725.82	-0.697632	-0.0221344
4726.7	0.521576	1.51367e-05
4727.6	0.521057	7.13196e-05
4728.46	-0.69809	-0.0174347
4729.34	0.521759	1.20239e-05
4730.24	0.52066	5.82886e-05
4731.12	0.000393677	0.00464996
4731.98	0.521515	1.32446e-05
4732.88	0.520782	4.70581e-05
4733.76	0.000567627	0.00346405
4734.62	0.521729	1.0376e-05
4735.52	0.521576	3.52783e-05
4736.42	0.520721	0.0151886
4737.26	0.52124	1.22375e-05
4738.16	0.521332	3.25012e-05
4739.06	0.520874	0.0110321
4739.9	0.520691	1.53198e-05
4740.8	0.52066	2.97241e-05
4741.7	0.52121	0.00598633
4742.54	0.52179	7.78198e-06
4743.44	0.520599	2.9541e-05
4744.34	0.521423	0.000830688
4745.18	0.521545	8.42285e-06
4746.08	0.52121	2.5116e-05
4746.98	0.520721	0.000313293
4747.82	0.52066	1.48315e-05
4748.72	0.521576	1.9104e-05
4749.62	0.521332	0.000154724
4750.46	0.521576	6.98853e-06
4751.36	0.520905	2.07825e-05
4752.26	0.520752	0.000100647
4753.12	-0.698547	-0.0221527
4754	0.520966	1.97754e-05
4754.9	0.521637	6.72913e-05
4755.76	-0.697754	-0.0174713
4756.64	0.521271	1.63574e-05
4757.54	0.521606	5.02014e-05
4758.42	-0.000262451	0.00462341
4759.28	0.521576	1.25122e-05
4760.18	0.521027	4.53186e-05
4761.06	0.000585937	0.00344482
4761.92	0.521057	1.40381e-05
4762.82	0.521393	3.75061e-05
4763.72	0.519836	0.0151978
4764.56	0.521576	1.24207e-05
4765.46	0.521301	3.28369e-05
4766.36	0.521027	0.0110443
4767.2	0.521057	1.35498e-05
4768.1	0.521088	3.04871e-05
4769	0.521576	0.00608521
4769.84	0.520782	1.52893e-05
4770.74	0.521271	2.45667e-05
4771.64	0.520599	0.000852661
4772.48	0.520569	1.41296e-05
4773.38	0.520905	2.53296e-05
4774.28	0.521667	0.000313049
4775.12	0.521576	7.35474e-06
4776.02	0.521698	1.8219e-05
4776.92	0.521667	0.000156616
4777.76	0.520935	1.14136e-05
4778.66	0.521179	1.94092e-05
4779.56	0.520538	0.00010257
4780.42	-0.697632	-0.0221741
4781.3	0.521606	1.67542e-05
4782.2	0.520721	7.2998e-05
4783.06	-0.6987	-0.0175049
4783.94	0.521332	1.62964e-05
4784.84	0.521027	5.44739e-05
4785.72	-0.000271606	0.00459412
4786.58	0.520569	1.80969e-05
4787.48	0.521088	4.64783e-05
4788.36	7.01904e-05	0.00342194
4789.22	0.52121	1.36719e-05
4790.12	0.521301	3.66516e-05
4791.02	0.520874	0.0151794
4791.86	0.521088	1.43127e-05
4792.76	0.52063	3.66516e-05
4793.66	0.52066	0.0110748
4794.5	0.520905	1.46179e-05
4795.4	0.521637	2.72522e-05
4796.3	0.52066	0.00619873
4797.14	0.520966	1.33057e-05
4798.04	0.520599	2.91443e-05
4798.94	0.521606	0.000865173
4799.78	0.521393	9.91821e-06
4800.68	0.521667	1.96228e-05
4801.58	0.520782	0.000323212
4802.42	0.521454	9.0332e-06
4803.32	0.520599	2.46887e-05
4804.22	0.521423	0.000160645
4805.06	0.520569	1.31836e-05
4805.96	0.521301	1.84326e-05
4806.86	0.52066	0.000104034
4807.72	-0.697937	-0.0221863
4808.6	0.521332	1.61743e-05
4809.5	0.521118	7.06787e-05
4810.36	-0.697876	-0.0175476
4811.24	0.521667	1.22986e-05
4812.14	0.521698	5.14221e-05
4813.02	0.000369263	0.00456451
4813.88	0.521576	1.39465e-05
4814.78	0.521057	4.58679e-05
4815.66	-0.000314331	0.00340302
4816.52	0.520691	1.7395e-05
4817.42	0.520782	4.00391e-05
4818.32	0.520874	0.0151764
4819.16	0.521484	1.297e-05
4820.06	0.520538	3.64075e-05
4820.96	0.520874	0.0110809
4821.8	0.520966	1.23901e-05
4822.7	0.521667	2.55432e-05
4823.6	0.520447	0.00628723
4824.44	0.52121	1.19019e-05
4825.34	0.521545	2.49023e-05
4826.24	0.520599	0.000892639
4827.08	0.520813	1.16272e-05
4827.98	0.520935	2.4231e-05
4828.88	0.521301	0.000328186
4829.72	0.521576	8.08716e-06
4830.62	0.521637	1.83411e-05
4831.52	0.520782	0.000165833
4832.36	0.521698	6.80542e-06
4833.26	0.521545	1.66626e-05
4834.16	0.520844	0.000103119
4835.02	-0.697388	-0.0222046
4835.9	0.52063	2.09961e-05
4836.8	0.521729	6.82983e-05
4837.66	-0.698853	-0.0175598
4838.54	0.520752	1.89209e-05
4839.44	0.521515	5.27954e-05
4840.32	-0.000363159	0.00454376
4841.18	0.520752	1.75476e-05
4842.08	0.521698	4.14734e-05
4842.96	0.000344849	0.00337769
4843.82	0.521088	1.54419e-05
4844.72	0.521637	3.45154e-05
4845.62	0.520813	0.0151733
4846.46	0.521149	1.34888e-05
4847.36	0.52066	3.57056e-05
4848.26	0.520325	0.0110931
4849.1	0.521759	1.0376e-05
4850	0.521454	2.81372e-05
4850.9	0.521149	0.00634125
4851.74	0.52063	1.54419e-05
4852.64	0.521118	2.59094e-05
4853.54	0.521057	0.000906067
4854.38	0.521027	1.07422e-05
4855.28	0.521393	2.09961e-05
4856.18	0.521027	0.000335388
4857.02	0.521729	7.78198e-06
4857.92	0.520752	2.27356e-05
4858.82	0.520721	0.000170044
4859.66	0.520996	1.12e-05
4860.56	0.520691	2.19421e-05
4861.46	0.521484	0.00010022
4862.32	-0.698486	-0.0222168
4863.2	0.521729	1.47095e-05
4864.1	0.52063	7.5531e-05
4864.96	-0.698029	-0.0175995
4865.84	0.520752	1.93787e-05
4866.74	0.521301	5.56946e-05
4867.62	0.00032959	0.00450897
4868.48	0.520569	1.89209e-05
4869.38	0.520996	4.84924e-05
4870.26	-0.000128174	0.00335815
4871.12	0.521729	1.18103e-05
4872.02	0.521545	3.67126e-05
4872.92	0.519897	0.0151672
4873.76	0.520691	1.66016e-05
4874.66	0.520905	3.53394e-05
4875.56	0.520294	0.0111206
4876.4	0.521423	1.171875E-05
4877.3	0.520721	3.22876e-05
4878.2	0.521454	0.00643066
4879.04	0.521667	8.78906e-06
4879.94	0.520935	2.8656e-05
4880.84	0.521576	0.000922546
4881.68	0.521851	7.47681e-06
4882.58	0.52124	2.33154e-05
4883.48	0.520691	0.000344818
4884.32	0.521179	1.09863e-05
4885.22	0.520691	2.45056e-05
4886.12	0.520874	0.000171234
4886.96	0.520935	1.11389e-05
4887.86	0.521393	1.81274e-05
4888.76	0.520844	0.000105713
4889.62	-0.697815	-0.022229
4890.5	0.520691	2.0813e-05
4891.4	0.521027	7.32117e-05
4892.26	-0.697784	-0.0176239
4893.14	0.521027	1.72119e-05
4894.04	0.520935	5.66101e-05
4894.92	3.05176e-05	0.00448486
4895.78	0.521698	1.11389e-05
4896.68	0.520966	4.83093e-05
4897.56	7.32422e-05	0.00333099
4898.42	0.52179	1.04675e-05
4899.32	0.521515	3.67432e-05
4900.22	0.519775	0.0151672
4901.06	0.520721	1.58081e-05
4901.96	0.52066	3.57971e-05
4902.86	0.521149	0.0111237
4903.7	0.521698	1.05286e-05
4904.6	0.521515	2.70691e-05
4905.5	0.521454	0.00651978
4906.34	0.520691	1.56555e-05
4907.24	0.52063	2.90833e-05
4908.14	0.521118	0.000947266
4908.98	0.521759	7.59888e-06
4909.88	0.520966	2.59705e-05
4910.78	0.520844	0.000351105
4911.62	0.520691	1.29395e-05
4912.52	0.521179	1.98975e-05
4913.42	0.521637	0.000169403
4914.26	0.520996	9.91821e-06
4915.16	0.520691	2.33765e-05
4916.06	0.520691	0.000108154
4916.92	-0.69809	-0.0222473
4917.8	0.52066	1.953125E-05
4918.7	0.521545	6.99768e-05
4919.56	-0.698456	-0.0176575
4920.44	0.521606	1.35803e-05
4921.34	0.521515	5.43213e-05
4922.22	-0.000405884	0.00445496
4923.08	0.521454	1.297e-05
4923.98	0.521088	4.69055e-05
4924.86	0.000140381	0.00330444
4925.72	0.520966	1.33057e-05
4926.62	0.521667	3.5614e-05
4927.52	0.519958	0.0151611
4928.36	0.521301	1.19324e-05
4929.26	0.52182	2.95105e-05
4930.16	0.520935	0.0111481
4931	0.521667	9.49097e-06
4931.9	0.520935	3.12805e-05
4932.8	0.520782	0.00660492
4933.64	0.521667	8.48389e-06
4934.54	0.521454	2.40479e-05
4935.44	0.520538	0.000974426
4936.28	0.521179	1.00403e-05
4937.18	0.521332	2.29187e-05
4938.08	0.52121	0.000354919
4938.92	0.521667	8.17871e-06
4939.82	0.521698	1.7395e-05
4940.72	0.52066	0.00017926
4941.56	0.520905	1.11084e-05
4942.46	0.521484	1.76086e-05
4943.36	0.521667	0.00010321
4944.22	-0.698547	-0.0222717
4945.1	0.521576	1.52283e-05
4946	0.521057	7.39136e-05
4946.86	-0.69873	-0.017688
4947.74	0.520691	1.9104e-05
4948.64	0.521606	5.36499e-05
4949.52	0.000372314	0.00442078
4950.38	0.521149	1.4801e-05
4951.28	0.521637	4.14734e-05
4952.16	-0.000149536	0.00328186
4953.02	0.521515	1.29395e-05
4953.92	0.521484	3.70178e-05
4954.82	0.521027	0.015152
4955.66	0.520874	1.58081e-05
4956.56	0.520874	3.67737e-05
4957.46	0.520721	0.0111633
4958.3	0.52179	8.91113e-06
4959.2	0.521515	2.6825e-05
4960.1	0.52063	0.00668304
4960.94	0.521729	8.66699e-06
4961.84	0.520813	2.98157e-05
4962.74	0.521454	0.000990295
4963.58	0.520599	1.54419e-05
4964.48	0.521301	2.1698e-05
4965.38	0.521729	0.000359253
4966.22	0.520996	1.09863e-05
4967.12	0.521698	1.83411e-05
4968.02	0.521057	0.000179871
4968.86	0.520691	1.43433e-05
4969.76	0.521179	1.93176e-05
4970.66	0.521515	0.00010553
4971.52	-0.697662	-0.0222961
4972.4	0.520752	2.10571e-05
4973.3	0.520935	7.59583e-05
4974.16	-0.697815	-0.0177246
4975.04	0.521637	1.36719e-05
4975.94	0.520996	5.7373e-05
4976.82	0.000567627	0.00438721
4977.68	0.521423	1.39465e-05
4978.58	0.521606	4.35486e-05
4979.46	0.000418091	0.0032608
4980.32	0.521606	1.15662e-05
4981.22	0.521576	3.66211e-05
4982.12	0.520721	0.0151398
4982.96	0.520905	1.46484e-05
4983.86	0.520721	3.63464e-05
4984.76	0.521179	0.0111816
4985.6	0.521393	1.07422e-05
4986.5	0.521484	2.67029e-05
4987.4	0.520447	0.00676147
4988.24	0.520721	1.51062e-05
4989.14	0.520782	3.01514e-05
4990.04	0.520782	0.00101807
4990.88	0.520599	1.4679e-05
4991.78	0.521576	2.12097e-05
4992.68	0.521759	0.000367371
4993.52	0.520813	1.33667e-05
4994.42	0.520813	2.32239e-05
4995.32	0.521301	0.000180634
4996.16	0.521667	6.50024e-06
4997.06	0.52063	2.20642e-05
4997.96	0.521606	0.000107483
4998.82	-0.698303	-0.0223053
4999.7	0.521698	1.6449e-05
5000.6	0.520721	7.82471e-05
5001.46	-0.697784	-0.0177612
5002.34	0.520721	1.9928e-05
5003.24	0.52066	6.12488e-05
5004.12	0.000421143	0.00436066
5004.98	0.520599	1.88904e-05
5005.88	0.521698	4.35791e-05
5006.76	0.00057373	0.00323517
5007.62	0.52063	1.72729e-05
5008.52	0.521515	3.72314e-05
5009.42	0.519928	0.0151581
5010.26	0.520569	1.63269e-05
5011.16	0.521637	3.14026e-05
5012.06	0.520325	0.0112061
5012.9	0.520844	1.41907e-05
5013.8	0.521393	2.73743e-05
5014.7	0.521393	0.00682343
5015.54	0.520996	1.25427e-05
5016.44	0.521729	2.29187e-05
5017.34	0.520599	0.00104248
5018.18	0.520721	1.43738e-05
5019.08	0.521545	2.23694e-05
5019.98	0.521667	0.000372803
5020.82	0.521088	1.01929e-05
5021.72	0.52063	2.55127e-05
5022.62	0.521484	0.000183777
5023.46	0.52066	1.26648e-05
5024.36	0.521088	1.9928e-05
5025.26	0.520752	0.00011319
5026.12	-0.69754	-0.0223175
5027	0.521729	1.51672e-05
5027.9	0.521576	7.34253e-05
5028.76	-0.697784	-0.0177887
5029.64	0.521637	1.35498e-05
5030.54	0.521393	5.59387e-05
5031.42	0.000274658	0.00433411
5032.28	0.52063	1.93176e-05
5033.18	0.520599	4.96521e-05
5034.06	-0.000137329	0.00321747
5034.92	0.521362	1.36719e-05
5035.82	0.521271	3.65295e-05
5036.72	0.520813	0.0151459
5037.56	0.521667	9.85718e-06
5038.46	0.521179	3.44238e-05
5039.36	0.520325	0.0112122
5040.2	0.52063	1.52283e-05
5041.1	0.52063	3.32031e-05
5042	0.520782	0.00687408
5042.84	0.520874	1.50452e-05
5043.74	0.521362	2.54517e-05
5044.64	0.521545	0.00105255
5045.48	0.521179	1.03455e-05
5046.38	0.521484	2.06299e-05
5047.28	0.52066	0.000384705
5048.12	0.521698	9.61304e-06
5049.02	0.520691	2.41394e-05
5049.92	0.521606	0.000184235
5050.76	0.520782	1.26038e-05
5051.66	0.52121	1.81274e-05
5052.56	0.520691	0.000114166
5053.42	-0.697479	-0.0223236
5054.3	0.521088	1.87988e-05
5055.2	0.52066	7.92236e-05
5056.06	-0.698578	-0.0177979
5056.94	0.521484	1.58081e-05
5057.84	0.521149	5.78003e-05
5058.72	0.000164795	0.00431458
5059.58	0.521271	1.54724e-05
5060.48	0.521057	4.72412e-05
5061.36	-0.000299072	0.00320099
5062.22	0.521332	1.33362e-05
5063.12	0.521698	3.60107e-05
5064.02	0.520782	0.0151489
5064.86	0.521088	1.32141e-05
5065.76	0.52063	3.71094e-05
5066.66	0.520477	0.0112122
5067.5	0.520813	1.48621e-05
5068.4	0.520905	3.14941e-05
5069.3	0.521423	0.00691437
5070.14	0.520874	1.3092e-05
5071.04	0.521637	2.43225e-05
5071.94	0.521606	0.00107117
5072.78	0.520691	1.50452e-05
5073.68	0.521729	2.02942e-05
5074.58	0.52066	0.000391296
5075.42	0.52063	1.39465e-05
5076.32	0.520721	2.52686e-05
5077.22	0.520569	0.000195221
5078.06	0.52063	1.33667e-05
5078.96	0.521759	1.6571e-05
5079.86	0.520905	0.00011441
5080.72	-0.698456	-0.0223297
5081.6	0.521637	1.43127e-05
5082.5	0.521301	7.56226e-05
5083.36	-0.698822	-0.0178253
5084.24	0.520477	2.05383e-05
5085.14	0.520721	6.21033e-05
5086.02	-0.000363159	0.0042926
5086.88	0.520966	1.64795e-05
5087.78	0.520599	4.96521e-05
5088.66	0.000683594	0.00316986
5089.52	0.521362	1.49841e-05
5090.42	0.520935	4.09851e-05
5091.32	0.52066	0.0151489
5092.16	0.521698	1.07117e-05
5093.06	0.520691	3.81775e-05
5093.96	0.520782	0.0112305
5094.8	0.521637	1.01318e-05
5095.7	0.521149	2.96326e-05
5096.6	0.52124	0.00698425
5097.44	0.520966	1.16272e-05
5098.34	0.52124	2.87476e-05
5099.24	0.52063	0.00110474
5100.08	0.52124	8.75854e-06
5100.98	0.521454	2.15759e-05
5101.88	0.520935	0.000398346
5102.72	0.521149	1.17798e-05
5103.62	0.521606	1.80054e-05
5104.52	0.520721	0.000195984
5105.36	0.521759	6.01196e-06
5106.26	0.521729	1.58691e-05
5107.16	0.521362	0.000113251
5108.02	-0.698608	-0.0223572
5108.9	0.520874	2.05994e-05
5109.8	0.520752	8.078e-05
5110.66	-0.697937	-0.0178619
5111.54	0.520935	1.84631e-05
5112.44	0.520844	6.08826e-05
5113.32	0.000595093	0.00425507
5114.18	0.521515	1.33057e-05
5115.08	0.521393	4.63562e-05
5115.96	-0.00012207	0.00314545
5116.82	0.521454	1.18408e-05
5117.72	0.521667	3.70483e-05
5118.62	0.520935	0.0151337
5119.46	0.520691	1.61438e-05
5120.36	0.521667	3.15552e-05
5121.26	0.521149	0.0112518
5122.1	0.52121	1.25427e-05
5123	0.520844	3.17993e-05
5123.9	0.520691	0.00705109
5124.74	0.521088	1.22986e-05
5125.64	0.52124	2.57263e-05
5126.54	0.520752	0.00112549
5127.38	0.521088	1.10168e-05
5128.28	0.521759	2.14233e-05
5129.18	0.520752	0.000406921
5130.02	0.521271	1.07727e-05
5130.92	0.520996	2.19421e-05
5131.82	0.521149	0.000197693
5132.66	0.521484	8.05664e-06
5133.56	0.521118	1.91956e-05
5134.46	0.521362	0.000115082
5135.32	-0.697479	-0.0223877
5136.2	0.52066	2.13623e-05
5137.1	0.521576	7.72095e-05
5137.96	-0.698303	-0.0179047
5138.84	0.52066	1.98975e-05
5139.74	0.520966	6.13403e-05
5140.62	0.000494385	0.00422821
5141.48	0.521698	1.23901e-05
5142.38	0.521271	4.69971e-05
5143.26	0.000402832	0.00312347
5144.12	0.520691	1.67236e-05
5145.02	0.521698	3.70483e-05
5145.92	0.520721	0.0151276
5146.76	0.521484	1.21765e-05
5147.66	0.521118	3.46069e-05
5148.56	0.521149	0.0112579
5149.4	0.521118	1.24817e-05
5150.3	0.521729	2.71912e-05
5151.2	0.520416	0.00711609
5152.04	0.520782	1.47095e-05
5152.94	0.520844	2.96631e-05
5153.84	0.521088	0.00114868
5154.68	0.521729	7.96509e-06
5155.58	0.520844	2.52991e-05
5156.48	0.52063	0.000415253
5157.32	0.521637	7.08008e-06
5158.22	0.52063	2.57568e-05
5159.12	0.521759	0.000195892
5159.96	0.520996	1.14441e-05
5160.86	0.521332	1.95007e-05
5161.76	0.521545	0.000114349
5162.62	-0.697479	-0.0224091
5163.5	0.521667	1.49536e-05
5164.4	0.520599	8.30688e-05
5165.26	-0.69809	-0.0179443
5166.14	0.521027	1.86768e-05
5167.04	0.521057	6.13098e-05
5167.92	-0.00020752	0.00420074
5168.78	0.521667	1.25122e-05
5169.68	0.52121	4.95911e-05
5170.56	-0.000292969	0.00310455
5171.42	0.52063	1.83411e-05
5172.32	0.520813	4.24194e-05
5173.22	0.520203	0.0151367
5174.06	0.521637	1.00098e-05
5174.96	0.52066	3.95813e-05
5175.86	0.521179	0.0112671
5176.7	0.521576	9.67407e-06
5177.6	0.521484	2.87781e-05
5178.5	0.521606	0.00716003
5179.34	0.521332	1.08032e-05
5180.24	0.520782	2.7832e-05
5181.14	0.520966	0.00117676
5181.98	0.520752	1.297e-05
5182.88	0.521088	2.49634e-05
5183.78	0.520996	0.000421204
5184.62	0.521729	6.74438e-06
5185.52	0.521667	1.81885e-05
5186.42	0.521545	0.000200562
5187.26	0.521088	1.0437e-05
5188.16	0.521698	1.67847e-05
5189.06	0.520599	0.000121918
5189.92	-0.697449	-0.0224304
5190.8	0.52179	1.50757e-05
5191.7	0.520721	8.22144e-05
5192.56	-0.698669	-0.0179749
5193.44	0.520966	1.85852e-05
5194.34	0.521179	6.14319e-05
5195.22	0.000469971	0.00417175
5196.08	0.521759	1.23291e-05
5196.98	0.521057	4.88281e-05
5197.86	0.000119019	0.00308563
5198.72	0.521729	1.20544e-05
5199.62	0.520905	3.98865e-05
5200.52	0.520874	0.0151215
5201.36	0.521515	1.0437e-05
5202.26	0.520782	3.80859e-05
5203.16	0.520355	0.0112915
5204	0.521576	1.05286e-05
5204.9	0.52182	2.73132e-05
5205.8	0.521454	0.00722443
5206.64	0.521027	1.1261e-05
5207.54	0.520874	3.05481e-05
5208.44	0.520996	0.00120239
5209.28	0.521271	1.22986e-05
5210.18	0.521606	2.17285e-05
5211.08	0.52066	0.000431
5211.92	0.520996	1.08948e-05
5212.82	0.520691	2.59705e-05
5213.72	0.520599	0.000210236
5214.56	0.52063	1.25122e-05
5215.46	0.521606	1.87988e-05
5216.36	0.52063	0.000122406
5217.22	-0.698456	-0.022464
5218.1	0.521301	1.87683e-05
5219	0.521698	7.59888e-05
5219.86	-0.697876	-0.0180359
5220.74	0.520874	2.04773e-05
5221.64	0.520996	6.02722e-05
5222.52	0.000363159	0.0041452
5223.38	0.520782	1.79138e-05
5224.28	0.520569	5.18799e-05
5225.16	4.88281e-05	0.00306763
5226.02	0.520782	1.57776e-05
5226.92	0.520691	4.46472e-05
5227.82	0.520813	0.0151398
5228.66	0.52063	1.68152e-05
5229.56	0.521606	3.16467e-05
5230.46	0.520111	0.0113129
5231.3	0.520935	1.20544e-05
5232.2	0.521667	2.74353e-05
5233.1	0.521362	0.00728485
5233.94	0.521698	7.99561e-06
5234.84	0.521423	2.44751e-05
5235.74	0.521118	0.00123077
5236.58	0.520752	1.45264e-05
5237.48	0.521271	2.49634e-05
5238.38	0.52179	0.000430267
5239.22	0.520752	1.31836e-05
5240.12	0.521759	2.00806e-05
5241.02	0.521271	0.000209229
5241.86	0.521759	5.98145e-06
5242.76	0.52063	2.38037e-05
5243.66	0.521301	0.000118134
5244.52	-0.697571	-0.0224823
5245.4	0.520691	2.23083e-05
5246.3	0.521545	7.86133e-05
5247.16	-0.698334	-0.0180603
5248.04	0.520752	2.09351e-05
5248.94	0.52179	5.65796e-05
5249.82	-0.00039978	0.00411896
5250.68	0.520813	1.81274e-05
5251.58	0.521057	4.83398e-05
5252.46	0.00032959	0.00303955
5253.32	0.52063	1.79138e-05
5254.22	0.52121	4.21448e-05
5255.12	0.520203	0.0151367
5255.96	0.52066	1.79443e-05
5256.86	0.52066	3.84521e-05
5257.76	0.521118	0.0113159
5258.6	0.521729	1.00403e-05
5259.5	0.520844	3.40881e-05
5260.4	0.521118	0.0073288
5261.24	0.521057	1.24512e-05
5262.14	0.521667	2.32544e-05
5263.04	0.52066	0.00126038
5263.88	0.521362	9.39941e-06
5264.78	0.521576	2.29492e-05
5265.68	0.521606	0.000439026
5266.52	0.521729	6.7749e-06
5267.42	0.52063	2.47498e-05
5268.32	0.520569	0.000215881
5269.16	0.520691	1.23901e-05
5270.06	0.521667	1.70288e-05
5270.96	0.52124	0.000122009
5271.82	-0.698273	-0.0224915
5272.7	0.520966	1.95923e-05
5273.6	0.520935	8.1665e-05
5274.46	-0.698273	-0.0180908
5275.34	0.52063	2.12402e-05
5276.24	0.520935	6.12793e-05
5277.12	0.000622559	0.00408875
5277.98	0.521271	1.52588e-05
5278.88	0.521576	4.75769e-05
5279.76	0.000308228	0.00301819
5280.62	0.520996	1.69373e-05
5281.52	0.520874	4.2511e-05
5282.42	0.520386	0.0151123
5283.26	0.521698	1.04675e-05
5284.16	0.52063	3.77502e-05
5285.06	0.52121	0.011319
5285.9	0.521088	1.33667e-05
5286.8	0.521667	2.73132e-05
5287.7	0.52066	0.00737885
5288.54	0.521545	9.52148e-06
5289.44	0.521667	2.37732e-05
5290.34	0.521667	0.0012793
5291.18	0.521027	1.21765e-05
5292.08	0.521667	2.14233e-05
5292.98	0.521698	0.000448181
5293.82	0.521454	8.39233e-06
5294.72	0.521515	2.04468e-05
5295.62	0.521667	0.000213593
5296.46	0.520905	1.23291e-05
5297.36	0.521454	1.87683e-05
5298.26	0.521576	0.000123413
5299.12	-0.69754	-0.0225067
5300	0.520691	2.26746e-05
5300.9	0.520813	8.45337e-05
5301.76	-0.698639	-0.0181091
5302.64	0.521454	1.66931e-05
5303.54	0.52179	5.76782e-05
5304.42	0.000689697	0.00406403
5305.28	0.52121	1.55029e-05
5306.18	0.520813	5.10864e-05
5307.06	-0.000134277	0.0030011
5307.92	0.521698	1.21155e-05
5308.82	0.52063	4.422e-05
5309.72	0.520203	0.0151276
5310.56	0.52121	1.42517e-05
5311.46	0.520599	3.86047e-05
5312.36	0.52124	0.0113434
5313.2	0.520874	1.60217e-05
5314.1	0.520905	3.20129e-05
5315	0.520416	0.00742493
5315.84	0.520691	1.50757e-05
5316.74	0.521667	2.37122e-05
5317.64	0.520844	0.00131348
5318.48	0.520691	1.45874e-05
5319.38	0.521729	2.13318e-05
5320.28	0.520844	0.000460846
5321.12	0.521698	7.69043e-06
5322.02	0.521729	1.88293e-05
5322.92	0.521637	0.000216705
5323.76	0.521179	1.08032e-05
5324.66	0.521698	1.64185e-05
5325.56	0.52066	0.000128998
5326.42	-0.698212	-0.0225189
5327.3	0.521454	1.5686e-05
5328.2	0.521027	8.41064e-05
5329.06	-0.697754	-0.0181488
5329.94	0.521362	1.59607e-05
5330.84	0.520813	6.43005e-05
5331.72	0.000296021	0.00403748
5332.58	0.521729	1.31226e-05
5333.48	0.520721	5.13306e-05
5334.36	0.000799561	0.0029718
5335.22	0.520782	1.76086e-05
5336.12	0.521667	3.79944e-05
5337.02	0.520477	0.0151215
5337.86	0.520935	1.44043e-05
5338.76	0.520813	3.74146e-05
5339.66	0.521118	0.0113525
5340.5	0.520935	1.37024e-05
5341.4	0.520996	3.21655e-05
5342.3	0.52124	0.00747528
5343.14	0.521454	1.18408e-05
5344.04	0.52124	2.81677e-05
5344.94	0.520844	0.00134247
5345.78	0.521484	9.21631e-06
5346.68	0.521423	2.31018e-05
5347.58	0.52063	0.000468842
5348.42	0.52182	6.65283e-06
5349.32	0.52066	2.52075e-05
5350.22	0.52066	0.000226929
5351.06	0.521423	8.91113e-06
5351.96	0.521271	2.05688e-05
5352.86	0.520935	0.000129272
5353.72	-0.69751	-0.0225433
5354.6	0.521362	1.78833e-05
5355.5	0.52063	8.69751e-05
5356.36	-0.698547	-0.0181671
5357.24	0.52179	1.33667e-05
5358.14	0.520813	6.46362e-05
5359.02	0.000668335	0.0040097
5359.88	0.520782	1.94092e-05
5360.78	0.521515	4.75464e-05
5361.66	0.000686646	0.00295227
5362.52	0.520599	1.78528e-05
5363.42	0.521332	3.97949e-05
5364.32	0.519806	0.0151184
5365.16	0.521637	1.06201e-05
5366.06	0.521729	3.25317e-05
5366.96	0.520142	0.011377
5367.8	0.521667	1.03149e-05
5368.7	0.52063	3.39966e-05
5369.6	0.520477	0.00752258
5370.44	0.521484	1.05286e-05
5371.34	0.521637	2.56653e-05
5372.24	0.520691	0.00137329
5373.08	0.520569	1.56555e-05
5373.98	0.521149	2.45056e-05
5374.88	0.521118	0.000474213
5375.72	0.52066	1.33972e-05
5376.62	0.521149	2.0874e-05
5377.52	0.520905	0.000230682
5378.36	0.521759	6.83594e-06
5379.26	0.520844	2.1698e-05
5380.16	0.520844	0.000133972
5381.02	-0.698486	-0.0225494
5381.9	0.52063	2.21252e-05
5382.8	0.521271	8.41064e-05
5383.66	-0.697998	-0.0182098
5384.54	0.521545	1.4679e-05
5385.44	0.521637	6.11572e-05
5386.32	-9.15527e-06	0.00398804
5387.18	0.521606	1.43738e-05
5388.08	0.520844	5.00793e-05
5388.96	7.62939e-05	0.00293457
5389.82	0.520691	1.86768e-05
5390.72	0.521484	3.84521e-05
5391.62	0.520081	0.0151123
5392.46	0.521027	1.3916e-05
5393.36	0.52124	3.41492e-05
5394.26	0.52002	0.0113831
5395.1	0.521698	9.52148e-06
5396	0.521484	2.85034e-05
5396.9	0.52124	0.00757446
5397.74	0.520996	1.29089e-05
5398.64	0.521393	2.62451e-05
5399.54	0.521454	0.00140045
5400.38	0.521606	9.70459e-06
5401.28	0.520905	2.59705e-05
5402.18	0.520874	0.00048642
5403.02	0.52124	1.04675e-05
5403.92	0.520874	2.37427e-05
5404.82	0.521698	0.000228912
5405.66	0.521088	1.05896e-05
5406.56	0.521027	2.04468e-05
5407.46	0.52063	0.000134857
5408.32	-0.697968	-0.0225739
5409.2	0.521576	1.61438e-05
5410.1	0.521088	8.66089e-05
5410.96	-0.69809	-0.0182251
5411.84	0.521088	1.82495e-05
5412.74	0.52121	6.20728e-05
5413.62	2.13623e-05	0.00395966
5414.48	0.52121	1.67236e-05
5415.38	0.520691	5.22156e-05
5416.26	-0.000259399	0.00291382
5417.12	0.520752	1.75781e-05
5418.02	0.52121	4.05273e-05
5418.92	0.519867	0.0151093
5419.76	0.521454	1.08337e-05
5420.66	0.521271	3.43628e-05
5421.56	0.520752	0.0113953
5422.4	0.52121	1.29089e-05
5423.3	0.521057	3.0304e-05
5424.2	0.520386	0.00760803
5425.04	0.520752	1.59607e-05
5425.94	0.521667	2.37427e-05
5426.84	0.521454	0.00142639
5427.68	0.521729	8.42285e-06
5428.58	0.521759	2.09351e-05
5429.48	0.520813	0.000494385
5430.32	0.520844	1.44958e-05
5431.22	0.520752	2.58789e-05
5432.12	0.521454	0.000232056
5432.96	0.520874	1.19629e-05
5433.86	0.521759	1.65405e-05
5434.76	0.52124	0.000132477
5435.62	-0.698395	-0.02258
5436.5	0.521729	1.51367e-05
5437.4	0.521301	8.78296e-05
5438.26	-0.698181	-0.0182556
5439.14	0.520844	1.80054e-05
5440.04	0.521484	6.26526e-05
5440.92	0.000466919	0.00392487
5441.78	0.52066	1.91956e-05
5442.68	0.520599	5.35889e-05
5443.56	-0.0003479	0.00289001
5444.42	0.521698	1.12305e-05
5445.32	0.521667	3.79028e-05
5446.22	0.519836	0.015097
5447.06	0.521179	1.41602e-05
5447.96	0.521606	3.28369e-05
5448.86	0.521088	0.0114014
5449.7	0.521606	1.08643e-05
5450.6	0.520844	3.39661e-05
5451.5	0.520996	0.00765381
5452.34	0.52063	1.59302e-05
5452.48	0.521454	8.45337e-06