File: Edgar/20240522/20240522/electrodeposition_pulsed_potential_20240522_A/pulses_2000_to_3000.txt
Time (s)	WE(1).Potential (V)	WE(1).Current (A)
2829.38	-0.697632	-0.0202881
2830.26	0.521057	1.03149e-05
2831.16	0.521393	3.84827e-05
2832.02	-0.6987	-0.0148285
2832.9	0.521637	5.98145e-06
2833.8	0.520782	3.38135e-05
2834.68	1.52588e-05	0.00653595
2835.54	0.520813	1.09253e-05
2836.44	0.520782	2.99683e-05
2837.32	0.000665283	0.00482758
2838.18	0.520813	1.05591e-05
2839.08	0.520752	2.62146e-05
2839.98	0.520569	0.0148651
2840.82	0.520874	9.52148e-06
2841.72	0.521637	1.6571e-05
2842.62	0.520233	0.00812988
2843.46	0.52066	1.10779e-05
2844.36	0.520691	2.10266e-05
2845.26	0.520569	0.000644836
2846.1	0.52182	2.2583e-06
2847	0.521027	1.74561e-05
2847.9	0.520721	0.000222137
2848.74	0.521545	4.54712e-06
2849.64	0.521667	1.09558e-05
2850.54	0.52179	0.000113617
2851.38	0.520782	9.46045e-06
2852.28	0.521515	1.18408e-05
2853.18	0.521667	7.19604e-05
2854.02	0.521027	7.84302e-06
2854.92	0.521332	1.10168e-05
2855.82	0.521515	5.24292e-05
2856.68	-0.697784	-0.0203674
2857.56	0.521637	7.90405e-06
2858.46	0.520691	4.47083e-05
2859.32	-0.699036	-0.0148376
2860.2	0.520691	1.28174e-05
2861.1	0.521179	3.25623e-05
2861.98	3.05176e-06	0.00655121
2862.84	0.521179	7.44629e-06
2863.74	0.521606	2.52991e-05
2864.62	-0.000299072	0.00484955
2865.48	0.52063	1.24817e-05
2866.38	0.521637	2.16064e-05
2867.28	0.520172	0.0149139
2868.12	0.521729	4.76074e-06
2869.02	0.521667	1.73035e-05
2869.92	0.521362	0.00825806
2870.76	0.52063	9.97925e-06
2871.66	0.521088	1.75781e-05
2872.56	0.520782	0.000663757
2873.4	0.520569	1.14746e-05
2874.3	0.52124	1.55334e-05
2875.2	0.520935	0.00022467
2876.04	0.520782	8.81958e-06
2876.94	0.520844	1.71814e-05
2877.84	0.520599	0.000123444
2878.68	0.520569	8.63647e-06
2879.58	0.520844	1.75171e-05
2880.48	0.521179	7.64465e-05
2881.32	0.520782	6.62231e-06
2882.22	0.521088	1.26953e-05
2883.12	0.521576	5.22461e-05
2883.98	-0.697845	-0.0204041
2884.86	0.52063	1.45874e-05
2885.76	0.520721	4.55933e-05
2886.62	-0.69812	-0.0148865
2887.5	0.520599	1.3855e-05
2888.4	0.521149	3.41187e-05
2889.28	-0.000549316	0.00653198
2890.14	0.520813	1.01624e-05
2891.04	0.521576	2.64282e-05
2891.92	-0.00032959	0.00485474
2892.78	0.521759	5.12695e-06
2893.68	0.520782	2.75269e-05
2894.58	0.521118	0.0149963
2895.42	0.521637	5.43213e-06
2896.32	0.52121	2.29492e-05
2897.22	0.520355	0.00836792
2898.06	0.520721	9.42993e-06
2898.96	0.521667	1.43433e-05
2899.86	0.520599	0.000681763
2900.7	0.521179	6.43921e-06
2901.6	0.521423	1.44348e-05
2902.5	0.52124	0.000225128
2903.34	0.521118	7.04956e-06
2904.24	0.521667	1.10168e-05
2905.14	0.521637	0.000117493
2905.98	0.520966	7.26318e-06
2906.88	0.521545	1.28479e-05
2907.78	0.521118	7.73926e-05
2908.62	0.521637	2.86865e-06
2909.52	0.521484	1.03149e-05
2910.42	0.521088	5.63354e-05
2911.28	-0.698181	-0.0204498
2912.16	0.521545	8.20923e-06
2913.06	0.520599	4.72107e-05
2913.92	-0.699036	-0.0149292
2914.8	0.521698	8.02612e-06
2915.7	0.521698	3.21045e-05
2916.58	3.05176e-06	0.00649811
2917.44	0.521057	9.8877e-06
2918.34	0.521698	2.61841e-05
2919.22	-0.000344849	0.00484253
2920.08	0.520721	1.16272e-05
2920.98	0.52063	2.80457e-05
2921.88	0.520966	0.0149963
2922.72	0.52063	1.171875E-05
2923.62	0.521729	1.77612e-05
2924.52	0.52121	0.00845032
2925.36	0.52124	5.06592e-06
2926.26	0.52066	2.20337e-05
2927.16	0.521698	0.000693665
2928	0.521393	5.24902e-06
2928.9	0.520691	2.01111e-05
2929.8	0.520569	0.000233551
2930.64	0.521667	3.32642e-06
2931.54	0.521759	1.03149e-05
2932.44	0.521088	0.000122559
2933.28	0.52124	5.5542e-06
2934.18	0.52066	1.61133e-05
2935.08	0.52121	7.81555e-05
2935.92	0.520905	7.01904e-06
2936.82	0.520691	1.53198e-05
2937.72	0.52063	6.02112e-05
2938.58	-0.698669	-0.0204926
2939.46	0.520752	1.45874e-05
2940.36	0.520966	4.45862e-05
2941.22	-0.698883	-0.0149811
2942.1	0.521637	7.93457e-06
2943	0.521454	3.31116e-05
2943.88	0.000415039	0.00647827
2944.74	0.520691	1.18713e-05
2945.64	0.521423	2.72217e-05
2946.52	6.40869e-05	0.00483215
2947.38	0.521576	4.3335e-06
2948.28	0.521576	2.41089e-05
2949.18	0.519897	0.0150269
2950.02	0.521088	8.88062e-06
2950.92	0.520966	2.36816e-05
2951.82	0.520355	0.00853882
2952.66	0.52121	6.50024e-06
2953.56	0.52121	1.82495e-05
2954.46	0.52121	0.000717163
2955.3	0.521057	8.11768e-06
2956.2	0.520599	2.05994e-05
2957.1	0.521576	0.000230316
2957.94	0.520721	7.38525e-06
2958.84	0.521667	1.24512e-05
2959.74	0.520599	0.000126526
2960.58	0.521423	4.57764e-06
2961.48	0.521362	1.21155e-05
2962.38	0.520905	8.20618e-05
2963.22	0.521423	4.11987e-06
2964.12	0.521637	9.765625E-06
2965.02	0.520813	5.91431e-05
2965.88	-0.697662	-0.0205322
2966.76	0.520844	1.33362e-05
2967.66	0.521667	4.245e-05
2968.52	-0.698364	-0.0150177
2969.4	0.521729	6.7749e-06
2970.3	0.521729	3.24097e-05
2971.18	0.00017395	0.00644623
2972.04	0.521027	1.05896e-05
2972.94	0.521515	2.88696e-05
2973.82	0.000665283	0.00480469
2974.68	0.521545	5.31006e-06
2975.58	0.520966	2.76794e-05
2976.48	0.521057	0.0150299
2977.32	0.520691	1.27869e-05
2978.22	0.520782	2.49634e-05
2979.12	0.520325	0.00860596
2979.96	0.521393	4.76074e-06
2980.86	0.52124	1.72729e-05
2981.76	0.520844	0.000733032
2982.6	0.521423	5.43213e-06
2983.5	0.520966	1.88904e-05
2984.4	0.521729	0.000233521
2985.24	0.520599	1.06506e-05
2986.14	0.521576	1.34583e-05
2987.04	0.520691	0.000127625
2987.88	0.520752	8.60596e-06
2988.78	0.521759	1.0498e-05
2989.68	0.520782	8.16956e-05
2990.52	0.521454	4.36401e-06
2991.42	0.520691	1.68152e-05
2992.32	0.520905	5.95703e-05
2993.18	-0.697632	-0.0205566
2994.06	0.521301	1.171875E-05
2994.96	0.521545	4.14429e-05
2995.82	-0.698029	-0.0150482
2996.7	0.521698	8.36182e-06
2997.6	0.520599	4.01001e-05
2998.48	0.000390625	0.00642639
2999.34	0.521423	6.22559e-06
3000.24	0.521271	2.98462e-05
3001.12	9.15527e-06	0.00480042
3001.98	0.520966	1.01013e-05
3002.88	0.521393	2.41394e-05
3003.78	0.519867	0.0150452
3004.62	0.520752	1.1322e-05
3005.52	0.52066	2.48413e-05
3006.42	0.520447	0.0086731
3007.26	0.521149	8.57544e-06
3008.16	0.521606	1.71204e-05
3009.06	0.520752	0.000753174
3009.9	0.520721	1.03455e-05
3010.8	0.52066	2.12708e-05
3011.7	0.521515	0.00023941
3012.54	0.521362	7.32422e-06
3013.44	0.521301	1.51672e-05
3014.34	0.520935	0.000127777
3015.18	0.521393	4.3335e-06
3016.08	0.521271	1.57166e-05
3016.98	0.521179	8.01392e-05
3017.82	0.521118	8.17871e-06
3018.72	0.52066	1.71509e-05
3019.62	0.520844	6.13403e-05
3020.48	-0.697815	-0.0205902
3021.36	0.521729	8.54492e-06
3022.26	0.520569	4.74548e-05
3023.12	-0.699097	-0.0150848
3024	0.521851	8.91113e-06
3024.9	0.521088	3.65601e-05
3025.78	-0.000491333	0.0064032
3026.64	0.520691	1.27563e-05
3027.54	0.521179	3.07922e-05
3028.42	-0.000384521	0.00480255
3029.28	0.520844	1.31226e-05
3030.18	0.52179	2.20337e-05
3031.08	0.520294	0.0151062
3031.92	0.52063	1.32446e-05
3032.82	0.521667	1.85242e-05
3033.72	0.521149	0.00872498
3034.56	0.520844	1.0498e-05
3035.46	0.520691	2.24304e-05
3036.36	0.521637	0.000750427
3037.2	0.521332	7.26318e-06
3038.1	0.521729	1.30005e-05
3039	0.520752	0.000243225
3039.84	0.521729	4.3335e-06
3040.74	0.521027	1.50757e-05
3041.64	0.52121	0.000124664
3042.48	0.520752	9.91821e-06
3043.38	0.521515	1.16272e-05
3044.28	0.520813	8.36182e-05
3045.12	0.52121	5.12695e-06
3046.02	0.521057	1.32141e-05
3046.92	0.521851	5.49011e-05
3047.78	-0.697906	-0.020636
3048.66	0.52063	1.50146e-05
3049.56	0.521698	4.12598e-05
3050.42	-0.698395	-0.015152
3051.3	0.521271	8.75854e-06
3052.2	0.521118	3.74756e-05
3053.08	-0.000265503	0.00638611
3053.94	0.521576	7.8125e-06
3054.84	0.521423	2.91138e-05
3055.72	-0.000286865	0.00478668
3056.58	0.521667	6.31714e-06
3057.48	0.520782	2.72217e-05
3058.38	0.520599	0.0151184
3059.22	0.520721	1.12915e-05
3060.12	0.521393	2.14539e-05
3061.02	0.520691	0.00881042
3061.86	0.520996	9.21631e-06
3062.76	0.521088	2.0752e-05
3063.66	0.520935	0.000779724
3064.5	0.521423	6.53076e-06
3065.4	0.520752	2.11487e-05
3066.3	0.520721	0.000246887
3067.14	0.520721	8.8501e-06
3068.04	0.521576	1.30615e-05
3068.94	0.521637	0.00012442
3069.78	0.521667	4.11987e-06
3070.68	0.521118	1.53503e-05
3071.58	0.521729	7.77283e-05
3072.42	0.521759	3.2959e-06
3073.32	0.521362	1.1322e-05
3074.22	0.520966	5.87463e-05
3075.08	-0.698669	-0.0206879
3075.96	0.520599	1.48926e-05
3076.86	0.521179	4.40063e-05
3077.72	-0.698151	-0.0152039
3078.6	0.521179	1.11084e-05
3079.5	0.521606	3.53394e-05
3080.38	-0.000204468	0.00635193
3081.24	0.521545	8.97217e-06
3082.14	0.520782	3.28979e-05
3083.02	0.000708008	0.00475861
3083.88	0.521606	6.68335e-06
3084.78	0.521729	2.2522e-05
3085.68	0.520447	0.0151428
3086.52	0.52066	1.19934e-05
3087.42	0.520752	2.70996e-05
3088.32	0.520721	0.00888062
3089.16	0.520813	1.13525e-05
3090.06	0.520721	2.23694e-05
3090.96	0.520569	0.000805054
3091.8	0.520691	1.04675e-05
3092.7	0.520538	2.09656e-05
3093.6	0.52066	0.000253052
3094.44	0.521027	7.69043e-06
3095.34	0.521332	1.55334e-05
3096.24	0.520844	0.000130859
3097.08	0.521515	6.50024e-06
3097.98	0.520844	1.58386e-05
3098.88	0.521698	8.09326e-05
3099.72	0.521301	5.70679e-06
3100.62	0.521576	1.08948e-05
3101.52	0.521698	5.74341e-05
3102.38	-0.697723	-0.0207184
3103.26	0.521362	1.18713e-05
3104.16	0.520569	4.99573e-05
3105.02	-0.698944	-0.0152405
3105.9	0.521667	6.40869e-06
3106.8	0.521576	3.42102e-05
3107.68	-6.40869e-05	0.00632629
3108.54	0.521667	7.20215e-06
3109.44	0.52063	3.47595e-05
3110.32	-0.000250244	0.0047464
3111.18	0.521698	5.79834e-06
3112.08	0.521301	2.58179e-05
3112.98	0.520172	0.0151459
3113.82	0.52121	6.83594e-06
3114.72	0.520691	2.52991e-05
3115.62	0.520294	0.00895081
3116.46	0.521729	4.66919e-06
3117.36	0.521637	1.62354e-05
3118.26	0.521698	0.000820923
3119.1	0.52063	1.05896e-05
3120	0.520691	2.33765e-05
3120.9	0.521667	0.000249878
3121.74	0.520569	1.02234e-05
3122.64	0.520813	1.78528e-05
3123.54	0.520782	0.000134064
3124.38	0.521332	7.17163e-06
3125.28	0.521576	1.18103e-05
3126.18	0.520782	8.64563e-05
3127.02	0.520782	7.35474e-06
3127.92	0.521759	1.06506e-05
3128.82	0.521393	5.89905e-05
3129.68	-0.698059	-0.020755
3130.56	0.52063	1.52893e-05
3131.46	0.52121	4.53491e-05
3132.32	-0.698334	-0.0153015
3133.2	0.521149	1.13831e-05
3134.1	0.521271	3.56445e-05
3134.98	0.000149536	0.00628723
3135.84	0.520721	1.18713e-05
3136.74	0.521576	2.93579e-05
3137.62	0.000335693	0.00471863
3138.48	0.520721	1.33667e-05
3139.38	0.520935	2.72827e-05
3140.28	0.519775	0.015152
3141.12	0.521484	7.65991e-06
3142.02	0.520813	2.65808e-05
3142.92	0.520966	0.00900879
3143.76	0.521667	6.13403e-06
3144.66	0.521179	1.99585e-05
3145.56	0.520996	0.000852051
3146.4	0.520935	8.5144e-06
3147.3	0.521729	1.38855e-05
3148.2	0.521149	0.000256378
3149.04	0.52124	6.31714e-06
3149.94	0.520538	1.95007e-05
3150.84	0.520569	0.000137299
3151.68	0.521637	3.96729e-06
3152.58	0.521332	1.44348e-05
3153.48	0.520752	8.77991e-05
3154.32	0.521667	4.24194e-06
3155.22	0.520691	1.66626e-05
3156.12	0.521729	5.7373e-05
3156.98	-0.698303	-0.0207825
3157.86	0.52063	1.62048e-05
3158.76	0.520752	4.96216e-05
3159.62	-0.698242	-0.0153259
3160.5	0.521698	7.08008e-06
3161.4	0.520752	3.97339e-05
3162.28	-0.000341797	0.00626068
3163.14	0.521698	6.2561e-06
3164.04	0.521729	2.90527e-05
3164.92	0.000216675	0.0046991
3165.78	0.520813	1.1261e-05
3166.68	0.52066	3.15857e-05
3167.58	0.520142	0.015152
3168.42	0.521729	4.69971e-06
3169.32	0.521759	2.01416e-05
3170.22	0.520294	0.00908813
3171.06	0.521576	5.52368e-06
3171.96	0.520691	2.32544e-05
3172.86	0.521149	0.00087738
3173.7	0.521088	7.50732e-06
3174.6	0.52066	2.21252e-05
3175.5	0.52066	0.00026532
3176.34	0.521271	5.79834e-06
3177.24	0.521088	1.7334e-05
3178.14	0.521484	0.000132599
3178.98	0.521637	2.50244e-06
3179.88	0.521667	1.28479e-05
3180.78	0.520905	8.81653e-05
3181.62	0.520844	8.94165e-06
3182.52	0.521576	1.09253e-05
3183.42	0.520752	6.41479e-05
3184.28	-0.698639	-0.0208252
3185.16	0.521149	1.297e-05
3186.06	0.521545	4.54407e-05
3186.92	-0.69809	-0.0153656
3187.8	0.521667	6.86646e-06
3188.7	0.52063	4.07104e-05
3189.58	-0.000219727	0.00622894
3190.44	0.521576	9.765625E-06
3191.34	0.520752	3.58276e-05
3192.22	0.000534058	0.00468109
3193.08	0.521454	7.62939e-06
3193.98	0.521454	2.43835e-05
3194.88	0.520264	0.0151581
3195.72	0.520599	1.21155e-05
3196.62	0.521759	2.23694e-05
3197.52	0.520416	0.00915222
3198.36	0.520599	1.08948e-05
3199.26	0.521362	1.97144e-05
3200.16	0.521332	0.000896912
3201	0.521484	5.82886e-06
3201.9	0.521179	1.80359e-05
3202.8	0.521759	0.000261261
3203.64	0.521576	4.57764e-06
3204.54	0.521545	1.3092e-05
3205.44	0.520966	0.000138428
3206.28	0.521088	7.99561e-06
3207.18	0.521423	1.31226e-05
3208.08	0.521606	8.43506e-05
3208.92	0.521729	1.86157e-06
3209.82	0.521271	1.31531e-05
3210.72	0.52179	5.91736e-05
3211.58	-0.698151	-0.0208466
3212.46	0.52063	1.46179e-05
3213.36	0.520752	5.09033e-05
3214.22	-0.698273	-0.0153992
3215.1	0.521027	1.2207e-05
3216	0.520844	4.05884e-05
3216.88	0.000427246	0.00620026
3217.74	0.520752	1.40076e-05
3218.64	0.520477	3.61328e-05
3219.52	0.000332642	0.00466431
3220.38	0.521698	6.28662e-06
3221.28	0.521271	2.82593e-05
3222.18	0.520996	0.0151672
3223.02	0.521637	6.71387e-06
3223.92	0.521729	2.05078e-05
3224.82	0.521423	0.009198
3225.66	0.520996	9.64355e-06
3226.56	0.520966	2.41394e-05
3227.46	0.521667	0.00092041
3228.3	0.520996	8.45337e-06
3229.2	0.52121	1.68762e-05
3230.1	0.521698	0.000266541
3230.94	0.520691	1.10779e-05
3231.84	0.520782	1.98059e-05
3232.74	0.52179	0.00013504
3233.58	0.521606	3.69263e-06
3234.48	0.52124	1.5625e-05
3235.38	0.520905	8.91418e-05
3236.22	0.521179	7.50732e-06
3237.12	0.520752	1.63269e-05
3238.02	0.521515	6.09131e-05
3238.88	-0.697968	-0.020874
3239.76	0.521454	1.07422e-05
3240.66	0.52124	4.80957e-05
3241.52	-0.697876	-0.0154449
3242.4	0.521118	1.15356e-05
3243.3	0.520844	4.26025e-05
3244.18	-0.000534058	0.00617859
3245.04	0.521637	8.45337e-06
3245.94	0.521149	3.27454e-05
3246.82	0.000231934	0.00464966
3247.68	0.52066	1.32751e-05
3248.58	0.521149	2.64587e-05
3249.48	0.519928	0.0151855
3250.32	0.520874	1.2207e-05
3251.22	0.521729	2.12402e-05
3252.12	0.521027	0.00926208
3252.96	0.520966	7.56836e-06
3253.86	0.520782	2.39563e-05
3254.76	0.520874	0.000953674
3255.6	0.520691	1.11389e-05
3256.5	0.520721	2.23389e-05
3257.4	0.520935	0.000275787
3258.24	0.521545	5.7373e-06
3259.14	0.521271	1.76086e-05
3260.04	0.521667	0.000135742
3260.88	0.52063	1.13831e-05
3261.78	0.521576	1.32446e-05
3262.68	0.521545	8.64563e-05
3263.52	0.521667	3.9978e-06
3264.42	0.520905	1.51062e-05
3265.32	0.52066	6.60706e-05
3266.18	-0.698547	-0.0209076
3267.06	0.521545	9.33838e-06
3267.96	0.521362	4.70276e-05
3268.82	-0.698639	-0.0154816
3269.7	0.521698	8.30078e-06
3270.6	0.520874	4.08936e-05
3271.48	0.000463867	0.00614441
3272.34	0.520935	1.28174e-05
3273.24	0.521332	3.35388e-05
3274.12	0.000137329	0.00463013
3274.98	0.52182	5.70679e-06
3275.88	0.520691	3.01208e-05
3276.78	0.520905	0.0151917
3277.62	0.520905	1.10168e-05
3278.52	0.52063	2.78625e-05
3279.42	0.520294	0.00931702
3280.26	0.521729	5.82886e-06
3281.16	0.521851	1.77307e-05
3282.06	0.520599	0.000984802
3282.9	0.521759	4.54712e-06
3283.8	0.521179	1.87988e-05
3284.7	0.521149	0.000279907
3285.54	0.520966	9.58252e-06
3286.44	0.520721	2.02332e-05
3287.34	0.520996	0.000143066
3288.18	0.521149	7.8125e-06
3289.08	0.521149	1.47095e-05
3289.98	0.521179	8.84399e-05
3290.82	0.520721	7.99561e-06
3291.72	0.520721	1.72729e-05
3292.62	0.521027	6.3446e-05
3293.48	-0.698639	-0.0209412
3294.36	0.521088	1.25427e-05
3295.26	0.520996	4.88892e-05
3296.12	-0.699036	-0.015509
3297	0.520508	1.63574e-05
3297.9	0.520721	4.12903e-05
3298.78	-0.000546265	0.00612
3299.64	0.521729	6.98853e-06
3300.54	0.520752	3.54004e-05
3301.42	0.00032959	0.00460602
3302.28	0.521637	6.37817e-06
3303.18	0.520599	3.18604e-05
3304.08	0.520966	0.0151917
3304.92	0.521057	1.02539e-05
3305.82	0.52066	2.83508e-05
3306.72	0.521149	0.00937195
3307.56	0.521606	6.34766e-06
3308.46	0.52121	2.16064e-05
3309.36	0.520721	0.0010083
3310.2	0.520844	9.85718e-06
3311.1	0.520996	1.84326e-05
3312	0.520874	0.00028363
3312.84	0.520721	9.58252e-06
3313.74	0.520996	1.75476e-05
3314.64	0.52066	0.000146393
3315.48	0.520691	1.1322e-05
3316.38	0.521698	1.19019e-05
3317.28	0.520752	9.2926e-05
3318.12	0.521515	5.88989e-06
3319.02	0.521698	1.14746e-05
3319.92	0.521057	6.51245e-05
3320.78	-0.697906	-0.0209412
3321.66	0.521027	1.40076e-05
3322.56	0.520844	5.01709e-05
3323.42	-0.698151	-0.0155334
3324.3	0.52063	1.5686e-05
3325.2	0.520874	3.93982e-05
3326.08	0.000454712	0.00610168
3326.94	0.521515	9.39941e-06
3327.84	0.520844	3.48511e-05
3328.72	0.000741577	0.00459839
3329.58	0.520721	1.33972e-05
3330.48	0.520813	3.00293e-05
3331.38	0.520996	0.0151947
3332.22	0.521271	8.54492e-06
3333.12	0.52182	2.12402e-05
3334.02	0.520355	0.00940857
3334.86	0.521667	5.00488e-06
3335.76	0.521515	1.96228e-05
3336.66	0.520782	0.00102966
3337.5	0.521698	5.0354e-06
3338.4	0.52066	2.29797e-05
3339.3	0.52179	0.000283569
3340.14	0.521484	6.80542e-06
3341.04	0.521179	1.56555e-05
3341.94	0.521332	0.000141846
3342.78	0.521118	8.78906e-06
3343.68	0.521271	1.36108e-05
3344.58	0.520966	9.14612e-05
3345.42	0.521179	7.53784e-06
3346.32	0.520844	1.63879e-05
3347.22	0.521606	6.12793e-05
3348.08	-0.698639	-0.0209808
3348.96	0.520538	1.6449e-05
3349.86	0.521362	4.78516e-05
3350.72	-0.69873	-0.0155884
3351.6	0.520996	1.28784e-05
3352.5	0.521027	4.03137e-05
3353.38	0.00015564	0.0060733
3354.24	0.521576	7.69043e-06
3355.14	0.521667	3.00598e-05
3356.02	0.000384521	0.00457733
3356.88	0.520813	1.16882e-05
3357.78	0.52063	3.07007e-05
3358.68	0.519897	0.015213
3359.52	0.520599	1.27563e-05
3360.42	0.521484	2.17896e-05
3361.32	0.521301	0.0094696
3362.16	0.521057	8.94165e-06
3363.06	0.52124	2.28882e-05
3363.96	0.521576	0.00105774
3364.8	0.520782	9.12476e-06
3365.7	0.521301	1.83716e-05
3366.6	0.520844	0.000292969
3367.44	0.521667	4.45557e-06
3368.34	0.521362	1.53503e-05
3369.24	0.521637	0.000143524
3370.08	0.52063	1.10474e-05
3370.98	0.52124	1.54419e-05
3371.88	0.52066	9.55505e-05
3372.72	0.520538	1.10779e-05
3373.62	0.52121	1.40076e-05
3374.52	0.521515	6.38733e-05
3375.38	-0.698303	-0.0210144
3376.26	0.521576	1.14441e-05
3377.16	0.521393	4.88586e-05
3378.02	-0.697937	-0.0156372
3378.9	0.520782	1.40991e-05
3379.8	0.521179	3.98254e-05
3380.68	-2.44141e-05	0.00604156
3381.54	0.521088	1.26648e-05
3382.44	0.521362	3.2074e-05
3383.32	0.000601196	0.00456085
3384.18	0.520844	1.32446e-05
3385.08	0.520966	3.01514e-05
3385.98	0.519989	0.0152161
3386.82	0.52124	8.91113e-06
3387.72	0.52063	2.77405e-05
3388.62	0.520172	0.00952148
3389.46	0.52124	7.32422e-06
3390.36	0.521393	1.953125E-05
3391.26	0.520935	0.00109375
3392.1	0.52063	1.18103e-05
3393	0.520935	2.03552e-05
3393.9	0.520813	0.000298157
3394.74	0.52066	1.02539e-05
3395.64	0.521698	1.33362e-05
3396.54	0.521851	0.000144104
3397.38	0.521698	4.60815e-06
3398.28	0.520538	2.05383e-05
3399.18	0.520782	9.53064e-05
3400.02	0.521149	7.99561e-06
3400.92	0.52063	1.75781e-05
3401.82	0.521179	6.74133e-05
3402.68	-0.697784	-0.0210602
3403.56	0.521515	1.06506e-05
3404.46	0.520905	5.31616e-05
3405.32	-0.698517	-0.0156647
3406.2	0.521759	7.23267e-06
3407.1	0.521698	3.72314e-05
3407.98	-0.000439453	0.00601868
3408.84	0.520691	1.42822e-05
3409.74	0.521667	3.15247e-05
3410.62	0.000421143	0.00454376
3411.48	0.520691	1.37939e-05
3412.38	0.521179	3.10974e-05
3413.28	0.520874	0.0152191
3414.12	0.52179	5.95093e-06
3415.02	0.52063	2.88391e-05
3415.92	0.520935	0.00955811
3416.76	0.521484	7.96509e-06
3417.66	0.520905	2.32544e-05
3418.56	0.520905	0.00112
3419.4	0.521271	7.90405e-06
3420.3	0.521057	2.16675e-05
3421.2	0.520935	0.000301025
3422.04	0.520569	1.19629e-05
3422.94	0.520966	1.80664e-05
3423.84	0.521637	0.000146606
3424.68	0.521027	7.96509e-06
3425.58	0.521118	1.57471e-05
3426.48	0.520752	9.69238e-05
3427.32	0.521637	4.08936e-06
3428.22	0.521576	1.13831e-05
3429.12	0.52063	6.99768e-05
3429.98	-0.697662	-0.0210632
3430.86	0.521698	1.07727e-05
3431.76	0.52063	5.51453e-05
3432.62	-0.69812	-0.0156952
3433.5	0.521576	9.12476e-06
3434.4	0.52066	4.3457e-05
3435.28	-0.000274658	0.00599365
3436.14	0.52063	1.45569e-05
3437.04	0.521332	3.40271e-05
3437.92	-0.000146484	0.00452332
3438.78	0.521698	6.46973e-06
3439.68	0.521454	2.86255e-05
3440.58	0.52002	0.0152252
3441.42	0.521332	8.97217e-06
3442.32	0.521423	2.39868e-05
3443.22	0.520264	0.00961304
3444.06	0.520966	8.66699e-06
3444.96	0.52066	2.54822e-05
3445.86	0.520874	0.00114868
3446.7	0.52121	7.72095e-06
3447.6	0.520599	2.4292e-05
3448.5	0.521667	0.000302185
3449.34	0.520874	1.06506e-05
3450.24	0.521729	1.38855e-05
3451.14	0.521088	0.000151489
3451.98	0.521729	4.11987e-06
3452.88	0.521332	1.50757e-05
3453.78	0.520996	9.3811e-05
3454.62	0.521698	3.72314e-06
3455.52	0.520996	1.40381e-05
3456.42	0.52066	6.97937e-05
3457.28	-0.698669	-0.0210815
3458.16	0.521118	1.3031e-05
3459.06	0.521027	5.23987e-05
3459.92	-0.698181	-0.0157257
3460.8	0.520721	1.43738e-05
3461.7	0.521545	3.77502e-05
3462.58	0.000106812	0.0059848
3463.44	0.520874	1.43127e-05
3464.34	0.521271	3.39355e-05
3465.22	-3.05176e-06	0.00452515
3466.08	0.521729	7.14111e-06
3466.98	0.520691	3.24402e-05
3467.88	0.52066	0.0152161
3468.72	0.521576	7.56836e-06
3469.62	0.520691	3.01514e-05
3470.52	0.52124	0.00961914
3471.36	0.52063	1.31531e-05
3472.26	0.520905	2.44141e-05
3473.16	0.521698	0.00115479
3474	0.52066	1.3031e-05
3474.9	0.521027	2.0813e-05
3475.8	0.52124	0.000306091
3476.64	0.520782	1.00098e-05
3477.54	0.520782	1.9989e-05
3478.44	0.521088	0.0001521
3479.28	0.520569	1.01318e-05
3480.18	0.52066	2.01416e-05
3481.08	0.520691	9.78394e-05
3481.92	0.521667	3.96729e-06
3482.82	0.521484	1.31531e-05
3483.72	0.520569	7.07092e-05
3484.58	-0.697662	-0.0211029
3485.46	0.521515	1.08337e-05
3486.36	0.520874	5.33752e-05
3487.22	-0.69873	-0.0157593
3488.1	0.521698	9.85718e-06
3489	0.520599	4.44031e-05
3489.88	-0.00020752	0.00595612
3490.74	0.521332	1.13831e-05
3491.64	0.520935	3.62244e-05
3492.52	0.000765991	0.00449524
3493.38	0.521729	6.89697e-06
3494.28	0.520996	3.05176e-05
3495.18	0.521027	0.0152344
3496.02	0.52063	1.33362e-05
3496.92	0.520752	2.65503e-05
3497.82	0.520264	0.00967407
3498.66	0.52179	6.04248e-06
3499.56	0.52063	2.54517e-05
3500.46	0.52121	0.00118683
3501.3	0.521545	5.98145e-06
3502.2	0.52063	2.4231e-05
3503.1	0.520966	0.000312927
3503.94	0.52063	1.16272e-05
3504.84	0.52066	1.98059e-05
3505.74	0.521698	0.000148254
3506.58	0.520599	1.13831e-05
3507.48	0.521118	1.6571e-05
3508.38	0.52121	9.53064e-05
3509.22	0.52121	7.2937e-06
3510.12	0.520813	1.69373e-05
3511.02	0.521698	6.41479e-05
3511.88	-0.697876	-0.0211273
3512.76	0.521515	1.17493e-05
3513.66	0.52066	5.52979e-05
3514.52	-0.698639	-0.0157898
3515.4	0.521362	1.05896e-05
3516.3	0.520844	4.40369e-05
3517.18	0.000579834	0.00592377
3518.04	0.521149	1.16272e-05
3518.94	0.52063	3.77502e-05
3519.82	0.000543213	0.00448578
3520.68	0.521088	1.07422e-05
3521.58	0.520966	3.04565e-05
3522.48	0.520813	0.0152496
3523.32	0.521759	6.19507e-06
3524.22	0.521606	2.41394e-05
3525.12	0.520233	0.00972595
3525.96	0.52063	1.21765e-05
3526.86	0.520721	2.58179e-05
3527.76	0.520905	0.00122833
3528.6	0.52066	1.23596e-05
3529.5	0.52066	2.30408e-05
3530.4	0.521301	0.000312836
3531.24	0.521545	6.43921e-06
3532.14	0.521606	1.62048e-05
3533.04	0.521362	0.000152679
3533.88	0.52182	3.38745e-06
3534.78	0.520905	1.71509e-05
3535.68	0.521515	9.41772e-05
3536.52	0.521393	4.45557e-06
3537.42	0.521484	1.39771e-05
3538.32	0.521484	6.60706e-05
3539.18	-0.69754	-0.0211609
3540.06	0.520752	1.70288e-05
3540.96	0.52066	5.52368e-05
3541.82	-0.698944	-0.0158417
3542.7	0.520996	1.40381e-05
3543.6	0.521606	4.04663e-05
3544.48	-0.000430298	0.00591064
3545.34	0.520874	1.37634e-05
3546.24	0.52066	3.7384e-05
3547.12	-0.000222778	0.00446808
3547.98	0.520966	1.19629e-05
3548.88	0.521637	2.64893e-05
3549.78	0.520355	0.0152527
3550.62	0.521515	8.75854e-06
3551.52	0.521027	2.50244e-05
3552.42	0.520416	0.00977173
3553.26	0.521423	6.65283e-06
3554.16	0.520752	2.50549e-05
3555.06	0.521545	0.00125763
3555.9	0.521393	8.23975e-06
3556.8	0.52066	2.39563e-05
3557.7	0.521362	0.000317993
3558.54	0.521484	6.22559e-06
3559.44	0.521088	1.92261e-05
3560.34	0.521118	0.000154816
3561.18	0.521393	4.57764e-06
3562.08	0.520844	1.9104e-05
3562.98	0.52066	9.9884e-05
3563.82	0.52063	1.08643e-05
3564.72	0.521423	1.40381e-05
3565.62	0.521637	6.60706e-05
3566.48	-0.697815	-0.0211945
3567.36	0.521576	9.79614e-06
3568.26	0.521576	4.96216e-05
3569.12	-0.698456	-0.0158813
3570	0.52066	1.51978e-05
3570.9	0.520721	4.54102e-05
3571.78	-1.52588e-05	0.00587921
3572.64	0.521271	1.10779e-05
3573.54	0.521729	3.15857e-05
3574.42	-3.05176e-05	0.0044458
3575.28	0.521667	7.78198e-06
3576.18	0.521423	2.83508e-05
3577.08	0.520386	0.015271
3577.92	0.521271	9.18579e-06
3578.82	0.520874	2.89001e-05
3579.72	0.520966	0.00981445
3580.56	0.521606	8.60596e-06
3581.46	0.520752	2.58789e-05
3582.36	0.52066	0.00131134
3583.2	0.52121	9.49097e-06
3584.1	0.521576	1.74561e-05
3585	0.520569	0.000331604
3585.84	0.521362	6.86646e-06
3586.74	0.52121	1.92261e-05
3587.64	0.520874	0.000158661
3588.48	0.520538	1.19629e-05
3589.38	0.52066	2.03857e-05
3590.28	0.521118	9.765625E-05
3591.12	0.521667	4.18091e-06
3592.02	0.521606	1.17493e-05
3592.92	0.521576	6.5979e-05
3593.78	-0.697693	-0.021225
3594.66	0.52063	1.70288e-05
3595.56	0.520874	5.39551e-05
3596.42	-0.698334	-0.0159393
3597.3	0.520782	1.55945e-05
3598.2	0.520874	4.40979e-05
3599.08	-0.00010376	0.00584564
3599.94	0.52066	1.53503e-05
3600.84	0.520721	3.85742e-05
3601.72	-0.000415039	0.00442383
3602.58	0.52066	1.48621e-05
3603.48	0.521729	2.61841e-05
3604.38	0.520996	0.0152649
3605.22	0.521729	7.1106e-06
3606.12	0.520905	2.63367e-05
3607.02	0.521271	0.00986328
3607.86	0.521118	8.11768e-06
3608.76	0.521179	2.33154e-05
3609.66	0.521362	0.00135681
3610.5	0.52121	9.91821e-06
3611.4	0.521027	2.15759e-05
3612.3	0.520599	0.000336853
3613.14	0.521454	5.76782e-06
3614.04	0.520782	2.13623e-05
3614.94	0.520905	0.000160797
3615.78	0.521729	4.60815e-06
3616.68	0.521667	1.31226e-05
3617.58	0.521576	9.53369e-05
3618.42	0.521606	4.5166e-06
3619.32	0.52066	1.74255e-05
3620.22	0.521729	6.63452e-05
3621.08	-0.698547	-0.0212616
3621.96	0.521088	1.39465e-05
3622.86	0.52124	5.19104e-05
3623.72	-0.69812	-0.0159729
3624.6	0.521576	1.05896e-05
3625.5	0.52063	4.66003e-05
3626.38	-0.000460815	0.00581177
3627.24	0.521118	1.27869e-05
3628.14	0.521698	3.302e-05
3629.02	1.52588e-05	0.00439819
3629.88	0.521301	1.03455e-05
3630.78	0.52066	3.25623e-05
3631.68	0.519806	0.015271
3632.52	0.520721	1.22681e-05
3633.42	0.520874	2.65503e-05
3634.32	0.521149	0.00991211
3635.16	0.520538	1.28784e-05
3636.06	0.52121	2.29187e-05
3636.96	0.521545	0.0014151
3637.8	0.521667	5.43213e-06
3638.7	0.521027	2.13013e-05
3639.6	0.52066	0.000346741
3640.44	0.521637	5.18799e-06
3641.34	0.521149	1.81885e-05
3642.24	0.521637	0.000157745
3643.08	0.52182	5.06592e-06
3643.98	0.521729	1.23596e-05
3644.88	0.521729	9.68018e-05
3645.72	0.520844	9.30786e-06
3646.62	0.521393	1.36719e-05
3647.52	0.521332	7.00684e-05
3648.38	-0.697662	-0.0212982
3649.26	0.52066	1.79138e-05
3650.16	0.521606	5.19104e-05
3651.02	-0.69873	-0.0160248
3651.9	0.521454	1.12305e-05
3652.8	0.520996	4.27856e-05
3653.68	0.000592041	0.00577393
3654.54	0.520813	1.57166e-05
3655.44	0.521454	3.28369e-05
3656.32	0.000424194	0.00436859
3657.18	0.521667	8.36182e-06
3658.08	0.521606	2.76794e-05
3658.98	0.520782	0.015271
3659.82	0.520813	1.16882e-05
3660.72	0.521759	2.26746e-05
3661.62	0.520325	0.00997314
3662.46	0.521729	6.04248e-06
3663.36	0.521759	1.99585e-05
3664.26	0.521027	0.00146973
3665.1	0.521393	7.20215e-06
3666	0.521484	1.84021e-05
3666.9	0.521423	0.000350037
3667.74	0.521393	7.78198e-06
3668.64	0.520721	2.22473e-05
3669.54	0.520721	0.000166931
3670.38	0.520905	1.0498e-05
3671.28	0.521118	1.76086e-05
3672.18	0.521759	9.76868e-05
3673.02	0.520966	8.66699e-06
3673.92	0.52182	1.10779e-05
3674.82	0.520905	7.16553e-05
3675.68	-0.69751	-0.0213226
3676.56	0.520905	1.69067e-05
3677.46	0.521637	5.20935e-05
3678.32	-0.697876	-0.0160767
3679.2	0.521729	1.03149e-05
3680.1	0.52066	4.67224e-05
3680.98	-0.000250244	0.00574554
3681.84	0.521088	1.26953e-05
3682.74	0.520935	3.72009e-05
3683.62	0.000222778	0.00434692
3684.48	0.521729	7.14111e-06
3685.38	0.520752	3.45154e-05
3686.28	0.519928	0.0152832
3687.12	0.52124	1.12e-05
3688.02	0.52066	2.96631e-05
3688.92	0.520508	0.0100189
3689.76	0.521698	6.74438e-06
3690.66	0.520966	2.48108e-05
3691.56	0.521729	0.00152679
3692.4	0.520844	1.1322e-05
3693.3	0.521301	1.93176e-05
3694.2	0.520844	0.00036264
3695.04	0.521484	4.69971e-06
3695.94	0.52066	2.23694e-05
3696.84	0.521149	0.000166748
3697.68	0.52063	1.15662e-05
3698.58	0.520721	2.09656e-05
3699.48	0.521454	0.00010144
3700.32	0.521698	4.21143e-06
3701.22	0.521271	1.56555e-05
3702.12	0.521179	7.25098e-05
3702.98	-0.698578	-0.0213501
3703.86	0.520996	1.51672e-05
3704.76	0.52063	5.77087e-05
3705.62	-0.69812	-0.0161102
3706.5	0.520782	1.59912e-05
3707.4	0.52066	4.73633e-05
3708.28	-0.000460815	0.00571198
3709.14	0.520782	1.4801e-05
3710.04	0.521576	3.33252e-05
3710.92	0.000213623	0.00431885
3711.78	0.52124	8.8501e-06
3712.68	0.521515	2.76184e-05
3713.58	0.519897	0.0152802
3714.42	0.521393	7.44629e-06
3715.32	0.520721	2.91138e-05
3716.22	0.521301	0.0100464
3717.06	0.521454	8.23975e-06
3717.96	0.521179	2.3407e-05
3718.86	0.520996	0.00158356
3719.7	0.52063	1.25732e-05
3720.6	0.521118	2.43225e-05
3721.5	0.520966	0.000368439
3722.34	0.521515	5.52368e-06
3723.24	0.520844	2.11182e-05
3724.14	0.521088	0.000168579
3724.98	0.520874	1.00098e-05
3725.88	0.52063	2.0752e-05
3726.78	0.520721	0.000105469
3727.62	0.52066	1.10779e-05
3728.52	0.521484	1.42517e-05
3729.42	0.520721	7.59583e-05
3730.28	-0.698456	-0.0213776
3731.16	0.521667	1.07117e-05
3732.06	0.521667	5.2887e-05
3732.92	-0.698944	-0.0161407
3733.8	0.521057	1.45264e-05
3734.7	0.521698	4.1748e-05
3735.58	0.000650024	0.00567505
3736.44	0.52063	1.57471e-05
3737.34	0.520935	3.8208e-05
3738.22	0.000396729	0.00429962
3739.08	0.520599	1.40076e-05
3739.98	0.52066	3.38135e-05
3740.88	0.519989	0.0152832
3741.72	0.521484	7.35474e-06
3742.62	0.521118	2.76184e-05
3743.52	0.520355	0.0100922
3744.36	0.521698	6.50024e-06
3745.26	0.520782	2.65503e-05
3746.16	0.520813	0.00164398
3747	0.52063	1.24817e-05
3747.9	0.52124	2.13623e-05
3748.8	0.521729	0.000371399
3749.64	0.520996	9.39941e-06
3750.54	0.521637	1.62659e-05
3751.44	0.520752	0.000174011
3752.28	0.521271	6.34766e-06
3753.18	0.52179	1.37939e-05
3754.08	0.520905	0.000105743
3754.92	0.520813	9.73511e-06
3755.82	0.521759	1.18713e-05
3756.72	0.521149	7.39441e-05
3757.58	-0.69812	-0.021402
3758.46	0.521606	1.10474e-05
3759.36	0.520844	5.60608e-05
3760.22	-0.698761	-0.0161835
3761.1	0.521088	1.20544e-05
3762	0.521759	4.15344e-05
3762.88	0.000534058	0.00564697
3763.74	0.521393	1.1261e-05
3764.64	0.521393	3.58887e-05
3765.52	0.000192261	0.00427551
3766.38	0.521698	8.30078e-06
3767.28	0.521271	3.24097e-05
3768.18	0.520691	0.015271
3769.02	0.520691	1.37939e-05
3769.92	0.520966	2.948e-05
3770.82	0.521362	0.0101196
3771.66	0.520721	1.27869e-05
3772.56	0.520569	2.66418e-05
3773.46	0.520966	0.00170349
3774.3	0.521729	6.19507e-06
3775.2	0.521545	1.98364e-05
3776.1	0.52121	0.000382385
3776.94	0.520844	1.04675e-05
3777.84	0.521606	1.73035e-05
3778.74	0.520569	0.000175659
3779.58	0.521301	7.41577e-06
3780.48	0.520935	1.73035e-05
3781.38	0.520752	0.000107239
3782.22	0.521759	3.14331e-06
3783.12	0.521179	1.63879e-05
3784.02	0.521454	7.19299e-05
3784.88	-0.697601	-0.0214264
3785.76	0.520813	1.77307e-05
3786.66	0.52063	5.9021e-05
3787.52	-0.698792	-0.0162201
3788.4	0.521667	8.91113e-06
3789.3	0.520844	4.71191e-05
3790.18	-9.15527e-06	0.00562103
3791.04	0.521118	1.21155e-05
3791.94	0.521088	3.90625E-05
3792.82	1.2207e-05	0.00425262
3793.68	0.521179	1.3855e-05
3794.58	0.520905	3.42407e-05
3795.48	0.519958	0.0152832
3796.32	0.521332	1.01624e-05
3797.22	0.521027	2.95105e-05
3798.12	0.521179	0.0101624
3798.96	0.521698	6.86646e-06
3799.86	0.521332	2.28577e-05
3800.76	0.520782	0.00176697
3801.6	0.521118	8.14819e-06
3802.5	0.52066	2.51465e-05
3803.4	0.52063	0.00039386
3804.24	0.520691	1.18408e-05
3805.14	0.521454	1.80054e-05
3806.04	0.521698	0.0001716
3806.88	0.521027	1.01624e-05
3807.78	0.520691	2.14233e-05
3808.68	0.521698	0.000102814
3809.52	0.520905	8.91113e-06
3810.42	0.520813	1.83716e-05
3811.32	0.52179	7.07092e-05
3812.18	-0.697876	-0.0214661
3813.06	0.521637	1.14746e-05
3813.96	0.521423	5.54504e-05
3814.82	-0.69809	-0.0162689
3815.7	0.52066	1.70898e-05
3816.6	0.520782	4.80347e-05
3817.48	0.000469971	0.00558929
3818.34	0.520691	1.70593e-05
3819.24	0.520996	3.97949e-05
3820.12	-0.000143433	0.0042334
3820.98	0.52066	1.62964e-05
3821.88	0.520691	3.53088e-05
3822.78	0.519897	0.0152802
3823.62	0.520752	1.36719e-05
3824.52	0.521149	2.66724e-05
3825.42	0.520569	0.010199
3826.26	0.521545	6.65283e-06
3827.16	0.521515	2.19421e-05
3828.06	0.521698	0.00182404
3828.9	0.520844	1.15356e-05
3829.8	0.521545	1.87073e-05
3830.7	0.52066	0.000402985
3831.54	0.52063	1.21155e-05
3832.44	0.521118	2.19421e-05
3833.34	0.521515	0.000174438
3834.18	0.520538	1.23901e-05
3835.08	0.521576	1.49231e-05
3835.98	0.520691	0.000110046
3836.82	0.520782	9.30786e-06
3837.72	0.52066	1.94702e-05
3838.62	0.520599	7.76978e-05
3839.48	-0.698212	-0.0214844
3840.36	0.521118	1.58386e-05
3841.26	0.520935	5.82886e-05
3842.12	-0.697845	-0.0162994
3843	0.52121	1.3855e-05
3843.9	0.521057	4.51355e-05
3844.78	-0.000317383	0.0055661
3845.64	0.52063	1.54419e-05
3846.54	0.521698	3.39355e-05
3847.42	0.000241089	0.00420563
3848.28	0.520935	1.24512e-05
3849.18	0.520813	3.36609e-05
3850.08	0.519745	0.0152802
3850.92	0.521118	1.28174e-05
3851.82	0.520569	3.18909e-05
3852.72	0.520599	0.0102356
3853.56	0.520538	1.42822e-05
3854.46	0.521576	2.27661e-05
3855.36	0.520844	0.00189148
3856.2	0.521362	6.13403e-06
3857.1	0.521179	2.2583e-05
3858	0.521576	0.000404907
3858.84	0.520935	1.07727e-05
3859.74	0.521088	2.03857e-05
3860.64	0.521301	0.000177979
3861.48	0.521667	5.09644e-06
3862.38	0.52066	2.05078e-05
3863.28	0.521515	0.000106781
3864.12	0.520782	1.02539e-05
3865.02	0.521759	1.24817e-05
3865.92	0.521729	7.14111e-05
3866.78	-0.698517	-0.0215027
3867.66	0.521454	1.34277e-05
3868.56	0.520935	5.80139e-05
3869.42	-0.697876	-0.0163422
3870.3	0.52121	1.33362e-05
3871.2	0.52063	4.74548e-05
3872.08	0.000595093	0.0055365
3872.94	0.521118	1.16577e-05
3873.84	0.52066	4.07104e-05
3874.72	0.000634766	0.00419098
3875.58	0.521515	9.91821e-06
3876.48	0.520691	3.50037e-05
3877.38	0.520935	0.0152832
3878.22	0.521393	1.06201e-05
3879.12	0.521606	2.46887e-05
3880.02	0.520752	0.0102722
3880.86	0.520813	1.38855e-05
3881.76	0.521118	2.36816e-05
3882.66	0.520691	0.00195892
3883.5	0.521271	9.06372e-06
3884.4	0.521362	1.95007e-05
3885.3	0.520569	0.000419098
3886.14	0.521088	7.99561e-06
3887.04	0.521301	1.78223e-05
3887.94	0.520721	0.000186493
3888.78	0.520844	1.05896e-05
3889.68	0.520569	2.10266e-05
3890.58	0.521637	0.000107178
3891.42	0.520935	9.94873e-06
3892.32	0.521454	1.33972e-05
3893.22	0.521698	7.18994e-05
3894.08	-0.698395	-0.0215271
3894.96	0.521515	1.3092e-05
3895.86	0.52179	5.42908e-05
3896.72	-0.698883	-0.0163788
3897.6	0.52182	9.765625E-06
3898.5	0.520996	4.67834e-05
3899.38	-0.000231934	0.00551178
3900.24	0.52063	1.63879e-05
3901.14	0.521729	3.43018e-05
3902.02	0.000317383	0.0041684
3902.88	0.52179	8.66699e-06
3903.78	0.520844	3.47595e-05
3904.68	0.52066	0.0152863
3905.52	0.521271	9.94873e-06
3906.42	0.520935	2.98157e-05
3907.32	0.521179	0.0102966
3908.16	0.521576	7.72095e-06
3909.06	0.520569	2.74963e-05
3909.96	0.520569	0.00203857
3910.8	0.521545	6.40869e-06
3911.7	0.521301	2.08435e-05
3912.6	0.520935	0.000426331
3913.44	0.521515	6.13403e-06
3914.34	0.52066	2.27356e-05
3915.24	0.521729	0.000182281
3916.08	0.521698	5.76782e-06
3916.98	0.520691	2.21558e-05
3917.88	0.521057	0.000110931
3918.72	0.521149	6.01196e-06
3919.62	0.521179	1.63879e-05
3920.52	0.52066	7.99255e-05
3921.38	-0.698669	-0.0215485
3922.26	0.521637	1.22375e-05
3923.16	0.521454	5.5542e-05
3924.02	-0.697937	-0.0164124
3924.9	0.521118	1.49231e-05
3925.8	0.520782	4.76379e-05
3926.68	-0.000427246	0.00548309
3927.54	0.520935	1.37634e-05
3928.44	0.521149	3.93066e-05
3929.32	-0.000189209	0.00414825
3930.18	0.520782	1.52588e-05
3931.08	0.521027	3.38745e-05
3931.98	0.520935	0.0152771
3932.82	0.520935	1.2085e-05
3933.72	0.520721	3.2135e-05
3934.62	0.52066	0.0103394
3935.46	0.521484	7.90405e-06
3936.36	0.520966	2.59705e-05
3937.26	0.521118	0.00210419
3938.1	0.520721	1.40991e-05
3939	0.521606	1.94702e-05
3939.9	0.521729	0.000430542
3940.74	0.521606	7.23267e-06
3941.64	0.521637	1.69983e-05
3942.54	0.521088	0.000187317
3943.38	0.521729	5.67627e-06
3944.28	0.521118	1.85852e-05
3945.18	0.520691	0.000113617
3946.02	0.52066	1.13831e-05
3946.92	0.520844	1.86462e-05
3947.82	0.520538	8.12378e-05
3948.68	-0.698029	-0.0215607
3949.56	0.521759	1.10474e-05
3950.46	0.520691	6.16455e-05
3951.32	-0.697784	-0.016452
3952.2	0.521301	1.30005e-05
3953.1	0.520905	4.77905e-05
3953.98	0.000247192	0.00545349
3954.84	0.521606	9.61304e-06
3955.74	0.52121	3.85437e-05
3956.62	-0.000335693	0.00412964
3957.48	0.521484	9.85718e-06
3958.38	0.521515	3.07617e-05
3959.28	0.519806	0.0152924
3960.12	0.521118	1.06201e-05
3961.02	0.521637	2.45972e-05
3961.92	0.520721	0.0103699
3962.76	0.521698	8.27026e-06
3963.66	0.521729	2.20947e-05
3964.56	0.520935	0.00218536
3965.4	0.520691	1.31226e-05
3966.3	0.521484	2.08435e-05
3967.2	0.521698	0.000440826
3968.04	0.520721	1.2146e-05
3968.94	0.521667	1.75171e-05
3969.84	0.520996	0.000191101
3970.68	0.521667	5.24902e-06
3971.58	0.521606	1.53503e-05
3972.48	0.521057	0.000111176
3973.32	0.521179	8.20923e-06
3974.22	0.52063	1.96228e-05
3975.12	0.521179	7.57141e-05
3975.98	-0.698486	-0.0215942
3976.86	0.521362	1.34277e-05
3977.76	0.521698	5.49011e-05
3978.62	-0.697998	-0.0164917
3979.5	0.520844	1.55029e-05
3980.4	0.521545	4.63867e-05
3981.28	0.000592041	0.00542145
3982.14	0.521576	8.66699e-06
3983.04	0.520599	4.22668e-05
3983.92	0.000665283	0.00410217
3984.78	0.521484	1.00098e-05
3985.68	0.521667	3.0426e-05
3986.58	0.519989	0.0152893
3987.42	0.521729	8.14819e-06
3988.32	0.520782	3.05481e-05
3989.22	0.520294	0.0104034
3990.06	0.520782	1.32141e-05
3990.96	0.521088	2.47803e-05
3991.86	0.520538	0.00226868
3992.7	0.520782	1.29395e-05
3993.6	0.520569	2.65808e-05
3994.5	0.520844	0.000456116
3995.34	0.520599	1.32751e-05
3996.24	0.521271	1.953125E-05
3997.14	0.520844	0.000195831
3997.98	0.520844	1.1261e-05
3998.88	0.521698	1.51062e-05
3999.78	0.520996	0.000114471
4000.62	0.520935	9.39941e-06
4001.52	0.521576	1.46179e-05
4002.42	0.520721	8.13293e-05
4003.28	-0.697784	-0.0216125
4004.16	0.520782	1.64795e-05
4005.06	0.520935	6.21338e-05
4005.92	-0.698578	-0.0165222
4006.8	0.521027	1.63574e-05
4007.7	0.520813	4.99878e-05
4008.58	-0.000384521	0.0053952
4009.44	0.520874	1.40381e-05
4010.34	0.52066	4.20227e-05
4011.22	-0.000204468	0.00408112
4012.08	0.52063	1.49841e-05
4012.98	0.520569	3.62244e-05
4013.88	0.520844	0.0152771
4014.72	0.521606	7.53784e-06
4015.62	0.52063	3.18298e-05
4016.52	0.520264	0.0104248
4017.36	0.52121	1.07422e-05
4018.26	0.521698	2.08435e-05
4019.16	0.52063	0.00235718
4020	0.520599	1.38855e-05
4020.9	0.521576	1.89209e-05
4021.8	0.521332	0.000463104
4022.64	0.521667	6.50024e-06
4023.54	0.521027	2.13928e-05
4024.44	0.520996	0.000195801
4025.28	0.52063	1.2085e-05
4026.18	0.521698	1.66016e-05
4027.08	0.521118	0.000113556
4027.92	0.520996	1.06812e-05
4028.82	0.520996	1.80664e-05
4029.72	0.52124	7.88269e-05
4030.58	-0.698639	-0.0216339
4031.46	0.520905	1.6449e-05
4032.36	0.520996	6.10046e-05
4033.22	-0.698914	-0.0165588
4034.1	0.52066	1.72729e-05
4035	0.521545	4.56848e-05
4035.88	0.000109863	0.00536316
4036.74	0.52182	1.01624e-05
4037.64	0.520569	4.19006e-05
4038.52	0.000299072	0.00405518
4039.38	0.521759	7.53784e-06
4040.28	0.520905	3.50037e-05
4041.18	0.520905	0.0152771
4042.02	0.521271	8.75854e-06
4042.92	0.521515	2.8595e-05
4043.82	0.52063	0.0104614
4044.66	0.521454	8.91113e-06
4045.56	0.520844	2.87781e-05
4046.46	0.520752	0.00246429
4047.3	0.52066	1.26648e-05
4048.2	0.521393	2.10266e-05
4049.1	0.521759	0.000471558
4049.94	0.521393	6.40869e-06
4050.84	0.520599	2.49329e-05
4051.74	0.520905	0.000201813
4052.58	0.52121	7.50732e-06
4053.48	0.521271	1.84631e-05
4054.38	0.52063	0.000118469
4055.22	0.521729	4.5166e-06
4056.12	0.521729	1.28784e-05
4057.02	0.521545	7.75757e-05
4057.88	-0.698578	-0.0216614
4058.76	0.520844	1.77917e-05
4059.66	0.520874	6.21338e-05
4060.52	-0.698914	-0.0166046
4061.4	0.520996	1.70288e-05
4062.3	0.52121	4.92859e-05
4063.18	0.000564575	0.00532318
4064.04	0.520782	1.52588e-05
4064.94	0.521729	3.63159e-05
4065.82	0.000500488	0.00402588
4066.68	0.520782	1.44043e-05
4067.58	0.521545	3.14026e-05
4068.48	0.520874	0.015271
4069.32	0.521667	8.27026e-06
4070.22	0.520966	3.10669e-05
4071.12	0.52066	0.010498
4071.96	0.520935	1.18103e-05
4072.86	0.520813	2.83508e-05
4073.76	0.521637	0.00257141
4074.6	0.521698	5.34058e-06
4075.5	0.520782	2.64282e-05
4076.4	0.520844	0.000489471
4077.24	0.52066	1.18103e-05
4078.14	0.521667	1.75781e-05
4079.04	0.521698	0.00019986
4079.88	0.520935	1.06812e-05
4080.78	0.520599	2.28577e-05
4081.68	0.52066	0.000120239
4082.52	0.521484	5.0354e-06
4083.42	0.52121	1.66321e-05
4084.32	0.521149	8.02002e-05
4085.18	-0.698395	-0.0216736
4086.06	0.521515	1.46179e-05
4086.96	0.521698	5.79224e-05
4087.82	-0.698059	-0.0166412
4088.7	0.521362	1.50146e-05
4089.6	0.520874	5.01404e-05
4090.48	-0.000149536	0.00530273
4091.34	0.52063	1.75171e-05
4092.24	0.521515	3.74146e-05
4093.12	-0.00032959	0.00400909
4093.98	0.52066	1.53809e-05
4094.88	0.521606	3.17688e-05
4095.78	0.519989	0.015271
4096.62	0.521667	8.20923e-06
4097.52	0.520813	3.18909e-05
4098.42	0.52121	0.0105255
4099.26	0.521637	7.84302e-06
4100.16	0.520966	2.8656e-05
4101.06	0.52063	0.00266876
4101.9	0.521423	9.61304e-06
4102.8	0.52124	2.30713e-05
4103.7	0.521118	0.000499878
4104.54	0.521729	5.61523e-06
4105.44	0.520752	2.32849e-05
4106.34	0.520569	0.000210236
4107.18	0.521454	7.26318e-06
4108.08	0.521698	1.71509e-05
4108.98	0.520782	0.000120575
4109.82	0.52066	1.12e-05
4110.72	0.52066	2.03857e-05
4111.62	0.521698	7.75757e-05
4112.48	-0.697998	-0.0217072
4113.36	0.520721	1.84326e-05
4114.26	0.521545	5.97229e-05
4115.12	-0.698242	-0.0166748
4116	0.520752	1.78833e-05
4116.9	0.521362	4.71802e-05
4117.78	9.15527e-05	0.0052713
4118.64	0.521698	1.04065e-05
4119.54	0.521729	3.75061e-05
4120.42	-0.000354004	0.00398682
4121.28	0.521362	1.35498e-05
4122.18	0.521667	3.03955e-05
4123.08	0.520966	0.015274
4123.92	0.520813	1.33667e-05
4124.82	0.521118	3.00903e-05
4125.72	0.520782	0.010553
4126.56	0.520782	1.38245e-05
4127.46	0.520721	2.93579e-05
4128.36	0.520599	0.00277771
4129.2	0.521698	7.69043e-06
4129.34	0.521179	7.23267e-06