File: Edgar/20240522/20240522/electrodeposition_pulsed_potential_20240522_A/pulses_4000_to_5000.txt
Time (s)	WE(1).Potential (V)	WE(1).Current (A)
5475.74	-0.698181	-0.0225098
5476.62	0.520905	1.58691e-05
5477.52	0.521088	8.31299e-05
5478.38	-0.698761	-0.018277
5479.26	0.520874	1.93787e-05
5480.16	0.521393	6.06079e-05
5481.04	8.54492e-05	0.0038739
5481.9	0.520813	1.85547e-05
5482.8	0.520721	5.27039e-05
5483.68	-1.83105e-05	0.00283936
5484.54	0.521454	1.33057e-05
5485.44	0.521118	4.28162e-05
5486.34	0.520844	0.0150604
5487.18	0.521057	1.53198e-05
5488.08	0.52121	3.62854e-05
5488.98	0.520996	0.01138
5489.82	0.521698	1.00708e-05
5490.72	0.521027	3.17993e-05
5491.62	0.521271	0.00761108
5492.46	0.520966	1.35803e-05
5493.36	0.520752	2.99683e-05
5494.26	0.520691	0.00145355
5495.1	0.520813	1.34583e-05
5496	0.520813	2.81067e-05
5496.9	0.520691	0.000505676
5497.74	0.520721	1.38245e-05
5498.64	0.52066	2.61841e-05
5499.54	0.521484	0.000238892
5500.38	0.52066	1.27563e-05
5501.28	0.520691	2.39563e-05
5502.18	0.520691	0.000138672
5503.04	-0.698547	-0.0226013
5503.92	0.521637	1.69373e-05
5504.82	0.521393	8.53882e-05
5505.68	-0.698151	-0.0183105
5506.56	0.521057	1.89209e-05
5507.46	0.520569	6.77795e-05
5508.34	6.71387e-05	0.0038739
5509.2	0.520721	1.71814e-05
5510.1	0.521698	4.77295e-05
5510.98	0.000454712	0.00283997
5511.84	0.52066	1.92261e-05
5512.74	0.521667	4.09241e-05
5513.64	0.520966	0.0150787
5514.48	0.521271	1.37024e-05
5515.38	0.521149	3.59497e-05
5516.28	0.521301	0.0114105
5517.12	0.520691	1.58081e-05
5518.02	0.521149	3.18298e-05
5518.92	0.521149	0.00768738
5519.76	0.521606	9.21631e-06
5520.66	0.52121	2.77405e-05
5521.56	0.521606	0.00149139
5522.4	0.520721	1.40686e-05
5523.3	0.520691	2.83203e-05
5524.2	0.520844	0.000515442
5525.04	0.521637	7.2937e-06
5525.94	0.521057	2.31934e-05
5526.84	0.521667	0.000241882
5527.68	0.521088	1.22681e-05
5528.58	0.520844	2.31323e-05
5529.48	0.521729	0.000134125
5530.34	-0.697845	-0.0226166
5531.22	0.520996	2.00806e-05
5532.12	0.520782	9.21631e-05
5532.98	-0.698669	-0.0183289
5533.86	0.520691	2.08435e-05
5534.76	0.520874	6.6864e-05
5535.64	0.000152588	0.00385132
5536.5	0.521729	1.27869e-05
5537.4	0.521515	4.86145e-05
5538.28	-0.000292969	0.00282532
5539.14	0.52063	1.89514e-05
5540.04	0.521667	3.82996e-05
5540.94	0.520844	0.0150757
5541.78	0.521454	1.13525e-05
5542.68	0.520905	3.7384e-05
5543.58	0.520142	0.0114258
5544.42	0.521454	1.07422e-05
5545.32	0.520935	3.23486e-05
5546.22	0.521332	0.00773621
5547.06	0.521667	9.8877e-06
5547.96	0.520966	2.99072e-05
5548.86	0.520966	0.00153442
5549.7	0.521301	9.765625E-06
5550.6	0.520721	2.72522e-05
5551.5	0.521393	0.00052063
5552.34	0.52066	1.44348e-05
5553.24	0.521759	2.04163e-05
5554.14	0.520996	0.000247955
5554.98	0.52063	1.33972e-05
5555.88	0.521606	1.78223e-05
5556.78	0.520935	0.000140656
5557.64	-0.697601	-0.0226532
5558.52	0.521545	1.6449e-05
5559.42	0.521667	8.72498e-05
5560.28	-0.698334	-0.0183716
5561.16	0.520691	2.06909e-05
5562.06	0.52066	6.81458e-05
5562.94	-0.000302124	0.00382782
5563.8	0.521271	1.44653e-05
5564.7	0.521393	5.00488e-05
5565.58	0.000637817	0.00280304
5566.44	0.520813	1.76392e-05
5567.34	0.520782	4.41284e-05
5568.24	0.520935	0.0150787
5569.08	0.520752	1.79443e-05
5569.98	0.521057	3.75061e-05
5570.88	0.520294	0.0114502
5571.72	0.521271	1.28784e-05
5572.62	0.520996	3.51257e-05
5573.52	0.520355	0.00777893
5574.36	0.521576	9.552e-06
5575.26	0.52066	3.17688e-05
5576.16	0.520905	0.00156921
5577	0.520996	1.26038e-05
5577.9	0.52063	2.82593e-05
5578.8	0.520844	0.000535278
5579.64	0.521454	8.11768e-06
5580.54	0.521606	1.97754e-05
5581.44	0.521606	0.000251038
5582.28	0.521698	7.01904e-06
5583.18	0.521698	1.828e-05
5584.08	0.520691	0.000143311
5584.94	-0.698547	-0.0226532
5585.82	0.521271	1.86157e-05
5586.72	0.52063	9.36279e-05
5587.58	-0.698517	-0.018396
5588.46	0.521606	1.54114e-05
5589.36	0.521393	6.37817e-05
5590.24	0.000375366	0.00380096
5591.1	0.521606	1.43433e-05
5592	0.521667	4.85535e-05
5592.88	0.000531006	0.00278442
5593.74	0.52124	1.50757e-05
5594.64	0.52066	4.58374e-05
5595.54	0.520844	0.0150757
5596.38	0.520569	1.72119e-05
5597.28	0.521271	3.67126e-05
5598.18	0.520264	0.0114594
5599.02	0.521606	9.8877e-06
5599.92	0.521179	2.99683e-05
5600.82	0.520386	0.00782166
5601.66	0.521423	1.05591e-05
5602.56	0.520905	3.00903e-05
5603.46	0.521393	0.00159576
5604.3	0.520966	1.36719e-05
5605.2	0.521301	2.50854e-05
5606.1	0.521515	0.000539246
5606.94	0.521484	8.88062e-06
5607.84	0.521423	2.15149e-05
5608.74	0.520691	0.000259979
5609.58	0.521545	7.84302e-06
5610.48	0.520721	2.44141e-05
5611.38	0.520721	0.000146637
5612.24	-0.697449	-0.0226776
5613.12	0.521057	1.98669e-05
5614.02	0.520905	9.35059e-05
5614.88	-0.697784	-0.0184296
5615.76	0.521454	1.60217e-05
5616.66	0.521698	6.35376e-05
5617.54	0.00017395	0.00377716
5618.4	0.52124	1.79443e-05
5619.3	0.520874	5.39856e-05
5620.18	0.000534058	0.00276337
5621.04	0.520782	1.81274e-05
5621.94	0.521149	4.1687e-05
5622.84	0.520172	0.0150726
5623.68	0.52179	1.07117e-05
5624.58	0.52066	3.9917e-05
5625.48	0.520874	0.0114746
5626.32	0.521729	9.58252e-06
5627.22	0.520935	3.40881e-05
5628.12	0.521179	0.00786133
5628.96	0.520874	1.39465e-05
5629.86	0.52066	3.10669e-05
5630.76	0.52124	0.00163239
5631.6	0.520966	1.2085e-05
5632.5	0.521057	2.58484e-05
5633.4	0.521637	0.000548096
5634.24	0.521179	1.05286e-05
5635.14	0.521423	2.09045e-05
5636.04	0.520752	0.000264465
5636.88	0.521576	6.83594e-06
5637.78	0.521362	1.98669e-05
5638.68	0.520966	0.000147064
5639.54	-0.69754	-0.0226868
5640.42	0.521698	1.71204e-05
5641.32	0.521362	9.13391e-05
5642.18	-0.698059	-0.018454
5643.06	0.521637	1.55029e-05
5643.96	0.521606	6.29883e-05
5644.84	-0.000314331	0.00375488
5645.7	0.520599	2.03857e-05
5646.6	0.520813	5.51147e-05
5647.48	0.000161743	0.00274353
5648.34	0.521271	1.44043e-05
5649.24	0.52182	3.90625E-05
5650.14	0.519928	0.0150726
5650.98	0.521057	1.50146e-05
5651.88	0.52121	3.63159e-05
5652.78	0.52002	0.0114777
5653.62	0.521271	1.32141e-05
5654.52	0.520813	3.43933e-05
5655.42	0.520966	0.00789185
5656.26	0.521576	9.82666e-06
5657.16	0.52063	3.15857e-05
5658.06	0.520691	0.00166443
5658.9	0.521729	7.99561e-06
5659.8	0.520782	2.86865e-05
5660.7	0.520691	0.000560913
5661.54	0.520691	1.43433e-05
5662.44	0.520782	2.66418e-05
5663.34	0.520599	0.000268311
5664.18	0.520874	1.37329e-05
5665.08	0.521423	1.95007e-05
5665.98	0.520935	0.000148956
5666.84	-0.698425	-0.022702
5667.72	0.521576	1.86157e-05
5668.62	0.521423	9.22241e-05
5669.48	-0.698151	-0.0184814
5670.36	0.521057	1.98975e-05
5671.26	0.520538	7.11365e-05
5672.14	0.000280762	0.00372467
5673	0.521362	1.60828e-05
5673.9	0.521149	5.20935e-05
5674.78	0.000689697	0.00271851
5675.64	0.521515	1.25732e-05
5676.54	0.52182	3.99475e-05
5677.44	0.520966	0.0150604
5678.28	0.521027	1.53809e-05
5679.18	0.521729	3.36914e-05
5680.08	0.520599	0.0114929
5680.92	0.520721	1.72729e-05
5681.82	0.520996	3.36304e-05
5682.72	0.520325	0.00792236
5683.56	0.520752	1.46179e-05
5684.46	0.521301	2.6947e-05
5685.36	0.521179	0.00169373
5686.2	0.521271	1.22986e-05
5687.1	0.521698	2.21558e-05
5688	0.521576	0.000563965
5688.84	0.520721	1.474e-05
5689.74	0.520996	2.63367e-05
5690.64	0.521698	0.000266174
5691.48	0.521027	1.23596e-05
5692.38	0.521362	1.98364e-05
5693.28	0.521332	0.000147339
5694.14	-0.698486	-0.0227173
5695.02	0.521484	1.68762e-05
5695.92	0.521362	9.42993e-05
5696.78	-0.697906	-0.0185181
5697.66	0.520691	2.18811e-05
5698.56	0.521088	6.73523e-05
5699.44	-0.000390625	0.00370331
5700.3	0.521545	1.43433e-05
5701.2	0.521698	4.9408e-05
5702.08	0.000662231	0.00269714
5702.94	0.521606	1.28174e-05
5703.84	0.521149	4.2511e-05
5704.74	0.520538	0.0150543
5705.58	0.521301	1.36108e-05
5706.48	0.520905	3.75061e-05
5707.38	0.520294	0.011496
5708.22	0.520569	1.828e-05
5709.12	0.521515	3.02124e-05
5710.02	0.520203	0.00796509
5710.86	0.521027	1.30005e-05
5711.76	0.520813	2.96326e-05
5712.66	0.521179	0.00173523
5713.5	0.52063	1.46484e-05
5714.4	0.520996	2.71912e-05
5715.3	0.52063	0.000582275
5716.14	0.521393	9.0332e-06
5717.04	0.520691	2.73132e-05
5717.94	0.521576	0.000272034
5718.78	0.521271	8.42285e-06
5719.68	0.520782	2.41699e-05
5720.58	0.520844	0.000153839
5721.44	-0.698456	-0.0227386
5722.32	0.52124	1.89514e-05
5723.22	0.521698	9.24377e-05
5724.08	-0.698364	-0.0185425
5724.96	0.52063	2.28271e-05
5725.86	0.520813	7.02209e-05
5726.74	0.000531006	0.00367035
5727.6	0.520874	1.85242e-05
5728.5	0.520599	5.58167e-05
5729.38	0.000640869	0.00267487
5730.24	0.521698	1.24512e-05
5731.14	0.521637	4.01917e-05
5732.04	0.520294	0.0150513
5732.88	0.521027	1.63269e-05
5733.78	0.520813	3.93982e-05
5734.68	0.521179	0.0115112
5735.52	0.52066	1.67542e-05
5736.42	0.521545	2.99988e-05
5737.32	0.520325	0.00800781
5738.16	0.520874	1.22681e-05
5739.06	0.521759	2.55737e-05
5739.96	0.521332	0.00175323
5740.8	0.521698	8.48389e-06
5741.7	0.521271	2.66418e-05
5742.6	0.520935	0.000581665
5743.44	0.521729	7.87354e-06
5744.34	0.520935	2.47803e-05
5745.24	0.521423	0.000272064
5746.08	0.520782	1.31531e-05
5746.98	0.521637	1.83105e-05
5747.88	0.520813	0.000154663
5748.74	-0.69751	-0.0227051
5749.62	0.52179	1.64185e-05
5750.52	0.521057	9.75342e-05
5751.38	-0.698639	-0.0185272
5752.26	0.521576	1.51672e-05
5753.16	0.520691	7.22656e-05
5754.04	9.46045e-05	0.0036792
5754.9	0.520599	2.05994e-05
5755.8	0.520813	5.53894e-05
5756.68	0.000119019	0.0026825
5757.54	0.521423	1.38245e-05
5758.44	0.52063	4.71191e-05
5759.34	0.520477	0.0150543
5760.18	0.520691	1.80969e-05
5761.08	0.521393	3.53088e-05
5761.98	0.520264	0.0115234
5762.82	0.521729	1.03149e-05
5763.72	0.520691	3.46985e-05
5764.62	0.520355	0.0079895
5765.46	0.521393	1.19019e-05
5766.36	0.521393	2.63672e-05
5767.26	0.520599	0.00175293
5768.1	0.52066	1.57471e-05
5769	0.521667	2.26135e-05
5769.9	0.521667	0.000584106
5770.74	0.521179	1.03149e-05
5771.64	0.521179	2.18811e-05
5772.54	0.520935	0.000281097
5773.38	0.520599	1.28479e-05
5774.28	0.520782	2.31934e-05
5775.18	0.52066	0.000159027
5776.04	-0.698486	-0.0227173
5776.92	0.520966	2.27661e-05
5777.82	0.520691	0.00010141
5778.68	-0.697784	-0.0185394
5779.56	0.520721	2.13928e-05
5780.46	0.520691	7.25708e-05
5781.34	0.000338745	0.00366547
5782.2	0.521423	1.57471e-05
5783.1	0.520935	5.42908e-05
5783.98	-0.000283813	0.00267517
5784.84	0.521729	1.26648e-05
5785.74	0.521637	4.03748e-05
5786.64	0.520691	0.0150574
5787.48	0.521118	1.49536e-05
5788.38	0.521179	3.71094e-05
5789.28	0.520233	0.0115356
5790.12	0.52063	1.73035e-05
5791.02	0.520782	3.52783e-05
5791.92	0.520294	0.00800781
5792.76	0.521118	1.3031e-05
5793.66	0.521545	2.56653e-05
5794.56	0.520721	0.00176849
5795.4	0.52066	1.40076e-05
5796.3	0.520844	2.70996e-05
5797.2	0.520996	0.000591736
5798.04	0.520721	1.36719e-05
5798.94	0.521118	2.52686e-05
5799.84	0.52063	0.00028598
5800.68	0.520844	1.297e-05
5801.58	0.520691	2.45667e-05
5802.48	0.520813	0.000157013
5803.34	-0.69751	-0.0227142
5804.22	0.521698	1.60217e-05
5805.12	0.521729	9.53979e-05
5805.98	-0.698456	-0.0185455
5806.86	0.52063	2.14844e-05
5807.76	0.520691	7.17773e-05
5808.64	0.000180054	0.0036499
5809.5	0.52066	2.07825e-05
5810.4	0.521698	5.01709e-05
5811.28	-0.000256348	0.00265778
5812.14	0.521515	1.5686e-05
5813.04	0.52066	4.71191e-05
5813.94	0.520203	0.0150543
5814.78	0.520813	1.67847e-05
5815.68	0.521454	3.65601e-05
5816.58	0.520081	0.0115326
5817.42	0.521698	1.00098e-05
5818.32	0.520782	3.57056e-05
5819.22	0.520142	0.00804749
5820.06	0.52063	1.61133e-05
5820.96	0.520874	3.14636e-05
5821.86	0.520691	0.00182068
5822.7	0.520966	1.3916e-05
5823.6	0.52066	2.90527e-05
5824.5	0.521545	0.000603638
5825.34	0.521576	1.01929e-05
5826.24	0.520935	2.49939e-05
5827.14	0.521637	0.00028479
5827.98	0.521637	8.11768e-06
5828.88	0.521149	2.20032e-05
5829.78	0.52066	0.000162933
5830.64	-0.697998	-0.0227448
5831.52	0.521118	2.01416e-05
5832.42	0.521545	9.93347e-05
5833.28	-0.698029	-0.0186005
5834.16	0.521545	1.48621e-05
5835.06	0.520844	7.21436e-05
5835.94	0.00062561	0.00360138
5836.8	0.52066	2.08435e-05
5837.7	0.521027	5.58777e-05
5838.58	-0.000338745	0.00262085
5839.44	0.521027	1.57776e-05
5840.34	0.521667	4.09546e-05
5841.24	0.519989	0.0150391
5842.08	0.521515	1.27563e-05
5842.98	0.521393	3.53394e-05
5843.88	0.520477	0.0115387
5844.72	0.521301	1.31531e-05
5845.62	0.521637	2.87476e-05
5846.52	0.520416	0.00808716
5847.36	0.521423	1.00708e-05
5848.26	0.521515	2.74658e-05
5849.16	0.521454	0.00187439
5850	0.521393	1.01318e-05
5850.9	0.521301	2.31628e-05
5851.8	0.521637	0.000616455
5852.64	0.520844	1.3916e-05
5853.54	0.521027	2.4292e-05
5854.44	0.520721	0.000298492
5855.28	0.52063	1.34277e-05
5856.18	0.521698	1.75171e-05
5857.08	0.520691	0.000166077
5857.94	-0.698273	-0.0227661
5858.82	0.520935	2.14539e-05
5859.72	0.520782	0.000103363
5860.58	-0.69873	-0.0186279
5861.46	0.521454	1.70593e-05
5862.36	0.520599	7.40662e-05
5863.24	0.000256348	0.00357239
5864.1	0.521576	1.40686e-05
5865	0.521118	5.40466e-05
5865.88	0.000738525	0.00259552
5866.74	0.521667	1.2207e-05
5867.64	0.521118	4.49829e-05
5868.54	0.520447	0.0150299
5869.38	0.520691	1.74561e-05
5870.28	0.520874	4.04968e-05
5871.18	0.521057	0.0115448
5872.02	0.520782	1.56555e-05
5872.92	0.521606	3.04871e-05
5873.82	0.521301	0.00812073
5874.66	0.521667	1.01929e-05
5875.56	0.520691	3.25928e-05
5876.46	0.521332	0.00192108
5877.3	0.521667	8.54492e-06
5878.2	0.52066	2.84119e-05
5879.1	0.520996	0.000631714
5879.94	0.52066	1.40991e-05
5880.84	0.520813	2.46582e-05
5881.74	0.520844	0.000301392
5882.58	0.521393	9.52148e-06
5883.48	0.520691	2.50549e-05
5884.38	0.521667	0.000163971
5885.24	-0.698181	-0.0227875
5886.12	0.521118	2.06909e-05
5887.02	0.52124	0.000101837
5887.88	-0.698181	-0.0186523
5888.76	0.521576	1.5564e-05
5889.66	0.52066	7.44019e-05
5890.54	-0.000405884	0.00354248
5891.4	0.521576	1.48315e-05
5892.3	0.521637	5.1239e-05
5893.18	0.000509644	0.00256561
5894.04	0.52063	1.97449e-05
5894.94	0.520691	4.72717e-05
5895.84	0.520905	0.0150055
5896.68	0.521729	1.11694e-05
5897.58	0.521698	3.57666e-05
5898.48	0.520111	0.0115601
5899.32	0.52066	1.66016e-05
5900.22	0.521484	3.1189e-05
5901.12	0.520294	0.00816345
5901.96	0.520599	1.68457e-05
5902.86	0.520691	3.23486e-05
5903.76	0.521118	0.00197754
5904.6	0.52063	1.59912e-05
5905.5	0.52063	2.93274e-05
5906.4	0.520691	0.000647278
5907.24	0.521576	8.27026e-06
5908.14	0.521729	1.98059e-05
5909.04	0.521393	0.000302185
5909.88	0.520721	1.43433e-05
5910.78	0.521118	2.09045e-05
5911.68	0.521667	0.000164703
5912.54	-0.697968	-0.0228058
5913.42	0.521515	1.72424e-05
5914.32	0.521698	0.000100494
5915.18	-0.698761	-0.0186829
5916.06	0.521332	1.58386e-05
5916.96	0.52066	7.56836e-05
5917.84	0.000408936	0.00351379
5918.7	0.520782	1.85547e-05
5919.6	0.521149	5.58167e-05
5920.48	6.40869e-05	0.00255096
5921.34	0.521027	1.70898e-05
5922.24	0.521576	4.18091e-05
5923.14	0.520905	0.0150085
5923.98	0.521759	1.10779e-05
5924.88	0.520752	4.04968e-05
5925.78	0.521088	0.0115601
5926.62	0.52066	1.76392e-05
5927.52	0.521423	2.99072e-05
5928.42	0.520905	0.00819092
5929.26	0.520691	1.68152e-05
5930.16	0.520752	3.16467e-05
5931.06	0.520935	0.00201843
5931.9	0.521637	9.61304e-06
5932.8	0.521667	2.18811e-05
5933.7	0.52066	0.000658875
5934.54	0.52063	1.38855e-05
5935.44	0.520691	2.72827e-05
5936.34	0.521027	0.000308472
5937.18	0.521698	8.02612e-06
5938.08	0.520721	2.46277e-05
5938.98	0.520721	0.000171967
5939.84	-0.697845	-0.0228149
5940.72	0.521454	1.87073e-05
5941.62	0.520752	0.000108734
5942.48	-0.698547	-0.0187134
5943.36	0.520813	2.1637e-05
5944.26	0.52066	7.63245e-05
5945.14	-0.000234985	0.00349396
5946	0.521759	1.20239e-05
5946.9	0.520905	5.62134e-05
5947.78	0.000296021	0.00253021
5948.64	0.521576	1.42517e-05
5949.54	0.52063	4.80042e-05
5950.44	0.519897	0.0150177
5951.28	0.520813	1.74255e-05
5952.18	0.52066	4.06189e-05
5953.08	0.520264	0.0115845
5953.92	0.521667	1.05896e-05
5954.82	0.521118	3.39966e-05
5955.72	0.521088	0.00822449
5956.56	0.521362	1.11694e-05
5957.46	0.521057	3.0426e-05
5958.36	0.521179	0.00206451
5959.2	0.52179	8.57544e-06
5960.1	0.521271	2.51465e-05
5961	0.521057	0.00066864
5961.84	0.520691	1.51062e-05
5962.74	0.521454	2.02332e-05
5963.64	0.521057	0.000315216
5964.48	0.521301	1.05591e-05
5965.38	0.520721	2.55737e-05
5966.28	0.521179	0.000173553
5967.14	-0.697418	-0.0228271
5968.02	0.52121	2.005e-05
5968.92	0.520721	0.000109619
5969.78	-0.698883	-0.0187439
5970.66	0.521606	1.51062e-05
5971.56	0.521698	7.01599e-05
5972.44	0.000628662	0.00346069
5973.3	0.521454	1.48926e-05
5974.2	0.521729	5.31616e-05
5975.08	0.000686646	0.00250275
5975.94	0.521271	1.67542e-05
5976.84	0.52063	4.85535e-05
5977.74	0.520935	0.0149994
5978.58	0.521271	1.49536e-05
5979.48	0.520752	3.99475e-05
5980.38	0.520172	0.0115845
5981.22	0.521637	1.05896e-05
5982.12	0.521637	2.94189e-05
5983.02	0.521149	0.00824585
5983.86	0.52063	1.68152e-05
5984.76	0.521118	3.02124e-05
5985.66	0.520874	0.00211517
5986.5	0.521362	1.0437e-05
5987.4	0.520782	2.92053e-05
5988.3	0.521637	0.000674744
5989.14	0.520844	1.50757e-05
5990.04	0.52066	2.69775e-05
5990.94	0.521332	0.000319916
5991.78	0.52124	1.16272e-05
5992.68	0.520782	2.38037e-05
5993.58	0.521606	0.000173004
5994.44	-0.698456	-0.0228546
5995.32	0.520691	2.38647e-05
5996.22	0.52066	0.000111023
5997.08	-0.698547	-0.0187592
5997.96	0.520721	2.15759e-05
5998.86	0.521179	7.48291e-05
5999.74	-0.000350952	0.00344116
6000.6	0.520782	2.05078e-05
6001.5	0.521271	5.46875e-05
6002.38	0.000708008	0.00248016
6003.24	0.521576	1.33667e-05
6004.14	0.521759	4.16565e-05
6005.04	0.520966	0.0149811
6005.88	0.521271	1.49841e-05
6006.78	0.521179	3.80249e-05
6007.68	0.520081	0.0115906
6008.52	0.521454	1.16577e-05
6009.42	0.521332	3.40881e-05
6010.32	0.520813	0.00828552
6011.16	0.52121	1.34888e-05
6012.06	0.520813	3.17993e-05
6012.96	0.520782	0.00215576
6013.8	0.52063	1.51978e-05
6014.7	0.521606	2.38342e-05
6015.6	0.521637	0.000683899
6016.44	0.520966	1.28174e-05
6017.34	0.521423	2.14233e-05
6018.24	0.520721	0.000327271
6019.08	0.52063	1.33057e-05
6019.98	0.521027	2.20032e-05
6020.88	0.52066	0.000183319
6021.74	-0.69809	-0.0228546
6022.62	0.521423	1.85852e-05
6023.52	0.521057	0.000111694
6024.38	-0.698792	-0.0187836
6025.26	0.521271	1.69983e-05
6026.16	0.52066	7.81555e-05
6027.04	-1.2207e-05	0.00341217
6027.9	0.520691	1.96533e-05
6028.8	0.521484	5.5603e-05
6029.68	-9.15527e-06	0.00246796
6030.54	0.520569	1.95923e-05
6031.44	0.52066	4.88281e-05
6032.34	0.520294	0.014978
6033.18	0.521698	1.15051e-05
6034.08	0.521729	3.54614e-05
6034.98	0.520599	0.0116028
6035.82	0.521606	9.73511e-06
6036.72	0.520966	3.41797e-05
6037.62	0.52121	0.00830688
6038.46	0.521698	9.39941e-06
6039.36	0.52124	2.87781e-05
6040.26	0.52121	0.00216919
6041.1	0.520752	1.50452e-05
6042	0.521057	2.66724e-05
6042.9	0.521606	0.000684814
6043.74	0.520782	1.41907e-05
6044.64	0.521698	2.05078e-05
6045.54	0.52066	0.000325836
6046.38	0.521637	7.93457e-06
6047.28	0.520599	2.49634e-05
6048.18	0.521027	0.000177734
6049.04	-0.697815	-0.0227631
6049.92	0.520691	2.27051e-05
6050.82	0.521698	0.000104889
6051.68	-0.698425	-0.0187073
6052.56	0.521576	1.49536e-05
6053.46	0.52124	7.30591e-05
6054.34	0.000631714	0.00345184
6055.2	0.520905	1.75476e-05
6056.1	0.521454	5.52673e-05
6056.98	0.000378418	0.00248993
6057.84	0.520752	1.80359e-05
6058.74	0.52063	4.87061e-05
6059.64	0.520782	0.0150055
6060.48	0.521057	1.71509e-05
6061.38	0.52066	4.12598e-05
6062.28	0.521149	0.0115936
6063.12	0.521393	1.26953e-05
6064.02	0.52063	3.68042e-05
6064.92	0.521179	0.008255
6065.76	0.520691	1.59912e-05
6066.66	0.521729	2.62146e-05
6067.56	0.521332	0.00207458
6068.4	0.521576	9.42993e-06
6069.3	0.521484	2.52991e-05
6070.2	0.52066	0.00068573
6071.04	0.520813	1.37329e-05
6071.94	0.520691	2.64893e-05
6072.84	0.520844	0.000319672
6073.68	0.521088	1.19019e-05
6074.58	0.521637	1.84326e-05
6075.48	0.521606	0.00017218
6076.34	-0.698151	-0.0227112
6077.22	0.521393	1.78528e-05
6078.12	0.521057	0.00011084
6078.98	-0.698364	-0.0186859
6079.86	0.521576	1.59302e-05
6080.76	0.521515	7.1991e-05
6081.64	-0.000195313	0.00346161
6082.5	0.520721	2.02332e-05
6083.4	0.520813	5.92041e-05
6084.28	0.000228882	0.00249969
6085.14	0.521057	1.50452e-05
6086.04	0.521301	4.49219e-05
6086.94	0.520752	0.0149994
6087.78	0.521484	1.22375e-05
6088.68	0.520813	4.0863e-05
6089.58	0.520294	0.0116058
6090.42	0.521332	1.25732e-05
6091.32	0.521027	3.36914e-05
6092.22	0.520935	0.00826111
6093.06	0.520874	1.51367e-05
6093.96	0.521393	2.73743e-05
6094.86	0.52063	0.00207611
6095.7	0.520721	1.49536e-05
6096.6	0.520782	2.83813e-05
6097.5	0.521606	0.000684509
6098.34	0.520691	1.33972e-05
6099.24	0.520691	2.67029e-05
6100.14	0.520782	0.000329102
6100.98	0.521271	1.04675e-05
6101.88	0.520721	2.53906e-05
6102.78	0.52121	0.000180298
6103.64	-0.698395	-0.0227753
6104.52	0.520844	2.18506e-05
6105.42	0.521088	0.000112915
6106.28	-0.698486	-0.0187469
6107.16	0.521484	1.60522e-05
6108.06	0.521729	7.36084e-05
6108.94	-0.000326538	0.00341339
6109.8	0.521759	1.42212e-05
6110.7	0.521088	5.83801e-05
6111.58	-0.000247192	0.00246033
6112.44	0.521729	1.35803e-05
6113.34	0.521637	4.245e-05
6114.24	0.519897	0.0149933
6115.08	0.521301	1.42822e-05
6115.98	0.52124	3.90015e-05
6116.88	0.520935	0.0116119
6117.72	0.521301	1.34888e-05
6118.62	0.521606	2.99988e-05
6119.52	0.521149	0.00831299
6120.36	0.521057	1.39771e-05
6121.26	0.521484	2.71912e-05
6122.16	0.521057	0.002164
6123	0.521545	1.05896e-05
6123.9	0.521118	2.67944e-05
6124.8	0.52063	0.000710449
6125.64	0.52066	1.45569e-05
6126.54	0.520721	2.50244e-05
6127.44	0.521454	0.000333649
6128.28	0.52066	1.40686e-05
6129.18	0.521698	1.89514e-05
6130.08	0.520569	0.000187988
6130.94	-0.69812	-0.0228058
6131.82	0.521545	1.8158e-05
6132.72	0.520813	0.000115204
6133.58	-0.698792	-0.0187866
6134.46	0.521301	1.7395e-05
6135.36	0.521698	7.39136e-05
6136.24	0.000558472	0.00336334
6137.1	0.521088	1.78223e-05
6138	0.521515	5.67322e-05
6138.88	-0.000177002	0.00242371
6139.74	0.521301	1.66626e-05
6140.64	0.520721	4.91943e-05
6141.54	0.519836	0.0149719
6142.38	0.521606	1.27258e-05
6143.28	0.521484	3.6377e-05
6144.18	0.521027	0.011615
6145.02	0.520905	1.53503e-05
6145.92	0.52121	3.26538e-05
6146.82	0.520355	0.00834961
6147.66	0.52063	1.61133e-05
6148.56	0.521057	3.16467e-05
6149.46	0.521271	0.00224152
6150.3	0.520721	1.49841e-05
6151.2	0.521118	2.53906e-05
6152.1	0.521454	0.000719299
6152.94	0.521545	9.00269e-06
6153.84	0.520691	2.71606e-05
6154.74	0.521454	0.000338806
6155.58	0.520691	1.41296e-05
6156.48	0.520813	2.38037e-05
6157.38	0.520691	0.000192017
6158.24	-0.697876	-0.0228363
6159.12	0.521332	1.85852e-05
6160.02	0.520691	0.000118835
6160.88	-0.697968	-0.0188354
6161.76	0.521606	1.5686e-05
6162.66	0.520966	7.92236e-05
6163.54	-0.000262451	0.00333344
6164.4	0.521729	1.31531e-05
6165.3	0.521271	5.67017e-05
6166.18	-0.000283813	0.00239441
6167.04	0.521393	1.4679e-05
6167.94	0.521698	4.41895e-05
6168.84	0.520386	0.0149506
6169.68	0.521545	1.29395e-05
6170.58	0.520996	4.01917e-05
6171.48	0.520599	0.0116241
6172.32	0.520813	1.62354e-05
6173.22	0.521271	3.26233e-05
6174.12	0.521149	0.00838013
6174.96	0.521667	9.70459e-06
6175.86	0.521484	2.69165e-05
6176.76	0.520752	0.00232147
6177.6	0.520874	1.18408e-05
6178.5	0.520844	2.82898e-05
6179.4	0.520996	0.000740662
6180.24	0.521423	1.09253e-05
6181.14	0.521484	2.27051e-05
6182.04	0.521393	0.000347076
6182.88	0.52121	1.01318e-05
6183.78	0.521667	1.85547e-05
6184.68	0.521729	0.000188782
6185.54	-0.697845	-0.0228729
6186.42	0.520874	2.1637e-05
6187.32	0.521576	0.00011496
6188.18	-0.698395	-0.0188751
6189.06	0.521606	1.49841e-05
6189.96	0.521606	7.67517e-05
6190.84	1.2207e-05	0.00329742
6191.7	0.521271	1.69678e-05
6192.6	0.521667	5.42908e-05
6193.48	-0.000222778	0.00236847
6194.34	0.521332	1.43127e-05
6195.24	0.521606	4.40063e-05
6196.14	0.519989	0.0149536
6196.98	0.521362	1.44958e-05
6197.88	0.521545	3.63464e-05
6198.78	0.520874	0.0116302
6199.62	0.520844	1.58081e-05
6200.52	0.520752	3.57361e-05
6201.42	0.520569	0.00841064
6202.26	0.520691	1.66016e-05
6203.16	0.521576	2.71912e-05
6204.06	0.520844	0.00237793
6204.9	0.521423	1.07727e-05
6205.8	0.521179	2.5238e-05
6206.7	0.52124	0.000750732
6207.54	0.520721	1.51062e-05
6208.44	0.521057	2.48108e-05
6209.34	0.521667	0.000351837
6210.18	0.521576	7.69043e-06
6211.08	0.521057	2.19727e-05
6211.98	0.520905	0.000197144
6212.84	-0.698273	-0.0228943
6213.72	0.520996	2.07825e-05
6214.62	0.521576	0.000116669
6215.48	-0.698486	-0.0188965
6216.36	0.520813	2.12097e-05
6217.26	0.521484	7.84912e-05
6218.14	0.000280762	0.00326782
6219	0.520813	1.9928e-05
6219.9	0.521088	5.94177e-05
6220.78	0.000439453	0.00234344
6221.64	0.520782	1.84631e-05
6222.54	0.521362	4.51965e-05
6223.44	0.520752	0.0149414
6224.28	0.52124	1.53503e-05
6225.18	0.521088	4.08325e-05
6226.08	0.52066	0.0116364
6226.92	0.520935	1.43127e-05
6227.82	0.520752	3.60413e-05
6228.72	0.521179	0.00844421
6229.56	0.520844	1.54419e-05
6230.46	0.521423	2.80457e-05
6231.36	0.52124	0.00244202
6232.2	0.520966	1.33972e-05
6233.1	0.521606	2.36816e-05
6234	0.520905	0.000766907
6234.84	0.520813	1.39771e-05
6235.74	0.520752	2.63672e-05
6236.64	0.521271	0.000360046
6237.48	0.521606	8.3313e-06
6238.38	0.520721	2.36816e-05
6239.28	0.520752	0.000201019
6240.14	-0.697723	-0.0229095
6241.02	0.521332	1.97144e-05
6241.92	0.521515	0.000117493
6242.78	-0.698364	-0.018927
6243.66	0.521545	1.61133e-05
6244.56	0.520874	8.35571e-05
6245.44	0.000518799	0.00323334
6246.3	0.521301	1.53809e-05
6247.2	0.520782	6.20117e-05
6248.08	0.000115967	0.00231598
6248.94	0.521606	1.32446e-05
6249.84	0.521637	4.46167e-05
6250.74	0.520294	0.0149323
6251.58	0.521637	1.35498e-05
6252.48	0.521667	3.6499e-05
6253.38	0.520172	0.0116455
6254.22	0.520752	1.74255e-05
6255.12	0.521332	3.38745e-05
6256.02	0.52124	0.00847168
6256.86	0.520996	1.43433e-05
6257.76	0.521454	2.77405e-05
6258.66	0.52063	0.0025058
6259.5	0.521027	1.37329e-05
6260.4	0.521027	2.74353e-05
6261.3	0.521545	0.000776978
6262.14	0.521545	1.00098e-05
6263.04	0.520599	2.64282e-05
6263.94	0.521088	0.000367859
6264.78	0.521576	7.41577e-06
6265.68	0.521637	1.88904e-05
6266.58	0.52179	0.000199097
6267.44	-0.698425	-0.0229279
6268.32	0.521393	1.93787e-05
6269.22	0.521545	0.000120544
6270.08	-0.698059	-0.0189606
6270.96	0.520935	2.03857e-05
6271.86	0.521698	7.84912e-05
6272.74	-0.000192261	0.00321228
6273.6	0.521637	1.36414e-05
6274.5	0.521423	5.81665e-05
6275.38	0.000219727	0.00229584
6276.24	0.52063	1.97449e-05
6277.14	0.521698	4.40674e-05
6278.04	0.519897	0.014917
6278.88	0.52066	1.9165e-05
6279.78	0.52179	3.60718e-05
6280.68	0.520142	0.0116516
6281.52	0.521637	1.18103e-05
6282.42	0.52066	3.68042e-05
6283.32	0.52066	0.00849915
6284.16	0.521545	1.01624e-05
6285.06	0.52124	2.93579e-05
6285.96	0.521606	0.00256317
6286.8	0.521698	9.30786e-06
6287.7	0.521179	2.51465e-05
6288.6	0.520782	0.000795898
6289.44	0.52066	1.51978e-05
6290.34	0.521332	2.18506e-05
6291.24	0.521545	0.000373108
6292.08	0.520752	1.3855e-05
6292.98	0.521729	1.87378e-05
6293.88	0.520691	0.000207642
6294.74	-0.697845	-0.0229553
6295.62	0.520874	2.23999e-05
6296.52	0.520966	0.000124908
6297.38	-0.698029	-0.0189941
6298.26	0.520752	2.10266e-05
6299.16	0.521118	8.19092e-05
6300.04	0.000161743	0.00318329
6300.9	0.52124	1.53198e-05
6301.8	0.521606	5.81055e-05
6302.68	0.000588989	0.00227661
6303.54	0.520752	1.98669e-05
6304.44	0.521667	4.55322e-05
6305.34	0.52063	0.0149261
6306.18	0.521301	1.49841e-05
6307.08	0.521423	3.68347e-05
6307.98	0.520172	0.0116516
6308.82	0.520569	1.81274e-05
6309.72	0.521667	3.06396e-05
6310.62	0.520386	0.00852051
6311.46	0.521515	1.12915e-05
6312.36	0.521332	2.76489e-05
6313.26	0.521576	0.00262695
6314.1	0.521301	1.18408e-05
6315	0.521515	2.41089e-05
6315.9	0.521393	0.000803833
6316.74	0.521454	8.94165e-06
6317.64	0.521698	2.09656e-05
6318.54	0.521515	0.000376587
6319.38	0.521606	7.93457e-06
6320.28	0.520813	2.51465e-05
6321.18	0.521667	0.000204407
6322.04	-0.697754	-0.0229919
6322.92	0.521576	1.76086e-05
6323.82	0.521057	0.000127289
6324.68	-0.698059	-0.0190338
6325.56	0.521515	1.51672e-05
6326.46	0.521515	8.13599e-05
6327.34	0.000576782	0.00316406
6328.2	0.520935	1.92261e-05
6329.1	0.520966	6.14929e-05
6329.98	0	0.00226318
6330.84	0.521027	1.70593e-05
6331.74	0.521027	4.75159e-05
6332.64	0.520477	0.0149323
6333.48	0.521118	1.33362e-05
6334.38	0.520996	4.09851e-05
6335.28	0.520081	0.0116547
6336.12	0.521667	1.10779e-05
6337.02	0.520966	3.44238e-05
6337.92	0.521271	0.00854797
6338.76	0.521606	1.04675e-05
6339.66	0.520721	3.25317e-05
6340.56	0.521515	0.00269257
6341.4	0.520813	1.31836e-05
6342.3	0.52066	2.96936e-05
6343.2	0.52063	0.00082489
6344.04	0.52124	1.09863e-05
6344.94	0.521545	2.0752e-05
6345.84	0.520721	0.000388458
6346.68	0.521027	1.25122e-05
6347.58	0.521667	1.97449e-05
6348.48	0.520782	0.000214264
6349.34	-0.697388	-0.0230164
6350.22	0.521545	1.87378e-05
6351.12	0.52063	0.000130646
6351.98	-0.698151	-0.0190674
6352.86	0.521393	1.66626e-05
6353.76	0.521606	8.18787e-05
6354.64	0.000646973	0.00313812
6355.5	0.52121	1.69678e-05
6356.4	0.521027	6.34766e-05
6357.28	-0.000152588	0.00224487
6358.14	0.521057	1.69067e-05
6359.04	0.52124	4.83093e-05
6359.94	0.519897	0.0149109
6360.78	0.521698	1.18713e-05
6361.68	0.521576	3.70483e-05
6362.58	0.521088	0.0116608
6363.42	0.520691	1.6571e-05
6364.32	0.520599	3.80554e-05
6365.22	0.520935	0.00856934
6366.06	0.521484	1.34888e-05
6366.96	0.520905	3.16162e-05
6367.86	0.52063	0.00275574
6368.7	0.521149	1.10779e-05
6369.6	0.521484	2.48413e-05
6370.5	0.521667	0.000830994
6371.34	0.521423	1.0498e-05
6372.24	0.521149	2.41394e-05
6373.14	0.521606	0.000389191
6373.98	0.520721	1.297e-05
6374.88	0.520874	2.37427e-05
6375.78	0.521698	0.000210449
6376.64	-0.698486	-0.0230164
6377.52	0.52179	1.66321e-05
6378.42	0.521667	0.000126648
6379.28	-0.698669	-0.0190826
6380.16	0.521484	1.76086e-05
6381.06	0.520691	8.8623e-05
6381.94	-0.000274658	0.00312378
6382.8	0.520752	1.97144e-05
6383.7	0.520874	6.3385e-05
6384.58	-0.000299072	0.00222748
6385.44	0.521423	1.50146e-05
6386.34	0.521057	4.91028e-05
6387.24	0.520935	0.0149078
6388.08	0.521667	1.15662e-05
6388.98	0.52179	3.6499e-05
6389.88	0.521118	0.0116638
6390.72	0.520935	1.5564e-05
6391.62	0.521698	3.12195e-05
6392.52	0.520203	0.0085907
6393.36	0.521301	1.26648e-05
6394.26	0.521515	2.75879e-05
6395.16	0.520874	0.00280701
6396	0.520599	1.59912e-05
6396.9	0.521545	2.49023e-05
6397.8	0.521698	0.000843201
6398.64	0.521423	8.60596e-06
6399.54	0.521515	2.23694e-05
6400.44	0.521423	0.000395386
6401.28	0.521393	1.12e-05
6402.18	0.52063	2.44751e-05
6403.08	0.520691	0.000218872
6403.94	-0.698395	-0.0230255
6404.82	0.521149	2.03857e-05
6405.72	0.521698	0.000127502
6406.58	-0.6987	-0.019104
6407.46	0.521545	1.61438e-05
6408.36	0.521088	8.73108e-05
6409.24	-0.000112915	0.00309479
6410.1	0.521027	1.83716e-05
6411	0.521301	6.10962e-05
6411.88	-2.13623e-05	0.00220215
6412.74	0.521729	1.27563e-05
6413.64	0.520905	4.84924e-05
6414.54	0.520355	0.0148956
6415.38	0.521545	1.28479e-05
6416.28	0.520813	4.19617e-05
6417.18	0.520264	0.0116638
6418.02	0.52066	1.70898e-05
6418.92	0.521484	3.25317e-05
6419.82	0.520355	0.00860901
6420.66	0.521729	1.01929e-05
6421.56	0.52124	2.83813e-05
6422.46	0.521393	0.00285309
6423.3	0.521545	9.15527e-06
6424.2	0.520813	2.8595e-05
6425.1	0.521362	0.000854187
6425.94	0.521088	1.32141e-05
6426.84	0.521667	2.06604e-05
6427.74	0.521271	0.000402435
6428.58	0.521149	1.09253e-05
6429.48	0.520721	2.48108e-05
6430.38	0.521637	0.000217163
6431.24	-0.697632	-0.0230377
6432.12	0.520721	2.35901e-05
6433.02	0.521301	0.000130432
6433.88	-0.69873	-0.0191193
6434.76	0.52066	2.30408e-05
6435.66	0.521362	8.7677e-05
6436.54	0.000515747	0.00307159
6437.4	0.520996	1.80969e-05
6438.3	0.521179	6.29272e-05
6439.18	2.74658e-05	0.00218933
6440.04	0.521484	1.40991e-05
6440.94	0.521271	4.88586e-05
6441.84	0.520416	0.0148926
6442.68	0.521729	1.08948e-05
6443.58	0.521515	3.75061e-05
6444.48	0.52002	0.011676
6445.32	0.520691	1.74866e-05
6446.22	0.521759	3.23486e-05
6447.12	0.521027	0.00861816
6447.96	0.520721	1.55029e-05
6448.86	0.520691	3.27759e-05
6449.76	0.520599	0.00290649
6450.6	0.521667	9.82666e-06
6451.5	0.520721	3.03345e-05
6452.4	0.521179	0.000869141
6453.24	0.52066	1.50452e-05
6454.14	0.521088	2.29492e-05
6455.04	0.521606	0.000405243
6455.88	0.520599	1.37329e-05
6456.78	0.521179	2.13623e-05
6457.68	0.52063	0.00022699
6458.54	-0.698395	-0.0230469
6459.42	0.52063	2.33765e-05
6460.32	0.521301	0.000132935
6461.18	-0.698395	-0.0191498
6462.06	0.521332	1.75171e-05
6462.96	0.520691	9.05457e-05
6463.84	-0.000299072	0.00305084
6464.7	0.521423	1.62048e-05
6465.6	0.520691	6.65283e-05
6466.48	0.000714111	0.00216431
6467.34	0.520599	1.86768e-05
6468.24	0.521606	4.6936e-05
6469.14	0.519867	0.0148834
6469.98	0.521667	1.18713e-05
6470.88	0.521362	3.9978e-05
6471.78	0.520782	0.0116852
6472.62	0.52066	1.77002e-05
6473.52	0.52121	3.36304e-05
6474.42	0.521332	0.00863953
6475.26	0.52124	1.19629e-05
6476.16	0.520813	3.31726e-05
6477.06	0.520569	0.00296387
6477.9	0.521484	9.3689e-06
6478.8	0.520752	2.82898e-05
6479.7	0.520599	0.000885925
6480.54	0.520721	1.36414e-05
6481.44	0.521057	2.48108e-05
6482.34	0.521423	0.000412262
6483.18	0.521515	8.05664e-06
6484.08	0.521271	2.24915e-05
6484.98	0.521118	0.000226837
6485.84	-0.698242	-0.0230621
6486.72	0.521576	1.70593e-05
6487.62	0.520844	0.00013858
6488.48	-0.697906	-0.0191681
6489.36	0.520905	2.10571e-05
6490.26	0.521759	8.5083e-05
6491.14	2.13623e-05	0.00303009
6492	0.520691	1.98669e-05
6492.9	0.521027	6.49109e-05
6493.78	-0.000305176	0.00215149
6494.64	0.52063	1.97449e-05
6495.54	0.521667	4.70581e-05
6496.44	0.519958	0.0148804
6497.28	0.520874	1.71814e-05
6498.18	0.52063	4.46472e-05
6499.08	0.520416	0.0116791
6499.92	0.520721	1.52893e-05
6500.82	0.521515	3.25317e-05
6501.72	0.521393	0.00866089
6502.56	0.521149	1.27869e-05
6503.46	0.521057	3.14941e-05
6504.36	0.521515	0.00301453
6505.2	0.521057	1.23596e-05
6506.1	0.521362	2.49023e-05
6507	0.521454	0.000892639
6507.84	0.52066	1.55945e-05
6508.74	0.520996	2.5238e-05
6509.64	0.520782	0.000421722
6510.48	0.520844	1.29089e-05
6511.38	0.520538	2.66113e-05
6512.28	0.521088	0.000230194
6513.14	-0.697754	-0.0230835
6514.02	0.521698	1.68457e-05
6514.92	0.521088	0.000137939
6515.78	-0.6987	-0.0191864
6516.66	0.52124	1.90735e-05
6517.56	0.521515	8.77686e-05
6518.44	0.000631714	0.00300232
6519.3	0.521118	1.89514e-05
6520.2	0.520752	6.69861e-05
6521.08	0.000427246	0.00212524
6521.94	0.520691	1.9104e-05
6522.84	0.521759	4.58069e-05
6523.74	0.52066	0.0148682
6524.58	0.520935	1.6571e-05
6525.48	0.520782	4.26025e-05
6526.38	0.52063	0.0116974
6527.22	0.52066	1.68457e-05
6528.12	0.52063	3.85742e-05
6529.02	0.52066	0.00869141
6529.86	0.520691	1.55334e-05
6530.76	0.521393	2.95105e-05
6531.66	0.521515	0.00307404
6532.5	0.520508	1.61438e-05
6533.4	0.521484	2.55737e-05
6534.3	0.521667	0.000903931
6535.14	0.520721	1.44958e-05
6536.04	0.521362	2.51465e-05
6536.94	0.521698	0.000422516
6537.78	0.52066	1.50146e-05
6538.68	0.520752	2.46582e-05
6539.58	0.521057	0.000232147
6540.44	-0.698181	-0.0230896
6541.32	0.521667	1.74255e-05
6542.22	0.521667	0.000135956
6543.08	-0.698456	-0.0192047
6543.96	0.521576	1.651e-05
6544.86	0.520782	9.38416e-05
6545.74	0.000613403	0.00298096
6546.6	0.521698	1.37024e-05
6547.5	0.521729	6.1615e-05
6548.38	-0.00010376	0.00211517
6549.24	0.520874	1.78528e-05
6550.14	0.520752	5.25818e-05
6551.04	0.520966	0.0148529
6551.88	0.52121	1.41296e-05
6552.78	0.520782	4.39758e-05
6553.68	0.520142	0.0116913
6554.52	0.52124	1.46179e-05
6555.42	0.521667	3.06091e-05
6556.32	0.520538	0.00870667
6557.16	0.521423	1.09863e-05
6558.06	0.521454	2.81677e-05
6558.96	0.520538	0.0031427
6559.8	0.521515	1.03455e-05
6560.7	0.52063	3.07312e-05
6561.6	0.521393	0.00092041
6562.44	0.520966	1.23291e-05
6563.34	0.52124	2.31934e-05
6564.24	0.521698	0.000428284
6565.08	0.521759	8.66699e-06
6565.98	0.520782	2.55737e-05
6566.88	0.52124	0.000233734
6567.74	-0.69809	-0.0230927
6568.62	0.521057	2.13928e-05
6569.52	0.521088	0.000141602
6570.38	-0.697571	-0.0192383
6571.26	0.521484	1.68762e-05
6572.16	0.521118	9.34448e-05
6573.04	-0.000262451	0.00296539
6573.9	0.521606	1.47705e-05
6574.8	0.521637	6.4209e-05
6575.68	0.000164795	0.00209167
6576.54	0.521088	1.55029e-05
6577.44	0.521454	4.89502e-05
6578.34	0.519897	0.01484375
6579.18	0.52063	1.828e-05
6580.08	0.521545	3.93677e-05
6580.98	0.521057	0.0116882
6581.82	0.520996	1.41907e-05
6582.72	0.521515	3.41187e-05
6583.62	0.520325	0.00871887
6584.46	0.520599	1.6571e-05
6585.36	0.521606	2.76794e-05
6586.26	0.520905	0.00318542
6587.1	0.520752	1.57166e-05
6588	0.521759	2.37427e-05
6588.9	0.520874	0.000933838
6589.74	0.521179	1.19629e-05
6590.64	0.520691	2.73743e-05
6591.54	0.52121	0.000437683
6592.38	0.521454	7.99561e-06
6593.28	0.521606	1.94397e-05
6594.18	0.520721	0.000241516
6595.04	-0.697449	-0.0231079
6595.92	0.52063	2.38953e-05
6596.82	0.521301	0.000142975
6597.68	-0.698608	-0.0192413
6598.56	0.520874	2.14539e-05
6599.46	0.521545	8.97827e-05
6600.34	0.00065918	0.00294342
6601.2	0.520691	2.00806e-05
6602.1	0.520782	6.91223e-05
6602.98	-2.74658e-05	0.00207886
6603.84	0.521606	1.30005e-05
6604.74	0.521057	5.12085e-05
6605.64	0.520111	0.0148376
6606.48	0.521271	1.4801e-05
6607.38	0.52179	3.7323e-05
6608.28	0.520569	0.0116943
6609.12	0.521179	1.41602e-05
6610.02	0.52066	3.80554e-05
6610.92	0.520477	0.00874329
6611.76	0.521149	1.40686e-05
6612.66	0.52063	3.39966e-05
6613.56	0.521057	0.00324585
6614.4	0.52063	1.5686e-05
6615.3	0.520966	2.91138e-05
6616.2	0.521545	0.000943604
6617.04	0.521179	1.25732e-05
6617.94	0.520721	2.72217e-05
6618.84	0.52179	0.00043927
6619.68	0.520813	1.36108e-05
6620.58	0.521027	2.42615e-05
6621.48	0.521667	0.000239716
6622.34	-0.698334	-0.0231018
6623.22	0.521606	1.75781e-05
6624.12	0.521667	0.000141876
6624.98	-0.698334	-0.0192596
6625.86	0.52066	2.21863e-05
6626.76	0.521362	9.27734e-05
6627.64	0.000164795	0.00292236
6628.5	0.520782	1.84937e-05
6629.4	0.521698	6.40259e-05
6630.28	-0.000271606	0.00206055
6631.14	0.520935	1.75476e-05
6632.04	0.521454	4.776e-05
6632.94	0.519897	0.0148346
6633.78	0.521545	1.35803e-05
6634.68	0.520691	4.41284e-05
6635.58	0.520325	0.0117004
6636.42	0.52066	1.80359e-05
6637.32	0.520721	3.85437e-05
6638.22	0.520447	0.0087616
6639.06	0.521027	1.51978e-05
6639.96	0.520782	3.29285e-05
6640.86	0.521545	0.00330353
6641.7	0.521027	1.33057e-05
6642.6	0.521179	2.75574e-05
6643.5	0.520538	0.000961304
6644.34	0.521027	1.35498e-05
6645.24	0.521057	2.49023e-05
6646.14	0.521423	0.00044751
6646.98	0.521759	7.44629e-06
6647.88	0.521729	1.95618e-05
6648.78	0.520691	0.00024823
6649.64	-0.698395	-0.0231201
6650.52	0.520691	2.36816e-05
6651.42	0.52063	0.000150116
6652.28	-0.697906	-0.0192841
6653.16	0.520721	2.20642e-05
6654.06	0.521484	9.37805e-05
6654.94	-0.000170898	0.00290039
6655.8	0.520599	2.05078e-05
6656.7	0.521637	6.39038e-05
6657.58	0.000540161	0.00203949
6658.44	0.521149	1.62964e-05
6659.34	0.520599	5.43823e-05
6660.24	0.520203	0.0148376
6661.08	0.521393	1.27563e-05
6661.98	0.521729	3.93066e-05
6662.88	0.520203	0.0117004
6663.72	0.520721	1.77002e-05
6664.62	0.52121	3.49731e-05
6665.52	0.521301	0.00875854
6666.36	0.52121	1.36108e-05
6667.26	0.520966	3.21045e-05
6668.16	0.521118	0.00335632
6669	0.520935	1.22681e-05
6669.9	0.521179	2.68555e-05
6670.8	0.521393	0.000970459
6671.64	0.52063	1.52283e-05
6672.54	0.521454	2.28577e-05
6673.44	0.521729	0.000451538
6674.28	0.521484	8.72803e-06
6675.18	0.521637	1.9165e-05
6676.08	0.521667	0.000245728
6676.94	-0.698425	-0.0231293
6677.82	0.52066	2.40479e-05
6678.72	0.520905	0.000151276
6679.58	-0.697723	-0.0193024
6680.46	0.521423	1.87073e-05
6681.36	0.520599	0.000100098
6682.24	-0.000234985	0.00287781
6683.1	0.521454	1.55334e-05
6684	0.521729	6.51855e-05
6684.88	0.000326538	0.00201538
6685.74	0.521088	1.73035e-05
6686.64	0.521271	5.25818e-05
6687.54	0.520905	0.0148193
6688.38	0.521057	1.84021e-05
6689.28	0.521423	4.02527e-05
6690.18	0.520599	0.0116974
6691.02	0.520691	1.69373e-05
6691.92	0.521698	3.28369e-05
6692.82	0.521301	0.00878296
6693.66	0.521576	1.08032e-05
6694.56	0.520752	3.35693e-05
6695.46	0.521637	0.00342651
6696.3	0.520966	1.42212e-05
6697.2	0.520782	2.97546e-05
6698.1	0.521301	0.000983276
6698.94	0.521729	8.23975e-06
6699.84	0.520844	2.44446e-05
6700.74	0.520721	0.000463104
6701.58	0.521057	1.22986e-05
6702.48	0.520752	2.56958e-05
6703.38	0.520752	0.000255371
6704.24	-0.697571	-0.0231476
6705.12	0.521606	1.76086e-05
6706.02	0.521698	0.000147705
6706.88	-0.698669	-0.0193176
6707.76	0.521576	1.52893e-05
6708.66	0.520874	9.91516e-05
6709.54	-0.000366211	0.00285736
6710.4	0.52066	2.07214e-05
6711.3	0.521698	6.58264e-05
6712.18	-0.00010376	0.0020047
6713.04	0.521667	1.28784e-05
6713.94	0.52066	5.55725e-05
6714.84	0.520782	0.014801
6715.68	0.520874	1.69983e-05
6716.58	0.521545	4.08936e-05
6717.48	0.520294	0.0117126
6718.32	0.520752	1.70898e-05
6719.22	0.521759	3.19214e-05
6720.12	0.521118	0.00879822
6720.96	0.521698	9.94873e-06
6721.86	0.520935	3.21045e-05
6722.76	0.520569	0.0034906
6723.6	0.520996	1.44958e-05
6724.5	0.52063	3.07922e-05
6725.4	0.521515	0.000997009
6726.24	0.520782	1.44043e-05
6727.14	0.520721	2.78931e-05
6728.04	0.520691	0.000471191
6728.88	0.520752	1.22986e-05
6729.78	0.521637	1.96838e-05
6730.68	0.52121	0.000253906
6731.54	-0.698425	-0.0231537
6732.42	0.521729	1.81274e-05
6733.32	0.520966	0.000152924
6734.18	-0.697906	-0.0193481
6735.06	0.521332	1.78528e-05
6735.96	0.52124	9.82666e-05
6736.84	0.000204468	0.00283051
6737.7	0.521027	1.89514e-05
6738.6	0.52066	7.26013e-05
6739.48	0.000759888	0.00198059
6740.34	0.520721	2.01416e-05
6741.24	0.520721	5.5542e-05
6742.14	0.520905	0.0148041
6742.98	0.520691	1.89819e-05
6743.88	0.521729	3.90625E-05
6744.78	0.520203	0.0117096
6745.62	0.520569	1.74255e-05
6746.52	0.521515	3.35083e-05
6747.42	0.521057	0.00881653
6748.26	0.521423	1.34277e-05
6749.16	0.520966	3.2135e-05
6750.06	0.521301	0.00354156
6750.9	0.521576	9.64355e-06
6751.8	0.521667	2.48413e-05
6752.7	0.521606	0.001008
6753.54	0.521667	8.97217e-06
6754.44	0.521179	2.46277e-05
6755.34	0.521667	0.000470856
6756.18	0.521301	1.23291e-05
6757.08	0.521088	2.34375e-05
6757.98	0.520966	0.000259155
6758.84	-0.697693	-0.0231628
6759.72	0.52124	2.16675e-05
6760.62	0.521729	0.000151703
6761.48	-0.697845	-0.0193634
6762.36	0.52121	1.83105e-05
6763.26	0.520752	0.000101776
6764.14	0.000680542	0.00281006
6765	0.521729	1.41602e-05
6765.9	0.520752	7.2052e-05
6766.78	0.000280762	0.00196136
6767.64	0.521851	1.35193e-05
6768.54	0.521393	5.09644e-05
6769.44	0.520386	0.0147888
6770.28	0.520721	1.828e-05
6771.18	0.520569	4.64172e-05
6772.08	0.520081	0.0117126
6772.92	0.520782	1.61133e-05
6773.82	0.521667	3.2959e-05
6774.72	0.520325	0.00883484
6775.56	0.521515	1.04065e-05
6775.7	0.520813	1.44653e-05