File: Edgar/20240522/20240522/electrodeposition_pulsed_potential_20240522_A/pulses_1000_to_2000.txt
Time (s)	WE(1).Potential (V)	WE(1).Current (A)
1506.35	-0.69873	-0.0178894
1507.23	0.521545	-9.15527e-07
1508.13	0.52179	1.10168e-05
1508.99	-0.698639	-0.0122925
1509.87	0.521515	1.19019e-06
1510.77	0.521545	1.171875E-05
1511.65	-4.27246e-05	0.00831909
1512.51	0.521729	9.15527e-08
1513.41	0.521027	1.02539e-05
1514.29	-0.000463867	0.00550201
1515.15	0.52066	5.15747e-06
1516.05	0.521027	1.05591e-05
1516.95	0.521271	0.012854
1517.79	0.521118	1.80054e-06
1518.69	0.521576	5.40161e-06
1519.59	0.520752	0.000732422
1520.43	0.521545	-3.66211e-07
1521.33	0.520782	9.82666e-06
1522.23	0.520844	0.000153046
1523.07	0.521606	-5.49316e-07
1523.97	0.520905	7.08008e-06
1524.87	0.521698	6.45142e-05
1525.71	0.521454	8.23975e-07
1526.61	0.520752	7.84302e-06
1527.51	0.521759	3.76587e-05
1528.35	0.520538	5.46265e-06
1529.25	0.521271	5.12695e-06
1530.15	0.520691	3.04565e-05
1530.99	0.520782	5.43213e-06
1531.89	0.520782	4.39453e-06
1532.79	0.520782	2.29187e-05
1533.65	-0.69873	-0.0179382
1534.53	0.521149	4.08936e-06
1535.43	0.52066	1.9104e-05
1536.29	-0.698212	-0.0123169
1537.17	0.521332	1.31226e-06
1538.07	0.52179	1.13831e-05
1538.95	-0.000250244	0.00834351
1539.81	0.520782	6.31714e-06
1540.71	0.521271	1.00708e-05
1541.59	0.000537109	0.00554565
1542.45	0.521362	1.80054e-06
1543.35	0.521729	5.46265e-06
1544.25	0.520325	0.0130157
1545.09	0.520691	5.88989e-06
1545.99	0.520874	1.08643e-05
1546.89	0.521667	0.000785217
1547.73	0.52066	5.61523e-06
1548.63	0.521515	4.97437e-06
1549.53	0.520691	0.000160553
1550.37	0.520813	4.27246e-06
1551.27	0.521271	8.66699e-06
1552.17	0.520691	7.44324e-05
1553.01	0.521576	-2.28882e-06
1553.91	0.521667	2.34985e-06
1554.81	0.521576	3.89709e-05
1555.65	0.521698	-2.44141e-07
1556.55	0.520996	5.27954e-06
1557.45	0.521301	2.76184e-05
1558.29	0.520966	3.8147e-06
1559.19	0.521576	1.2207e-06
1560.09	0.521729	1.68762e-05
1560.95	-0.698761	-0.0180237
1561.83	0.521332	2.92969e-06
1562.73	0.521149	1.76392e-05
1563.59	-0.69931	-0.012384
1564.47	0.520874	4.97437e-06
1565.37	0.521881	1.17493e-05
1566.25	-3.05176e-06	0.00832214
1567.11	0.521606	8.8501e-07
1568.01	0.521637	8.20923e-06
1568.89	0.000109863	0.00555481
1569.75	0.520721	6.10352e-06
1570.65	0.521698	7.32422e-06
1571.55	0.52121	0.0131378
1572.39	0.521301	1.98364e-06
1573.29	0.520782	1.18713e-05
1574.19	0.520599	0.00085022
1575.03	0.521729	-7.01904e-07
1575.93	0.521545	5.46265e-06
1576.83	0.520752	0.000166534
1577.67	0.52066	6.04248e-06
1578.57	0.521179	6.04248e-06
1579.47	0.521088	7.38525e-05
1580.31	0.521667	-2.65503e-06
1581.21	0.520813	8.94165e-06
1582.11	0.521088	4.47388e-05
1582.95	0.521637	-3.69263e-06
1583.85	0.520721	8.42285e-06
1584.75	0.521118	2.93579e-05
1585.59	0.52066	3.63159e-06
1586.49	0.520752	8.20923e-06
1587.39	0.520905	2.38037e-05
1588.25	-0.698303	-0.0181122
1589.13	0.521698	1.0376e-06
1590.03	0.520966	1.953125E-05
1590.89	-0.698242	-0.0124634
1591.77	0.520508	7.99561e-06
1592.67	0.521088	1.58997e-05
1593.55	-0.000390625	0.00827637
1594.41	0.521698	7.32422e-07
1595.31	0.520905	1.32751e-05
1596.19	-0.000219727	0.00555908
1597.05	0.520691	6.56128e-06
1597.95	0.520508	1.50146e-05
1598.85	0.520477	0.0132263
1599.69	0.520813	6.04248e-06
1600.59	0.521667	6.10352e-06
1601.49	0.520966	0.000899963
1602.33	0.521454	4.27246e-07
1603.23	0.521179	7.72095e-06
1604.13	0.521362	0.000167908
1604.97	0.520782	4.57764e-06
1605.87	0.521576	5.09644e-06
1606.77	0.52063	7.95898e-05
1607.61	0.521362	1.06812e-06
1608.51	0.521515	4.05884e-06
1609.41	0.520844	4.67834e-05
1610.25	0.520905	2.31934e-06
1611.15	0.520935	7.87354e-06
1612.05	0.521667	2.75574e-05
1612.89	0.520691	4.88281e-06
1613.79	0.52182	2.47192e-06
1614.69	0.521423	2.14844e-05
1615.55	-0.698578	-0.0181671
1616.43	0.520996	6.01196e-06
1617.33	0.520599	2.13623e-05
1618.19	-0.698822	-0.0125244
1619.07	0.520721	6.65283e-06
1619.97	0.520691	1.81885e-05
1620.85	-0.000360107	0.00823975
1621.71	0.521729	-3.05176e-08
1622.61	0.521729	9.27734e-06
1623.49	0.000680542	0.00554871
1624.35	0.521179	2.31934e-06
1625.25	0.52063	1.57166e-05
1626.15	0.52002	0.013327
1626.99	0.521881	-5.79834e-07
1627.89	0.521301	1.02539e-05
1628.79	0.521667	0.000958862
1629.63	0.520599	5.92041e-06
1630.53	0.52063	1.35193e-05
1631.43	0.520813	0.000179626
1632.27	0.521118	1.86157e-06
1633.17	0.520538	1.13525e-05
1634.07	0.521362	7.62024e-05
1634.91	0.521179	1.61743e-06
1635.81	0.520599	1.10168e-05
1636.71	0.521515	4.47693e-05
1637.55	0.521545	9.15527e-08
1638.45	0.521576	3.11279e-06
1639.35	0.521606	2.948e-05
1640.19	0.520752	5.85937e-06
1641.09	0.521729	8.8501e-07
1641.99	0.52179	1.85242e-05
1642.85	-0.698334	-0.0182404
1643.73	0.52063	7.26318e-06
1644.63	0.521088	1.87378e-05
1645.49	-0.698303	-0.0126129
1646.37	0.521729	7.32422e-07
1647.27	0.521698	1.16272e-05
1648.15	-0.000186157	0.00820007
1649.01	0.520721	6.74438e-06
1649.91	0.520782	1.51062e-05
1650.79	-0.000421143	0.00554474
1651.65	0.521362	3.63159e-06
1652.55	0.520599	1.35193e-05
1653.45	0.521088	0.0134003
1654.29	0.521576	-4.57764e-07
1655.19	0.520569	1.26343e-05
1656.09	0.521606	0.00102692
1656.93	0.521667	-1.15967e-06
1657.83	0.520599	1.25427e-05
1658.73	0.521606	0.000182495
1659.57	0.521698	-6.10352e-08
1660.47	0.52063	1.10779e-05
1661.37	0.521515	7.76978e-05
1662.21	0.521667	1.09863e-06
1663.11	0.520844	8.42285e-06
1664.01	0.521179	4.61731e-05
1664.85	0.520996	1.2207e-07
1665.75	0.52066	9.09424e-06
1666.65	0.520752	3.52173e-05
1667.49	0.520538	5.82886e-06
1668.39	0.521515	3.57056e-06
1669.29	0.521088	2.45056e-05
1670.15	-0.698456	-0.0183167
1671.03	0.52063	9.67407e-06
1671.93	0.521545	1.64795e-05
1672.79	-0.699066	-0.0126678
1673.67	0.521301	3.9978e-06
1674.57	0.521088	1.61438e-05
1675.45	-0.000732422	0.00814514
1676.31	0.520691	8.14819e-06
1677.21	0.520721	1.71814e-05
1678.09	0.000308228	0.00553467
1678.95	0.520569	7.99561e-06
1679.85	0.52066	1.25427e-05
1680.75	0.520966	0.0134888
1681.59	0.520905	4.42505e-06
1682.49	0.521729	4.97437e-06
1683.39	0.520874	0.00109741
1684.23	0.52063	6.10352e-06
1685.13	0.520874	1.2207e-05
1686.03	0.520721	0.000193573
1686.87	0.521484	-5.79834e-07
1687.77	0.521484	4.63867e-06
1688.67	0.521362	8.19397e-05
1689.51	0.520996	3.75366e-06
1690.41	0.52063	1.06201e-05
1691.31	0.520782	5.34668e-05
1692.15	0.521606	1.06812e-06
1693.05	0.521729	2.0752e-06
1693.95	0.520752	3.72009e-05
1694.79	0.521484	8.23975e-07
1695.69	0.521484	2.96021e-06
1696.59	0.521301	2.27051e-05
1697.45	-0.697662	-0.0183838
1698.33	0.52121	5.0354e-06
1699.23	0.521393	1.99585e-05
1700.09	-0.699341	-0.012735
1700.97	0.521637	7.01904e-07
1701.87	0.521729	1.40686e-05
1702.75	0.000274658	0.00809021
1703.61	0.52124	4.21143e-06
1704.51	0.521515	1.08643e-05
1705.39	-0.000393677	0.00552521
1706.25	0.520691	7.20215e-06
1707.15	0.521576	8.08716e-06
1708.05	0.52002	0.013562
1708.89	0.520782	5.79834e-06
1709.79	0.521606	7.72095e-06
1710.69	0.520782	0.00117737
1711.53	0.521484	6.10352e-07
1712.43	0.520905	9.3689e-06
1713.33	0.521606	0.000197205
1714.17	0.521729	-1.34277e-06
1715.07	0.521332	6.56128e-06
1715.97	0.520721	8.87451e-05
1716.81	0.52063	4.39453e-06
1717.71	0.52063	1.09558e-05
1718.61	0.521759	4.62952e-05
1719.45	0.521149	1.5564e-06
1720.35	0.52121	5.52368e-06
1721.25	0.521515	3.13721e-05
1722.09	0.52063	4.91333e-06
1722.99	0.52124	5.00488e-06
1723.89	0.521606	2.32239e-05
1724.75	-0.698456	-0.0184631
1725.63	0.52121	5.40161e-06
1726.53	0.521698	1.7334e-05
1727.39	-0.69812	-0.0128113
1728.27	0.521698	2.28882e-06
1729.17	0.520599	1.98364e-05
1730.05	0.000170898	0.00805969
1730.91	0.521271	2.7771e-06
1731.81	0.520691	1.79749e-05
1732.69	-0.000375366	0.00551605
1733.55	0.520691	6.86646e-06
1734.45	0.520599	1.57166e-05
1735.35	0.520111	0.0136353
1736.19	0.52063	5.00488e-06
1737.09	0.520691	1.37634e-05
1737.99	0.521088	0.00124756
1738.83	0.521179	2.89917e-06
1739.73	0.521118	1.08032e-05
1740.63	0.521667	0.000202423
1741.47	0.520599	5.88989e-06
1742.37	0.52063	1.11389e-05
1743.27	0.521729	8.5022e-05
1744.11	0.521362	-1.2207e-06
1745.01	0.520752	1.00403e-05
1745.91	0.521759	4.70581e-05
1746.75	0.520538	5.95093e-06
1747.65	0.52121	6.74438e-06
1748.55	0.521729	3.10669e-05
1749.39	0.52179	-3.38745e-06
1750.29	0.520721	9.8877e-06
1751.19	0.521606	2.23694e-05
1752.05	-0.697937	-0.0185211
1752.93	0.521606	2.59399e-06
1753.83	0.520782	2.23083e-05
1754.69	-0.699036	-0.0128723
1755.57	0.520599	8.30078e-06
1756.47	0.520844	1.88599e-05
1757.35	-2.44141e-05	0.00801392
1758.21	0.520721	6.71387e-06
1759.11	0.520691	1.70593e-05
1759.99	-0.000430298	0.00550598
1760.85	0.520538	8.5144e-06
1761.75	0.520905	1.37939e-05
1762.65	0.520935	0.0136932
1763.49	0.520874	6.073e-06
1764.39	0.521484	8.30078e-06
1765.29	0.521027	0.00132538
1766.13	0.520721	7.50732e-06
1767.03	0.520752	1.07117e-05
1767.93	0.520996	0.000213623
1768.77	0.521545	-4.88281e-07
1769.67	0.521149	9.765625E-06
1770.57	0.52124	8.9325e-05
1771.41	0.52063	4.39453e-06
1772.31	0.521149	6.28662e-06
1773.21	0.521606	4.91638e-05
1774.05	0.521454	-1.52588e-07
1774.95	0.520599	1.06812e-05
1775.85	0.521057	3.5614e-05
1776.69	0.52121	3.75366e-06
1777.59	0.520905	8.88062e-06
1778.49	0.521423	2.50854e-05
1779.35	-0.69873	-0.0185944
1780.23	0.520935	7.8125e-06
1781.13	0.521423	1.93787e-05
1781.99	-0.69812	-0.0129456
1782.87	0.520813	7.78198e-06
1783.77	0.520813	1.86157e-05
1784.65	-0.000482178	0.00797729
1785.51	0.521759	1.00708e-06
1786.41	0.520691	1.72119e-05
1787.29	-0.000247192	0.00548859
1788.15	0.520844	4.5166e-06
1789.05	0.520844	1.41602e-05
1789.95	0.52063	0.0137573
1790.79	0.520905	4.24194e-06
1791.69	0.521301	8.94165e-06
1792.59	0.520752	0.00143158
1793.43	0.52179	6.40869e-07
1794.33	0.520905	1.02234e-05
1795.23	0.520782	0.000223541
1796.07	0.521149	3.08228e-06
1796.97	0.521637	5.15747e-06
1797.87	0.521576	9.08203e-05
1798.71	0.521729	-9.46045e-07
1799.61	0.52121	8.5144e-06
1800.51	0.521667	5.03845e-05
1801.35	0.521362	1.49536e-06
1802.25	0.521729	2.31934e-06
1803.15	0.521729	3.32947e-05
1803.99	0.521698	-1.58691e-06
1804.89	0.52063	1.03149e-05
1805.79	0.521667	2.38953e-05
1806.65	-0.698151	-0.0186584
1807.53	0.521362	6.71387e-06
1808.43	0.520569	2.48413e-05
1809.29	-0.698853	-0.0130005
1810.17	0.521698	8.54492e-07
1811.07	0.520935	1.84021e-05
1811.95	0.000280762	0.00792542
1812.81	0.52182	9.76562e-07
1813.71	0.521393	1.33972e-05
1814.59	0.000372314	0.00547119
1815.45	0.520721	4.97437e-06
1816.35	0.521759	9.94873e-06
1817.25	0.520081	0.0138275
1818.09	0.520508	8.17871e-06
1818.99	0.520996	1.19019e-05
1819.89	0.520752	0.00152252
1820.73	0.521545	-6.10352e-07
1821.63	0.521179	9.52148e-06
1822.53	0.52124	0.000229156
1823.37	0.521637	-8.8501e-07
1824.27	0.521332	6.68335e-06
1825.17	0.521271	9.61304e-05
1826.01	0.52182	9.15527e-08
1826.91	0.521301	5.7373e-06
1827.81	0.521301	5.50537e-05
1828.65	0.52179	-2.13623e-06
1829.55	0.521637	3.44849e-06
1830.45	0.521667	3.52173e-05
1831.29	0.520874	5.21851e-06
1832.19	0.520996	7.44629e-06
1833.09	0.520782	3.0365e-05
1833.95	-0.697937	-0.0187134
1834.83	0.520569	8.66699e-06
1835.73	0.521271	2.06604e-05
1836.59	-0.699005	-0.0130676
1837.47	0.521118	4.73022e-06
1838.37	0.521759	1.44958e-05
1839.25	-0.00055542	0.00787659
1840.11	0.52066	7.65991e-06
1841.01	0.521301	1.44958e-05
1841.89	-0.000415039	0.00546356
1842.75	0.520752	6.95801e-06
1843.65	0.521301	1.19934e-05
1844.55	0.520752	0.0138763
1845.39	0.520782	6.13403e-06
1846.29	0.520935	1.33057e-05
1847.19	0.521057	0.001633
1848.03	0.521332	1.92261e-06
1848.93	0.520569	1.35193e-05
1849.83	0.521729	0.0002341
1850.67	0.52066	5.31006e-06
1851.57	0.52063	1.05591e-05
1852.47	0.520905	0.000102875
1853.31	0.52063	6.5918e-06
1854.21	0.521454	4.79126e-06
1855.11	0.52066	6.10657e-05
1855.95	0.521332	1.19019e-06
1856.85	0.521698	3.87573e-06
1857.75	0.521667	3.51868e-05
1858.59	0.520782	5.27954e-06
1859.49	0.521637	3.57056e-06
1860.39	0.521454	2.71301e-05
1861.25	-0.697723	-0.0187866
1862.13	0.52121	4.79126e-06
1863.03	0.521698	1.95923e-05
1863.89	-0.69812	-0.0131378
1864.77	0.520996	6.68335e-06
1865.67	0.521118	2.05078e-05
1866.55	-0.000317383	0.00783691
1867.41	0.521454	3.50952e-06
1868.31	0.520691	1.86768e-05
1869.19	-0.000302124	0.00544861
1870.05	0.520538	6.74438e-06
1870.95	0.521667	1.11389e-05
1871.85	0.519958	0.0139404
1872.69	0.520752	7.08008e-06
1873.59	0.521271	1.10779e-05
1874.49	0.52066	0.00175171
1875.33	0.520752	6.56128e-06
1876.23	0.521301	8.54492e-06
1877.13	0.521423	0.000243896
1877.97	0.521332	1.46484e-06
1878.87	0.52124	8.20923e-06
1879.77	0.520599	0.000106873
1880.61	0.521759	-9.76562e-07
1881.51	0.520935	8.14819e-06
1882.41	0.520691	6.18286e-05
1883.25	0.52063	5.40161e-06
1884.15	0.520721	1.15356e-05
1885.05	0.521362	3.84827e-05
1885.89	0.521667	-1.2207e-06
1886.79	0.521851	2.99072e-06
1887.69	0.520721	3.23792e-05
1888.55	-0.698853	-0.0188354
1889.43	0.520508	9.58252e-06
1890.33	0.521362	2.19116e-05
1891.19	-0.698303	-0.0131927
1892.07	0.521606	2.92969e-06
1892.97	0.521729	1.59912e-05
1893.85	-0.000149536	0.00780029
1894.71	0.521057	3.14331e-06
1895.61	0.520752	1.98364e-05
1896.49	0.000238037	0.00542755
1897.35	0.521484	3.9978e-06
1898.25	0.521545	1.10168e-05
1899.15	0.520996	0.0139801
1899.99	0.520813	8.23975e-06
1900.89	0.521545	8.72803e-06
1901.79	0.521667	0.0018689
1902.63	0.521454	4.57764e-07
1903.53	0.521393	1.03149e-05
1904.43	0.521118	0.000254303
1905.27	0.521362	3.11279e-06
1906.17	0.520721	1.34277e-05
1907.07	0.520905	0.000106415
1907.91	0.520721	4.66919e-06
1908.81	0.521423	6.37817e-06
1909.71	0.521515	5.9082e-05
1910.55	0.521332	2.10571e-06
1911.45	0.520966	8.39233e-06
1912.35	0.520569	4.41589e-05
1913.19	0.520782	5.18799e-06
1914.09	0.521271	5.88989e-06
1914.99	0.521667	2.6825e-05
1915.85	-0.69809	-0.0188934
1916.73	0.521576	4.48608e-06
1917.63	0.521729	2.01111e-05
1918.49	-0.699127	-0.0132568
1919.37	0.52063	9.00269e-06
1920.27	0.520691	2.28271e-05
1921.15	-0.000296021	0.00774231
1922.01	0.521332	4.05884e-06
1922.91	0.521667	1.32446e-05
1923.79	-0.000369263	0.00541809
1924.65	0.521729	1.58691e-06
1925.55	0.520569	1.78528e-05
1926.45	0.520874	0.014035
1927.29	0.520599	7.72095e-06
1928.19	0.52121	1.32141e-05
1929.09	0.521393	0.00199219
1929.93	0.520721	6.95801e-06
1930.83	0.521637	6.7749e-06
1931.73	0.520966	0.000263916
1932.57	0.521484	2.2583e-06
1933.47	0.520844	1.33667e-05
1934.37	0.521667	0.000105103
1935.21	0.520691	6.19507e-06
1936.11	0.521301	8.91113e-06
1937.01	0.52066	6.56433e-05
1937.85	0.521057	3.44849e-06
1938.75	0.520905	1.03455e-05
1939.65	0.521576	3.91846e-05
1940.49	0.520905	2.59399e-06
1941.39	0.520569	1.10779e-05
1942.29	0.521149	3.07312e-05
1943.15	-0.698639	-0.0189484
1944.03	0.52063	8.78906e-06
1944.93	0.521179	2.41089e-05
1945.79	-0.699097	-0.0132996
1946.67	0.52063	9.82666e-06
1947.57	0.521545	1.8219e-05
1948.45	0.000494385	0.00770569
1949.31	0.52066	7.99561e-06
1950.21	0.52063	2.04773e-05
1951.09	0.000100708	0.00539978
1951.95	0.520691	7.38525e-06
1952.85	0.520599	1.7395e-05
1953.75	0.520111	0.0140839
1954.59	0.521271	3.57056e-06
1955.49	0.521545	8.3313e-06
1956.39	0.521637	0.00213654
1957.23	0.521332	4.15039e-06
1958.13	0.520569	1.42822e-05
1959.03	0.520813	0.000271973
1959.87	0.521545	8.8501e-07
1960.77	0.521332	8.75854e-06
1961.67	0.52066	0.000113739
1962.51	0.521637	-3.05176e-07
1963.41	0.521576	5.82886e-06
1964.31	0.52066	6.6803e-05
1965.15	0.521729	-4.57764e-07
1966.05	0.521545	6.073e-06
1966.95	0.520844	4.4342e-05
1967.79	0.521698	1.09863e-06
1968.69	0.52124	4.79126e-06
1969.59	0.520599	3.50037e-05
1970.45	-0.698059	-0.0190002
1971.33	0.520966	9.24683e-06
1972.23	0.521362	2.27661e-05
1973.09	-0.698151	-0.0133667
1973.97	0.520691	9.70459e-06
1974.87	0.521423	1.85242e-05
1975.75	0.000494385	0.00765991
1976.61	0.520752	6.65283e-06
1977.51	0.520966	1.828e-05
1978.39	0.00062561	0.00538635
1979.25	0.520844	7.59888e-06
1980.15	0.521515	1.28174e-05
1981.05	0.52066	0.0141235
1981.89	0.521118	4.85229e-06
1982.79	0.521606	8.60596e-06
1983.69	0.520844	0.00230774
1984.53	0.520569	7.62939e-06
1985.43	0.520782	1.32751e-05
1986.33	0.521698	0.000278076
1987.17	0.520599	7.65991e-06
1988.07	0.520691	1.25427e-05
1988.97	0.520538	0.000117859
1989.81	0.521667	6.10352e-08
1990.71	0.521423	6.74438e-06
1991.61	0.521667	6.32629e-05
1992.45	0.521759	1.2207e-07
1993.35	0.521545	6.46973e-06
1994.25	0.520508	4.84619e-05
1995.09	0.521179	3.50952e-06
1995.99	0.520874	1.00708e-05
1996.89	0.520721	3.6499e-05
1997.75	-0.698425	-0.0190491
1998.63	0.521149	6.56128e-06
1999.53	0.52063	2.92664e-05
2000.39	-0.698303	-0.0134247
2001.27	0.521576	1.80054e-06
2002.17	0.521118	2.10266e-05
2003.05	0.000241089	0.00762939
2003.91	0.520538	7.38525e-06
2004.81	0.521484	1.52283e-05
2005.69	0.000332642	0.00536896
2006.55	0.521637	4.21143e-06
2007.45	0.521423	1.38245e-05
2008.35	0.520996	0.0141663
2009.19	0.521851	5.49316e-07
2010.09	0.521393	1.23291e-05
2010.99	0.521271	0.00246613
2011.83	0.521667	4.57764e-07
2012.73	0.52063	1.40991e-05
2013.63	0.521515	0.000289185
2014.47	0.521057	3.72314e-06
2015.37	0.520721	1.25427e-05
2016.27	0.521698	0.00011676
2017.11	0.521576	4.27246e-07
2018.01	0.520721	1.12915e-05
2018.91	0.521545	6.55518e-05
2019.75	0.521545	2.44141e-07
2020.65	0.520569	1.10779e-05
2021.55	0.520599	4.86755e-05
2022.39	0.52182	-3.35693e-07
2023.29	0.521606	5.31006e-06
2024.19	0.521088	3.38745e-05
2025.05	-0.698212	-0.0191315
2025.93	0.520599	9.67407e-06
2026.83	0.520782	3.02734e-05
2027.69	-0.698608	-0.0134888
2028.57	0.521393	2.71606e-06
2029.47	0.520477	2.5238e-05
2030.35	-0.000357056	0.00759277
2031.21	0.521576	2.44141e-06
2032.11	0.521759	1.40381e-05
2032.99	0.000280762	0.00535889
2033.85	0.52066	8.45337e-06
2034.75	0.521698	1.23291e-05
2035.65	0.520905	0.014209
2036.49	0.520782	7.47681e-06
2037.39	0.521729	9.97925e-06
2038.29	0.52066	0.00263245
2039.13	0.520508	7.90405e-06
2040.03	0.521667	9.15527e-06
2040.93	0.520721	0.0003013
2041.77	0.520599	7.8125e-06
2042.67	0.521729	5.85937e-06
2043.57	0.521698	0.00011734
2044.41	0.520569	6.95801e-06
2045.31	0.520599	1.22375e-05
2046.21	0.521057	6.81458e-05
2047.05	0.521179	3.93677e-06
2047.95	0.520813	1.04065e-05
2048.85	0.520691	4.98352e-05
2049.69	0.521118	2.50244e-06
2050.59	0.520813	9.12476e-06
2051.49	0.520996	3.33252e-05
2052.35	-0.698212	-0.0191833
2053.23	0.521729	2.89917e-06
2054.13	0.520874	2.67334e-05
2054.99	-0.69809	-0.0135376
2055.87	0.521729	2.2583e-06
2056.77	0.521698	1.84631e-05
2057.65	-0.000415039	0.00755005
2058.51	0.52182	2.53296e-06
2059.41	0.520844	1.99585e-05
2060.29	0.000604248	0.00534393
2061.15	0.521637	3.20435e-06
2062.05	0.521454	1.17798e-05
2062.95	0.520538	0.0142578
2063.79	0.520569	7.47681e-06
2064.69	0.520844	1.58386e-05
2065.59	0.521423	0.00283417
2066.43	0.521667	3.05176e-08
2067.33	0.520813	1.53809e-05
2068.23	0.521698	0.00030481
2069.07	0.521606	1.64795e-06
2069.97	0.520874	1.24512e-05
2070.87	0.52063	0.000128754
2071.71	0.521759	2.74658e-07
2072.61	0.521576	8.69751e-06
2073.51	0.521027	7.26318e-05
2074.35	0.521332	2.34985e-06
2075.25	0.521667	5.7373e-06
2076.15	0.521423	4.70886e-05
2076.99	0.520996	3.57056e-06
2077.89	0.520599	1.08337e-05
2078.79	0.521423	3.29895e-05
2079.65	-0.69873	-0.0192291
2080.53	0.520813	7.2937e-06
2081.43	0.521179	2.71301e-05
2082.29	-0.69812	-0.0135956
2083.17	0.521759	4.15039e-06
2084.07	0.521271	2.17896e-05
2084.95	-0.000360107	0.00750427
2085.81	0.521515	4.02832e-06
2086.71	0.520599	2.21252e-05
2087.59	0.000714111	0.00532837
2088.45	0.520935	6.74438e-06
2089.35	0.521637	1.1261e-05
2090.25	0.520447	0.0143066
2091.09	0.521332	5.7373e-06
2091.99	0.521301	1.19629e-05
2092.89	0.520721	0.00305756
2093.73	0.520874	6.68335e-06
2094.63	0.52179	9.24683e-06
2095.53	0.520599	0.00032254
2096.37	0.521667	1.15967e-06
2097.27	0.521027	1.171875E-05
2098.17	0.521149	0.000128967
2099.01	0.521637	1.2207e-06
2099.91	0.520935	1.14136e-05
2100.81	0.521393	6.9397e-05
2101.65	0.52179	3.35693e-07
2102.55	0.521179	1.12915e-05
2103.45	0.521515	4.46167e-05
2104.29	0.520966	5.85937e-06
2105.19	0.520538	1.23291e-05
2106.09	0.521637	3.14026e-05
2106.95	-0.697723	-0.0192871
2107.83	0.521698	4.02832e-06
2108.73	0.521301	2.58484e-05
2109.59	-0.699127	-0.0136536
2110.47	0.521698	3.50952e-06
2111.37	0.520752	2.50854e-05
2112.25	-0.00039978	0.00747162
2113.11	0.520569	1.08643e-05
2114.01	0.521484	1.72119e-05
2114.89	-0.00017395	0.0053125
2115.75	0.520752	8.20923e-06
2116.65	0.520599	1.94092e-05
2117.55	0.520691	0.0143372
2118.39	0.521423	4.54712e-06
2119.29	0.520782	1.58386e-05
2120.19	0.521698	0.00331116
2121.03	0.521515	2.7771e-06
2121.93	0.521423	9.64355e-06
2122.83	0.521393	0.000327545
2123.67	0.520996	5.58472e-06
2124.57	0.521606	7.23267e-06
2125.47	0.52063	0.00013446
2126.31	0.521637	1.58691e-06
2127.21	0.521515	6.92749e-06
2128.11	0.52063	7.64771e-05
2128.95	0.52121	4.5166e-06
2129.85	0.52121	9.91821e-06
2130.75	0.52121	4.776e-05
2131.59	0.520782	4.39453e-06
2132.49	0.520691	1.09558e-05
2133.39	0.521698	3.26233e-05
2134.25	-0.698822	-0.0193268
2135.13	0.520721	1.00098e-05
2136.03	0.521179	2.67944e-05
2136.89	-0.699127	-0.0136932
2137.77	0.521515	3.69263e-06
2138.67	0.521423	2.0752e-05
2139.55	-0.000369263	0.007435
2140.41	0.521301	3.84521e-06
2141.31	0.52063	2.31934e-05
2142.19	0.000201416	0.00529236
2143.05	0.520844	8.57544e-06
2143.95	0.520813	1.78223e-05
2144.85	0.520294	0.0143799
2145.69	0.521423	5.09644e-06
2146.59	0.520599	1.70288e-05
2147.49	0.521515	0.00356659
2148.33	0.520599	7.38525e-06
2149.23	0.52121	1.26648e-05
2150.13	0.521515	0.000337677
2150.97	0.520782	6.50024e-06
2151.87	0.520599	1.35803e-05
2152.77	0.521698	0.000132019
2153.61	0.521332	2.71606e-06
2154.51	0.521118	1.11389e-05
2155.41	0.521362	7.6355e-05
2156.25	0.521301	2.65503e-06
2157.15	0.520721	1.16272e-05
2158.05	0.520966	5.00488e-05
2158.89	0.521729	1.0376e-06
2159.79	0.521515	6.2561e-06
2160.69	0.521606	3.32336e-05
2161.55	-0.697723	-0.0193878
2162.43	0.521729	4.85229e-06
2163.33	0.52121	2.734375E-05
2164.19	-0.698059	-0.0137482
2165.07	0.520996	8.63647e-06
2165.97	0.521667	1.98669e-05
2166.85	-0.000445557	0.00739166
2167.71	0.52063	1.02539e-05
2168.61	0.521606	1.68762e-05
2169.49	0.000213623	0.0052771
2170.35	0.521484	3.479e-06
2171.25	0.520905	1.94092e-05
2172.15	0.521118	0.0144043
2172.99	0.520599	8.23975e-06
2173.89	0.521576	1.0498e-05
2174.79	0.52063	0.00384979
2175.63	0.521027	4.54712e-06
2176.53	0.520752	1.68152e-05
2177.43	0.521393	0.000350037
2178.27	0.520721	7.47681e-06
2179.17	0.520569	1.58691e-05
2180.07	0.521362	0.000136841
2180.91	0.521667	1.28174e-06
2181.81	0.521362	8.78906e-06
2182.71	0.52063	8.09631e-05
2183.55	0.521118	5.27954e-06
2184.45	0.521667	6.01196e-06
2185.35	0.521393	5.06287e-05
2186.19	0.521423	5.18799e-07
2187.09	0.521667	4.73022e-06
2187.99	0.520905	3.9032e-05
2188.85	-0.698181	-0.0194061
2189.73	0.521301	5.31006e-06
2190.63	0.521332	2.84729e-05
2191.49	-0.698303	-0.0137909
2192.37	0.520599	1.00098e-05
2193.27	0.520508	2.74353e-05
2194.15	0.000134277	0.00734314
2195.01	0.520721	8.63647e-06
2195.91	0.521149	2.01416e-05
2196.79	-0.000439453	0.00525757
2197.65	0.520935	5.12695e-06
2198.55	0.521149	1.70898e-05
2199.45	0.521027	0.0144226
2200.29	0.520477	8.57544e-06
2201.19	0.521118	1.63574e-05
2202.09	0.521301	0.00415436
2202.93	0.521637	3.02124e-06
2203.83	0.52066	1.57776e-05
2204.73	0.521606	0.000358521
2205.57	0.521057	5.64575e-06
2206.47	0.520844	1.33667e-05
2207.37	0.521729	0.000139038
2208.21	0.521301	2.74658e-06
2209.11	0.52066	1.42212e-05
2210.01	0.520996	8.23059e-05
2210.85	0.521332	3.17383e-06
2211.75	0.521088	1.01318e-05
2212.65	0.520752	5.54504e-05
2213.49	0.521698	1.09863e-06
2214.39	0.520905	8.36182e-06
2215.29	0.521729	3.51868e-05
2216.15	-0.698334	-0.019458
2217.03	0.521027	8.3313e-06
2217.93	0.52066	3.22571e-05
2218.79	-0.698364	-0.0138367
2219.67	0.520966	8.45337e-06
2220.57	0.520782	2.76184e-05
2221.45	-0.000259399	0.00730621
2222.31	0.521606	3.479e-06
2223.21	0.521759	1.68762e-05
2224.09	0.000674438	0.00523682
2224.95	0.520721	7.65991e-06
2225.85	0.520752	1.77612e-05
2226.75	0.52005	0.0144562
2227.59	0.521088	3.84521e-06
2228.49	0.521088	1.40381e-05
2229.39	0.521637	0.00448303
2230.23	0.520538	9.30786e-06
2231.13	0.521515	1.17798e-05
2232.03	0.520721	0.000375732
2232.87	0.520966	7.38525e-06
2233.77	0.520844	1.45874e-05
2234.67	0.520691	0.00014859
2235.51	0.521606	1.43433e-06
2236.41	0.520996	1.3031e-05
2237.31	0.520691	8.30688e-05
2238.15	0.520966	4.57764e-06
2239.05	0.520782	1.24512e-05
2239.95	0.521484	5.26733e-05
2240.79	0.521729	3.05176e-08
2241.69	0.521454	6.16455e-06
2242.59	0.521149	4.11987e-05
2243.45	-0.698273	-0.0195129
2244.33	0.520966	1.00708e-05
2245.23	0.52066	3.46069e-05
2246.09	-0.699005	-0.0138824
2246.97	0.520721	1.11389e-05
2247.87	0.52121	2.38342e-05
2248.75	8.8501e-05	0.00726105
2249.61	0.520874	9.12476e-06
2250.51	0.520966	2.21558e-05
2251.39	-0.000402832	0.00522491
2252.25	0.521515	3.57056e-06
2253.15	0.520782	1.9989e-05
2254.05	0.520874	0.0144928
2254.89	0.52066	9.58252e-06
2255.79	0.521332	1.50452e-05
2256.69	0.521606	0.00478638
2257.53	0.521667	1.70898e-06
2258.43	0.521149	1.43738e-05
2259.33	0.520844	0.00038385
2260.17	0.520782	9.0332e-06
2261.07	0.520691	1.47705e-05
2261.97	0.521057	0.000148285
2262.81	0.520599	7.96509e-06
2263.71	0.521301	9.97925e-06
2264.61	0.521637	7.92236e-05
2265.45	0.521515	4.15039e-06
2266.35	0.521454	7.35474e-06
2267.25	0.520691	5.70374e-05
2268.09	0.521088	4.57764e-06
2268.99	0.521729	6.74438e-06
2269.89	0.521606	3.67737e-05
2270.75	-0.697723	-0.0195587
2271.63	0.52066	1.09558e-05
2272.53	0.52063	3.43628e-05
2273.39	-0.698883	-0.0139404
2274.27	0.520691	9.52148e-06
2275.17	0.521179	2.36816e-05
2276.05	0.000305176	0.00723297
2276.91	0.52066	1.11694e-05
2277.81	0.521698	1.80969e-05
2278.69	1.83105e-05	0.00520599
2279.55	0.520752	9.97925e-06
2280.45	0.520935	2.02026e-05
2281.35	0.52005	0.0145264
2282.19	0.521271	6.62231e-06
2283.09	0.520813	1.77612e-05
2283.99	0.520874	0.00509827
2284.83	0.521759	1.80054e-06
2285.73	0.521423	1.36108e-05
2286.63	0.521179	0.00039328
2287.47	0.521332	3.02124e-06
2288.37	0.520935	1.34277e-05
2289.27	0.520569	0.000156921
2290.11	0.52063	8.97217e-06
2291.01	0.520935	1.1261e-05
2291.91	0.520538	8.82263e-05
2292.75	0.521698	8.54492e-07
2293.65	0.52179	6.95801e-06
2294.55	0.52066	5.896e-05
2295.39	0.521301	2.31934e-06
2296.29	0.520508	1.20544e-05
2297.19	0.521729	3.65601e-05
2298.05	-0.698334	-0.0196136
2298.93	0.521454	6.92749e-06
2299.83	0.52121	2.97241e-05
2300.69	-0.699097	-0.0139923
2301.57	0.52066	1.15051e-05
2302.47	0.521393	2.3407e-05
2303.35	-0.000454712	0.00720795
2304.21	0.52063	1.0437e-05
2305.11	0.521698	1.72729e-05
2305.99	0.000561523	0.00519958
2306.85	0.521698	2.47192e-06
2307.75	0.52066	2.16064e-05
2308.65	0.52063	0.0145752
2309.49	0.521393	4.54712e-06
2310.39	0.52179	1.2146e-05
2311.29	0.521027	0.00529816
2312.13	0.520721	8.30078e-06
2313.03	0.52121	1.44348e-05
2313.93	0.521637	0.000397034
2314.77	0.520599	1.01929e-05
2315.67	0.52063	1.56555e-05
2316.57	0.52063	0.000157562
2317.41	0.520935	7.1106e-06
2318.31	0.521454	9.21631e-06
2319.21	0.520874	8.69141e-05
2320.05	0.52066	8.05664e-06
2320.95	0.521545	6.5918e-06
2321.85	0.52066	5.83801e-05
2322.69	0.520844	5.52368e-06
2323.59	0.520935	1.00708e-05
2324.49	0.521149	4.29382e-05
2325.35	-0.697815	-0.0196564
2326.23	0.521667	3.57056e-06
2327.13	0.52066	3.51868e-05
2327.99	-0.698334	-0.0140381
2328.87	0.520477	1.10168e-05
2329.77	0.521576	2.31018e-05
2330.65	0.000601196	0.0071759
2331.51	0.521545	4.79126e-06
2332.41	0.52063	2.4292e-05
2333.29	0.000634766	0.00518585
2334.15	0.52063	9.765625E-06
2335.05	0.521362	1.6571e-05
2335.95	0.520233	0.0146027
2336.79	0.52066	9.52148e-06
2337.69	0.520721	1.83105e-05
2338.59	0.520813	0.00560852
2339.43	0.52179	2.31934e-06
2340.33	0.521545	1.29395e-05
2341.23	0.521698	0.000408875
2342.07	0.520996	6.37817e-06
2342.97	0.521179	1.10779e-05
2343.87	0.521729	0.000155579
2344.71	0.52063	6.83594e-06
2345.61	0.521667	7.2937e-06
2346.51	0.521576	8.58459e-05
2347.35	0.520966	6.10352e-06
2348.25	0.52063	1.37939e-05
2349.15	0.521667	5.39856e-05
2349.99	0.520782	7.01904e-06
2350.89	0.52179	5.64575e-06
2351.79	0.520691	4.43115e-05
2352.65	-0.697937	-0.0196991
2353.53	0.521637	5.52368e-06
2354.43	0.521423	3.07617e-05
2355.29	-0.698486	-0.0140869
2356.17	0.521698	3.75366e-06
2357.07	0.521332	2.45972e-05
2357.95	-0.000579834	0.00714203
2358.81	0.520996	9.27734e-06
2359.71	0.520691	2.4292e-05
2360.59	0.00065918	0.00516754
2361.45	0.521545	4.82178e-06
2362.35	0.521667	1.62964e-05
2363.25	0.52005	0.0146332
2364.09	0.52066	9.18579e-06
2364.99	0.521027	1.80359e-05
2365.89	0.520538	0.00591248
2366.73	0.520691	8.48389e-06
2367.63	0.520752	1.69678e-05
2368.53	0.521454	0.000422424
2369.37	0.520691	7.8125e-06
2370.27	0.520813	1.37329e-05
2371.17	0.520599	0.000164978
2372.01	0.521667	1.37329e-06
2372.91	0.520874	1.21155e-05
2373.81	0.520752	9.17358e-05
2374.65	0.521698	-9.15527e-08
2375.55	0.521576	7.14111e-06
2376.45	0.521729	5.52368e-05
2377.29	0.521118	3.479e-06
2378.19	0.521545	6.37817e-06
2379.09	0.521637	4.04663e-05
2379.95	-0.698853	-0.0197357
2380.83	0.520905	1.05286e-05
2381.73	0.520569	3.79944e-05
2382.59	-0.698242	-0.0141388
2383.47	0.521606	3.9978e-06
2384.37	0.521118	2.67334e-05
2385.25	-0.000482178	0.00709991
2386.11	0.520966	9.0332e-06
2387.01	0.521423	2.03247e-05
2387.89	-0.000482178	0.00515076
2388.75	0.520599	1.04675e-05
2389.65	0.521454	1.63269e-05
2390.55	0.521057	0.0146484
2391.39	0.52063	9.00269e-06
2392.29	0.520599	2.00195e-05
2393.19	0.521698	0.00618286
2394.03	0.52063	8.11768e-06
2394.93	0.520691	1.77612e-05
2395.83	0.521576	0.00043515
2396.67	0.52063	9.52148e-06
2397.57	0.520477	1.77002e-05
2398.47	0.521729	0.000163147
2399.31	0.520752	6.10352e-06
2400.21	0.521667	8.69751e-06
2401.11	0.52124	8.99353e-05
2401.95	0.520966	6.95801e-06
2402.85	0.521729	7.32422e-06
2403.75	0.52066	6.46667e-05
2404.59	0.520782	7.41577e-06
2405.49	0.52121	9.30786e-06
2406.39	0.521637	4.04053e-05
2407.25	-0.698761	-0.0198029
2408.13	0.520752	1.15051e-05
2409.03	0.521698	2.90527e-05
2409.89	-0.698059	-0.0141937
2410.77	0.52182	4.05884e-06
2411.67	0.520874	2.86255e-05
2412.55	-0.000271606	0.00705414
2413.41	0.521088	9.12476e-06
2414.31	0.521362	2.35596e-05
2415.19	0.000402832	0.00513184
2416.05	0.521606	4.91333e-06
2416.95	0.521027	2.24915e-05
2417.85	0.520996	0.014679
2418.69	0.52063	9.42993e-06
2419.59	0.521271	1.62354e-05
2420.49	0.52063	0.00637726
2421.33	0.521545	2.99072e-06
2422.23	0.520782	1.80969e-05
2423.13	0.520721	0.000450958
2423.97	0.521179	5.46265e-06
2424.87	0.521698	1.00403e-05
2425.77	0.521027	0.000170532
2426.61	0.521637	3.38745e-06
2427.51	0.521667	9.06372e-06
2428.41	0.521179	9.20715e-05
2429.25	0.52066	7.93457e-06
2430.15	0.521515	8.63647e-06
2431.05	0.520599	6.34155e-05
2431.89	0.520721	6.2561e-06
2432.79	0.521271	8.3313e-06
2433.69	0.521545	4.03748e-05
2434.55	-0.697998	-0.0198303
2435.43	0.520874	1.20239e-05
2436.33	0.520782	3.80249e-05
2437.19	-0.699097	-0.0142334
2438.07	0.521088	7.96509e-06
2438.97	0.521362	2.80762e-05
2439.85	0.00057373	0.00702087
2440.71	0.521057	8.39233e-06
2441.61	0.521729	1.92261e-05
2442.49	-5.49316e-05	0.00511383
2443.35	0.520844	9.18579e-06
2444.25	0.520721	2.44751e-05
2445.15	0.519989	0.0147003
2445.99	0.521698	2.80762e-06
2446.89	0.520538	2.12402e-05
2447.79	0.520477	0.00658203
2448.63	0.520477	8.91113e-06
2449.53	0.521759	1.12915e-05
2450.43	0.521301	0.00045932
2451.27	0.521179	5.7373e-06
2452.17	0.521118	1.41602e-05
2453.07	0.52124	0.000171509
2453.91	0.521667	1.89209e-06
2454.81	0.521271	1.06812e-05
2455.71	0.521149	9.59778e-05
2456.55	0.521149	4.88281e-06
2457.45	0.521088	1.06201e-05
2458.35	0.521545	6.00281e-05
2459.19	0.520752	6.98853e-06
2460.09	0.520599	1.32751e-05
2460.99	0.521362	4.28772e-05
2461.85	-0.698761	-0.01987
2462.73	0.521423	6.95801e-06
2463.63	0.521759	3.1311e-05
2464.49	-0.698792	-0.0142731
2465.37	0.520721	1.08337e-05
2466.27	0.520905	2.8595e-05
2467.15	-0.000494385	0.00698517
2468.01	0.520935	1.02234e-05
2468.91	0.520538	2.71301e-05
2469.79	0.000634766	0.00509064
2470.65	0.520782	8.39233e-06
2471.55	0.521301	1.86157e-05
2472.45	0.519958	0.0147369
2473.29	0.52182	3.41797e-06
2474.19	0.521637	1.45569e-05
2475.09	0.520538	0.00677063
2475.93	0.521454	4.18091e-06
2476.83	0.521271	1.53503e-05
2477.73	0.521667	0.00046991
2478.57	0.521057	6.56128e-06
2479.47	0.521423	1.33362e-05
2480.37	0.520538	0.000179291
2481.21	0.520691	8.05664e-06
2482.11	0.520508	1.66321e-05
2483.01	0.520691	9.8938e-05
2483.85	0.521301	3.50952e-06
2484.75	0.521576	8.36182e-06
2485.65	0.520599	6.71387e-05
2486.49	0.52179	2.28882e-06
2487.39	0.52063	1.37939e-05
2488.29	0.521637	4.22974e-05
2489.15	-0.69812	-0.0199249
2490.03	0.521698	6.073e-06
2490.93	0.520782	3.71094e-05
2491.79	-0.698181	-0.0143372
2492.67	0.521729	5.24902e-06
2493.57	0.520935	2.77405e-05
2494.45	-0.00038147	0.00696228
2495.31	0.520599	1.00098e-05
2496.21	0.52066	2.66724e-05
2497.09	0.000604248	0.00508301
2497.95	0.521698	2.89917e-06
2498.85	0.521149	2.06299e-05
2499.75	0.520142	0.0147583
2500.59	0.52121	6.86646e-06
2501.49	0.520844	2.03247e-05
2502.39	0.521332	0.00691254
2503.23	0.521423	4.66919e-06
2504.13	0.52063	1.91345e-05
2505.03	0.520721	0.000485016
2505.87	0.52063	8.75854e-06
2506.77	0.521698	9.33838e-06
2507.67	0.521637	0.000176605
2508.51	0.521729	2.89917e-06
2509.41	0.521698	8.23975e-06
2510.31	0.521118	9.8053e-05
2511.15	0.521881	1.00708e-06
2512.05	0.521698	8.23975e-06
2512.95	0.521606	6.12183e-05
2513.79	0.521088	5.52368e-06
2514.69	0.52121	8.60596e-06
2515.59	0.521667	4.43115e-05
2516.45	-0.697601	-0.0199677
2517.33	0.521057	1.02844e-05
2518.23	0.520569	3.81165e-05
2519.09	-0.698608	-0.0143677
2519.97	0.521393	8.54492e-06
2520.87	0.521332	2.79541e-05
2521.75	-0.000253296	0.00693634
2522.61	0.520599	1.04065e-05
2523.51	0.520935	2.57874e-05
2524.39	-0.000421143	0.00507996
2525.25	0.52066	1.05286e-05
2526.15	0.520905	2.29187e-05
2527.05	0.519836	0.0147797
2527.89	0.521729	3.08228e-06
2528.79	0.521484	1.62048e-05
2529.69	0.520935	0.00704987
2530.53	0.521576	4.5166e-06
2531.43	0.521698	1.14441e-05
2532.33	0.521698	0.000493164
2533.17	0.520935	7.59888e-06
2534.07	0.520966	1.44348e-05
2534.97	0.521576	0.000179779
2535.81	0.521759	3.75366e-06
2536.71	0.52063	1.66931e-05
2537.61	0.52121	9.86938e-05
2538.45	0.520599	8.81958e-06
2539.35	0.521698	8.11768e-06
2540.25	0.520599	6.83594e-05
2541.09	0.52063	8.17871e-06
2541.99	0.521729	7.2937e-06
2542.89	0.521576	4.47693e-05
2543.75	-0.697723	-0.0200012
2544.63	0.520752	1.17798e-05
2545.53	0.520721	3.91846e-05
2546.39	-0.698975	-0.0144043
2547.27	0.521729	5.82886e-06
2548.17	0.521667	2.67029e-05
2549.05	0.000543213	0.00690155
2549.91	0.521088	8.75854e-06
2550.81	0.521759	2.0752e-05
2551.69	-0.000372314	0.0050589
2552.55	0.521271	7.20215e-06
2553.45	0.521759	1.67542e-05
2554.35	0.520203	0.014801
2555.19	0.521729	4.5166e-06
2556.09	0.521423	1.66016e-05
2556.99	0.520935	0.00719482
2557.83	0.520966	7.38525e-06
2558.73	0.520935	1.75171e-05
2559.63	0.520966	0.000510254
2560.47	0.520721	8.91113e-06
2561.37	0.520752	1.63574e-05
2562.27	0.521729	0.000181152
2563.11	0.521576	3.69263e-06
2564.01	0.520752	1.48621e-05
2564.91	0.52066	0.000104919
2565.75	0.521515	1.58691e-06
2566.65	0.521759	7.32422e-06
2567.55	0.520691	6.88782e-05
2568.39	0.52182	2.16675e-06
2569.29	0.520935	1.05591e-05
2570.19	0.521729	4.37927e-05
2571.05	-0.698639	-0.0200317
2571.93	0.521057	1.02539e-05
2572.83	0.521637	3.27454e-05
2573.69	-0.698334	-0.0144379
2574.57	0.520691	1.16577e-05
2575.47	0.52063	3.21045e-05
2576.35	-0.00043335	0.00688538
2577.21	0.521667	4.82178e-06
2578.11	0.521545	2.32849e-05
2578.99	9.76562e-05	0.00504883
2579.85	0.520538	1.10168e-05
2580.75	0.521423	2.02942e-05
2581.65	0.520569	0.0148193
2582.49	0.521423	6.01196e-06
2583.39	0.521667	1.50146e-05
2584.29	0.521393	0.00729492
2585.13	0.521088	6.80542e-06
2586.03	0.520874	1.85547e-05
2586.93	0.520538	0.000525208
2587.77	0.520721	8.36182e-06
2588.67	0.520752	1.80359e-05
2589.57	0.520599	0.000192413
2590.41	0.521759	2.74658e-06
2591.31	0.521088	1.37939e-05
2592.21	0.520752	0.000105499
2593.05	0.52063	8.39233e-06
2593.95	0.521698	7.35474e-06
2594.85	0.521515	6.55212e-05
2595.69	0.521149	3.38745e-06
2596.59	0.520935	1.12305e-05
2597.49	0.52182	4.48303e-05
2598.35	-0.697968	-0.0200714
2599.23	0.520538	1.25732e-05
2600.13	0.521545	3.54919e-05
2600.99	-0.698975	-0.0144836
2601.87	0.520691	1.15356e-05
2602.77	0.52063	3.24402e-05
2603.65	-0.000195313	0.00685242
2604.51	0.520874	9.73511e-06
2605.41	0.521362	2.37427e-05
2606.29	3.96729e-05	0.00503296
2607.15	0.521027	8.60596e-06
2608.05	0.521545	1.91956e-05
2608.95	0.520508	0.0148346
2609.79	0.521271	3.57056e-06
2610.69	0.520599	2.24915e-05
2611.59	0.520477	0.0074292
2612.43	0.521698	4.3335e-06
2613.33	0.521057	1.57166e-05
2614.23	0.52063	0.000538025
2615.07	0.520905	6.56128e-06
2615.97	0.520813	1.68152e-05
2616.87	0.521576	0.000192963
2617.71	0.52124	4.42505e-06
2618.61	0.520721	1.5686e-05
2619.51	0.520874	0.00010614
2620.35	0.521393	3.63159e-06
2621.25	0.52124	9.15527e-06
2622.15	0.521118	6.78101e-05
2622.99	0.520813	5.21851e-06
2623.89	0.521729	7.78198e-06
2624.79	0.520782	5.24902e-05
2625.65	-0.697998	-0.0201202
2626.53	0.52063	1.35498e-05
2627.43	0.521759	3.49731e-05
2628.29	-0.699097	-0.0145294
2629.17	0.52063	1.2085e-05
2630.07	0.52063	3.52478e-05
2630.95	-0.000494385	0.00681885
2631.81	0.52179	3.72314e-06
2632.71	0.521332	2.46887e-05
2633.59	0.000656128	0.00500824
2634.45	0.521484	4.08936e-06
2635.35	0.520966	2.42004e-05
2636.25	0.520447	0.0148499
2637.09	0.520874	9.46045e-06
2637.99	0.521515	1.79443e-05
2638.89	0.521057	0.0075531
2639.73	0.520844	9.49097e-06
2640.63	0.520538	1.98669e-05
2641.53	0.520996	0.000550537
2642.37	0.521301	5.92041e-06
2643.27	0.520996	1.67236e-05
2644.17	0.520905	0.000196777
2645.01	0.521759	1.15967e-06
2645.91	0.520691	1.66016e-05
2646.81	0.520905	0.000107452
2647.65	0.521637	1.86157e-06
2648.55	0.520844	1.46484e-05
2649.45	0.520966	6.98242e-05
2650.29	0.521637	1.64795e-06
2651.19	0.521271	1.05286e-05
2652.09	0.521637	4.67834e-05
2652.95	-0.69754	-0.0201538
2653.83	0.521606	7.96509e-06
2654.73	0.520996	3.97034e-05
2655.59	-0.698944	-0.014563
2656.47	0.52063	1.20239e-05
2657.37	0.521149	3.10059e-05
2658.25	0.000274658	0.0067749
2659.11	0.520996	8.39233e-06
2660.01	0.521606	2.45361e-05
2660.89	-0.000228882	0.00498627
2661.75	0.520935	1.06201e-05
2662.65	0.521759	1.77917e-05
2663.55	0.519897	0.014859
2664.39	0.521759	5.79834e-06
2665.29	0.520874	2.15759e-05
2666.19	0.520386	0.00769348
2667.03	0.521698	3.02124e-06
2667.93	0.521698	1.34277e-05
2668.83	0.521484	0.000561523
2669.67	0.520599	9.70459e-06
2670.57	0.52066	1.87988e-05
2671.47	0.52182	0.000196136
2672.31	0.521454	4.66919e-06
2673.21	0.52179	1.12305e-05
2674.11	0.521484	0.000105194
2674.95	0.520782	6.89697e-06
2675.85	0.52124	1.10474e-05
2676.75	0.521545	6.81152e-05
2677.59	0.521118	6.01196e-06
2678.49	0.521515	9.18579e-06
2679.39	0.521545	4.79431e-05
2680.25	-0.698029	-0.0201904
2681.13	0.521332	1.05896e-05
2682.03	0.520935	4.21448e-05
2682.89	-0.698151	-0.0146118
2683.77	0.521545	7.35474e-06
2684.67	0.521423	2.96326e-05
2685.55	8.23975e-05	0.00673676
2686.41	0.520721	1.27258e-05
2687.31	0.520721	2.88696e-05
2688.19	-0.000415039	0.0049704
2689.05	0.521545	5.21851e-06
2689.95	0.520935	2.31323e-05
2690.85	0.52002	0.0148804
2691.69	0.520935	8.66699e-06
2692.59	0.52066	2.28271e-05
2693.49	0.520721	0.00780334
2694.33	0.521759	3.11279e-06
2695.23	0.520844	1.98975e-05
2696.13	0.521271	0.000579834
2696.97	0.521759	3.69263e-06
2697.87	0.521271	1.32141e-05
2698.77	0.521698	0.000200531
2699.61	0.521332	5.37109e-06
2700.51	0.520996	1.42517e-05
2701.41	0.520599	0.000112335
2702.25	0.520691	8.36182e-06
2703.15	0.521179	1.39465e-05
2704.05	0.52063	7.44324e-05
2704.89	0.520813	7.69043e-06
2705.79	0.521545	7.01904e-06
2706.69	0.521667	4.82178e-05
2707.55	-0.697937	-0.0202271
2708.43	0.520569	1.30615e-05
2709.33	0.52066	4.28162e-05
2710.19	-0.698853	-0.0146484
2711.07	0.520935	1.07422e-05
2711.97	0.520874	3.36914e-05
2712.85	0.000186157	0.00670715
2713.71	0.521027	9.58252e-06
2714.61	0.520905	2.64282e-05
2715.49	-0.000283813	0.00495239
2716.35	0.521332	6.71387e-06
2717.25	0.521729	1.88599e-05
2718.15	0.519867	0.0148956
2718.99	0.521667	4.88281e-06
2719.89	0.520782	2.26135e-05
2720.79	0.521271	0.0078949
2721.63	0.521637	2.99072e-06
2722.53	0.52066	2.1698e-05
2723.43	0.520721	0.000596008
2724.27	0.521362	5.31006e-06
2725.17	0.521454	1.2207e-05
2726.07	0.520599	0.000210083
2726.91	0.521545	5.34058e-06
2727.81	0.52121	1.43738e-05
2728.71	0.521057	0.00011084
2729.55	0.520905	7.99561e-06
2730.45	0.521606	1.03455e-05
2731.35	0.521637	6.86035e-05
2732.19	0.521729	2.04468e-06
2733.09	0.521759	7.78198e-06
2733.99	0.52121	5.1178e-05
2734.85	-0.69809	-0.0202545
2735.73	0.521088	8.54492e-06
2736.63	0.521606	3.69873e-05
2737.49	-0.698273	-0.0146942
2738.37	0.521484	7.47681e-06
2739.27	0.52063	3.5675e-05
2740.15	0.000558472	0.00667358
2741.01	0.52066	1.14746e-05
2741.91	0.521301	2.4353e-05
2742.79	-3.96729e-05	0.00493683
2743.65	0.52063	1.19324e-05
2744.55	0.52063	2.74353e-05
2745.45	0.52005	0.0149048
2746.29	0.520721	9.85718e-06
2747.19	0.521545	1.71509e-05
2748.09	0.521057	0.00798645
2748.93	0.521729	3.66211e-06
2749.83	0.520691	2.17896e-05
2750.73	0.521301	0.000610657
2751.57	0.521576	5.12695e-06
2752.47	0.520874	1.72729e-05
2753.37	0.521179	0.000210907
2754.21	0.521606	2.86865e-06
2755.11	0.521729	1.08643e-05
2756.01	0.520752	0.00011554
2756.85	0.520599	7.99561e-06
2757.75	0.521057	1.35498e-05
2758.65	0.521057	7.22656e-05
2759.49	0.521759	2.68555e-06
2760.39	0.52066	1.47705e-05
2761.29	0.521027	5.13916e-05
2762.15	-0.698608	-0.0202728
2763.03	0.520966	1.26648e-05
2763.93	0.521362	3.92151e-05
2764.79	-0.699005	-0.0147217
2765.67	0.521301	8.05664e-06
2766.57	0.520569	3.58887e-05
2767.45	0.000537109	0.00664276
2768.31	0.52066	1.26648e-05
2769.21	0.520874	2.96631e-05
2770.09	-1.2207e-05	0.00491669
2770.95	0.521057	8.8501e-06
2771.85	0.520905	2.44446e-05
2772.75	0.519897	0.0149109
2773.59	0.521484	5.0354e-06
2774.49	0.52066	2.28271e-05
2775.39	0.520508	0.00810242
2776.23	0.520782	9.82666e-06
2777.13	0.52124	1.79138e-05
2778.03	0.520844	0.000628967
2778.87	0.520752	1.09558e-05
2779.77	0.521667	1.2146e-05
2780.67	0.520935	0.000217468
2781.51	0.52066	1.04065e-05
2782.41	0.52063	1.53198e-05
2783.31	0.520691	0.000117676
2784.15	0.521545	3.479e-06
2785.05	0.521362	1.02539e-05
2785.95	0.520752	7.78503e-05
2786.79	0.521637	3.72314e-06
2787.69	0.520691	1.51367e-05
2788.59	0.521515	5.2063e-05
2789.45	-0.698578	-0.0203186
2790.33	0.521667	7.35474e-06
2791.23	0.52124	4.06799e-05
2792.09	-0.699005	-0.0147552
2792.97	0.52179	6.01196e-06
2793.87	0.521606	3.06091e-05
2794.75	0.000521851	0.00661194
2795.61	0.521729	4.88281e-06
2796.51	0.521545	2.45056e-05
2797.39	-0.000393677	0.00490082
2798.25	0.521698	5.27954e-06
2799.15	0.520721	2.71301e-05
2800.05	0.520813	0.0149231
2800.89	0.521729	4.76074e-06
2801.79	0.521606	1.76392e-05
2802.69	0.520569	0.00818176
2803.53	0.521606	5.52368e-06
2804.43	0.521637	1.50146e-05
2805.33	0.521484	0.000640564
2806.17	0.52063	1.0437e-05
2806.31	0.520905	7.04956e-06