File: Edgar/20240522/20240522/electrodeposition_pulsed_potential_20240522_A/pulses_0_to_1000.txt
Time (s)	WE(1).Potential (V)	WE(1).Current (A)
183.186	-0.699219	-0.00242035
184.066	0.521271	-2.28882e-06
184.966	0.52182	-4.42505e-06
185.826	-0.698914	-0.00172058
186.706	0.52066	1.92261e-06
187.606	0.520691	4.48608e-06
188.486	1.83105e-05	0.000241669
189.346	0.521423	-2.50244e-06
190.246	0.521729	-2.92969e-06
191.126	-0.000436401	6.25305e-05
191.986	0.521759	-3.63159e-06
192.886	0.520752	4.11987e-06
193.786	0.521759	9.552e-05
194.626	0.520966	1.95313e-06
195.526	0.520996	3.17383e-06
196.426	0.521759	2.70081e-05
197.266	0.521606	-2.65503e-06
198.166	0.520813	6.01196e-06
199.066	0.521698	1.54114e-05
199.906	0.520691	3.75366e-06
200.806	0.521362	1.0376e-06
201.706	0.520782	1.78833e-05
202.546	0.521088	3.14331e-06
203.446	0.521149	2.83813e-06
204.346	0.520844	1.3916e-05
205.186	0.521637	-1.43433e-06
206.086	0.521484	2.74658e-07
206.986	0.521362	9.61304e-06
207.826	0.521301	1.28174e-06
208.726	0.520813	5.0354e-06
209.626	0.520721	1.3092e-05
210.486	-0.699615	-0.00342377
211.366	0.521729	-1.15967e-06
212.266	0.520721	1.13525e-05
213.126	-0.699585	-0.00246002
214.006	0.521362	2.19727e-06
214.906	0.521057	7.2937e-06
215.786	-0.000274658	0.00078949
216.646	0.520905	5.12695e-06
217.546	0.521729	3.60107e-06
218.426	-4.57764e-05	9.8053e-05
219.286	0.521362	8.8501e-07
220.186	0.520752	1.01013e-05
221.086	0.521149	9.86023e-05
221.926	0.52121	3.05176e-06
222.826	0.521362	3.90625e-06
223.726	0.52182	3.56445e-05
224.566	0.521851	-1.52588e-06
225.466	0.521423	3.2959e-06
226.366	0.52179	2.29492e-05
227.206	0.520569	5.12695e-06
228.106	0.520569	8.48389e-06
229.006	0.520813	2.19727e-05
229.846	0.520569	5.15747e-06
230.746	0.520691	7.17163e-06
231.646	0.520996	1.61438e-05
232.486	0.520721	3.93677e-06
233.386	0.521759	-5.49316e-07
234.286	0.520782	1.44348e-05
235.126	0.520752	3.78418e-06
236.026	0.520782	5.88989e-06
236.926	0.521759	4.88281e-06
237.786	-0.699585	-0.004935
238.666	0.521515	1.37329e-06
239.566	0.520813	1.01929e-05
240.426	-0.69928	-0.00298462
241.306	0.520752	5.0354e-06
242.206	0.520905	6.37817e-06
243.086	0.000747681	0.00307617
243.946	0.521362	9.46045e-07
244.846	0.521301	3.57056e-06
245.726	0.000552368	0.000115784
246.586	0.521851	-2.53296e-06
247.486	0.520691	7.23267e-06
248.386	0.521484	0.000100067
249.226	0.521729	-1.98364e-06
250.126	0.520691	6.80542e-06
251.026	0.521118	3.43933e-05
251.866	0.52182	-1.67847e-06
252.766	0.521729	-1.83105e-07
253.666	0.52121	1.953125E-05
254.506	0.52066	4.91333e-06
255.406	0.521606	1.67847e-06
256.306	0.521667	1.13525e-05
257.146	0.521027	1.2207e-06
258.046	0.521393	7.01904e-07
258.946	0.521698	7.26318e-06
259.786	0.520905	2.83813e-06
260.686	0.520844	5.64575e-06
261.586	0.520691	1.1261e-05
262.426	0.521698	-2.47192e-06
263.326	0.520721	4.76074e-06
264.226	0.52121	7.41577e-06
265.086	-0.698639	-0.00612274
265.966	0.520874	3.38745e-06
266.866	0.521667	2.28882e-06
267.726	-0.698639	-0.00329651
268.606	0.52063	4.54712e-06
269.506	0.521301	4.39453e-06
270.386	0.000640869	0.00515106
271.246	0.520782	2.80762e-06
272.146	0.521759	0
273.026	0.000668335	0.000161804
273.886	0.521118	2.13623e-07
274.786	0.521729	-4.27246e-07
275.686	0.521759	9.84192e-05
276.526	0.521637	-3.17383e-06
277.426	0.52179	-1.46484e-06
278.326	0.521729	2.63062e-05
279.166	0.520508	3.54004e-06
280.066	0.520691	4.30298e-06
280.966	0.521088	1.82495e-05
281.806	0.521271	-1.7395e-06
282.706	0.521667	-1.92261e-06
283.606	0.521698	7.50732e-06
284.446	0.521088	-1.28174e-06
285.346	0.52121	7.32422e-07
286.246	0.521484	6.50024e-06
287.086	0.521667	-3.05176e-06
287.986	0.521576	-9.76562e-07
288.886	0.520599	9.30786e-06
289.726	0.521301	-6.10352e-07
290.626	0.521606	-1.40381e-06
291.526	0.521484	2.44141e-06
292.386	-0.698425	-0.00713562
293.266	0.521759	-2.74658e-06
294.166	0.521027	4.57764e-06
295.026	-0.699097	-0.00359711
295.906	0.520844	1.43433e-06
296.806	0.521759	-2.44141e-07
297.686	-0.000311279	0.00640564
298.546	0.520569	4.05884e-06
299.446	0.520935	5.46265e-06
300.326	-0.000274658	0.000271545
301.186	0.520874	1.5564e-06
302.086	0.521149	1.0376e-06
302.986	0.52066	0.000108185
303.826	0.521362	5.18799e-07
304.726	0.520874	3.69263e-06
305.626	0.52063	2.93274e-05
306.466	0.52063	3.84521e-06
307.366	0.520905	3.02124e-06
308.266	0.521851	9.73511e-06
309.106	0.52063	1.19019e-06
310.006	0.520813	2.96021e-06
310.906	0.521759	6.13403e-06
311.746	0.520752	2.41089e-06
312.646	0.521149	1.2207e-06
313.546	0.520508	1.02234e-05
314.386	0.521851	-4.18091e-06
315.286	0.521606	-1.89209e-06
316.186	0.521667	1.0376e-06
317.026	0.521423	-1.89209e-06
317.926	0.521729	-4.21143e-06
318.826	0.521851	-7.01904e-07
319.686	-0.699066	-0.00803223
320.566	0.521332	-1.2207e-06
321.466	0.521484	-9.15527e-08
322.326	-0.699463	-0.00391449
323.206	0.52066	3.14331e-06
324.106	0.52121	6.10352e-08
324.986	0.000286865	0.00726532
325.846	0.52063	2.74658e-06
326.746	0.52182	-2.19727e-06
327.626	-0.00015564	0.000472717
328.486	0.521606	-2.92969e-06
329.386	0.521851	-3.05176e-06
330.286	0.521088	0.000111816
331.126	0.520874	1.77002e-06
332.026	0.520966	2.01416e-06
332.926	0.521576	2.20032e-05
333.766	0.521729	-4.18091e-06
334.666	0.521759	-2.38037e-06
335.566	0.521759	9.52148e-06
336.406	0.52063	2.80762e-06
337.306	0.520599	3.8147e-06
338.206	0.521545	5.79834e-06
339.046	0.52066	2.34985e-06
339.946	0.520569	3.23486e-06
340.846	0.520966	6.92749e-06
341.686	0.52124	-8.8501e-07
342.586	0.520874	8.23975e-07
343.486	0.520905	5.58472e-06
344.326	0.520691	2.28882e-06
345.226	0.52179	-3.96729e-06
346.126	0.521698	-3.05176e-07
346.986	-0.699402	-0.00883179
347.866	0.521454	-2.34985e-06
348.766	0.521667	-6.40869e-07
349.626	-0.698578	-0.00424927
350.506	0.521454	-2.53296e-06
351.406	0.520599	6.34766e-06
352.286	3.96729e-05	0.00791016
353.146	0.52066	2.13623e-06
354.046	0.521729	-1.52588e-06
354.926	0.000167847	0.000778198
355.786	0.520966	6.40869e-07
356.686	0.521851	-1.61743e-06
357.586	0.52182	0.000119354
358.426	0.521759	-4.30298e-06
359.326	0.521759	-3.14331e-06
360.226	0.520752	2.67944e-05
361.066	0.521057	-3.96729e-07
361.966	0.521484	-1.58691e-06
362.866	0.521423	8.5144e-06
363.706	0.520569	3.84521e-06
364.606	0.52066	3.23486e-06
365.506	0.520599	1.15356e-05
366.346	0.520691	1.70898e-06
367.246	0.52063	3.35693e-06
368.146	0.520752	8.63647e-06
368.986	0.520599	2.13623e-06
369.886	0.52179	-3.05176e-06
370.786	0.521027	4.5166e-06
371.626	0.520905	9.15527e-08
372.526	0.521759	-3.75366e-06
373.426	0.521729	-7.01904e-07
374.286	-0.698303	-0.00953369
375.166	0.520569	4.08936e-06
376.066	0.520721	4.82178e-06
376.926	-0.699585	-0.00457825
377.806	0.521088	4.57764e-07
378.706	0.521057	8.8501e-07
379.586	0.000363159	0.00837708
380.446	0.521759	-4.18091e-06
381.346	0.521698	-3.78418e-06
382.226	-0.000296021	0.00116028
383.086	0.521301	-7.01904e-07
383.986	0.521759	-3.479e-06
384.886	0.520935	0.000146851
385.726	0.521637	-3.63159e-06
386.626	0.520782	2.13623e-06
387.526	0.521088	2.70081e-05
388.366	0.521698	-4.27246e-06
389.266	0.520477	3.23486e-06
390.166	0.52124	1.14746e-05
391.006	0.521729	-4.27246e-06
391.906	0.521423	-2.0752e-06
392.806	0.52182	4.57764e-06
393.646	0.521515	-2.65503e-06
394.546	0.520813	1.2207e-06
395.446	0.52124	6.073e-06
396.286	0.521393	-9.46045e-07
397.186	0.521057	-7.01904e-07
398.086	0.521362	3.50952e-06
398.926	0.521759	-4.30298e-06
399.826	0.52063	2.62451e-06
400.726	0.521606	2.74658e-07
401.586	-0.698486	-0.0101624
402.466	0.520874	2.65503e-06
403.366	0.521545	-6.71387e-07
404.226	-0.698547	-0.00491852
405.106	0.521362	-2.59399e-06
406.006	0.521576	-9.46045e-07
406.886	-8.23975e-05	0.00876465
407.746	0.520691	2.38037e-06
408.646	0.521851	-3.44849e-06
409.526	-0.000100708	0.00161072
410.386	0.521759	-5.37109e-06
411.286	0.521027	1.80054e-06
412.186	0.521667	0.000166321
413.026	0.520691	1.80054e-06
413.926	0.520691	3.63159e-06
414.826	0.520691	2.79541e-05
415.666	0.521729	-4.24194e-06
416.566	0.52182	-2.22778e-06
417.466	0.521118	1.15662e-05
418.306	0.521454	-2.89917e-06
419.206	0.521667	-3.66211e-06
420.106	0.521667	3.08228e-06
420.946	0.521698	-4.24194e-06
421.846	0.521179	-1.12915e-06
422.746	0.521088	6.65283e-06
423.586	0.521149	-1.2207e-06
424.486	0.520874	1.83105e-07
425.386	0.521362	2.01416e-06
426.226	0.521667	-4.82178e-06
427.126	0.521606	-3.41797e-06
428.026	0.521423	7.32422e-07
428.886	-0.699219	-0.0107117
429.766	0.521729	-3.87573e-06
430.666	0.520966	2.44141e-06
431.526	-0.699097	-0.0052478
432.406	0.521149	-1.64795e-06
433.306	0.52182	-3.479e-06
434.186	-0.000665283	0.00904541
435.046	0.521606	-2.65503e-06
435.946	0.521729	-3.2959e-06
436.826	0.000680542	0.0020752
437.686	0.521393	-2.59399e-06
438.586	0.521332	-4.57764e-07
439.486	0.521759	0.000197449
440.326	0.52182	-4.11987e-06
441.226	0.520538	4.15039e-06
442.126	0.521362	2.41089e-05
442.966	0.520508	2.99072e-06
443.866	0.520874	2.16675e-06
444.766	0.520844	1.42212e-05
445.606	0.521088	1.52588e-07
446.506	0.521118	-3.35693e-07
447.406	0.520996	7.47681e-06
448.246	0.520813	1.95313e-06
449.146	0.520844	-8.8501e-07
450.046	0.520538	9.42993e-06
450.886	0.521576	-1.80054e-06
451.786	0.520752	1.37329e-06
452.686	0.521423	1.28174e-06
453.526	0.52063	2.83813e-06
454.426	0.521667	-3.69263e-06
455.326	0.521759	-1.52588e-06
456.186	-0.698273	-0.011203
457.066	0.520996	6.10352e-08
457.966	0.521149	-2.44141e-07
458.826	-0.699219	-0.00557465
459.706	0.521759	-5.61523e-06
460.606	0.520752	3.50952e-06
461.486	-0.000299072	0.00926208
462.346	0.520569	2.83813e-06
463.246	0.521179	6.10352e-07
464.126	0.000216675	0.00253296
464.986	0.520691	2.53296e-06
465.886	0.520966	1.09863e-06
466.786	0.521698	0.000234772
467.626	0.520874	1.00708e-06
468.526	0.52182	-4.3335e-06
469.426	0.521729	2.45056e-05
470.266	0.521881	-5.06592e-06
471.166	0.521729	-3.38745e-06
472.066	0.521027	1.36719e-05
472.906	0.52066	1.49536e-06
473.806	0.521637	-3.23486e-06
474.706	0.520782	1.0498e-05
475.546	0.521759	-4.60815e-06
476.446	0.521088	6.10352e-07
477.346	0.520905	5.82886e-06
478.186	0.521271	-1.64795e-06
479.086	0.521912	-4.27246e-06
479.986	0.520905	6.13403e-06
480.826	0.52182	-4.91333e-06
481.726	0.52066	2.62451e-06
482.626	0.520813	4.45557e-06
483.486	-0.698486	-0.0116364
484.366	0.521729	-4.57764e-06
485.266	0.521729	-1.09863e-06
486.126	-0.698639	-0.00589813
487.006	0.521515	-2.16675e-06
487.906	0.521698	-1.5564e-06
488.786	-6.71387e-05	0.00943298
489.646	0.521454	-2.68555e-06
490.546	0.521515	1.15967e-06
491.426	0.000839233	0.00294769
492.286	0.520721	3.17383e-06
493.186	0.520599	3.54004e-06
494.086	0.521515	0.000285675
494.926	0.52121	-6.10352e-07
495.826	0.520782	2.13623e-06
496.726	0.520691	3.31116e-05
497.566	0.520691	1.83105e-06
498.466	0.521362	-1.00708e-06
499.366	0.521698	1.0376e-05
500.206	0.521057	-1.58691e-06
501.106	0.52066	2.80762e-06
502.006	0.520752	1.05591e-05
502.846	0.520752	1.95313e-06
503.746	0.520844	9.15527e-07
504.646	0.521729	3.02124e-06
505.486	0.521118	-2.65503e-06
506.386	0.521179	3.66211e-07
507.286	0.520935	4.76074e-06
508.126	0.520599	2.28882e-06
509.026	0.521729	-3.2959e-06
509.926	0.521667	-9.76562e-07
510.786	-0.699249	-0.0120239
511.666	0.520691	1.70898e-06
512.566	0.521118	1.19019e-06
513.426	-0.698669	-0.00620667
514.306	0.520721	2.28882e-06
515.206	0.52121	-1.52588e-07
516.086	-8.23975e-05	0.00954895
516.946	0.521393	-1.77002e-06
517.846	0.521332	-1.34277e-06
518.726	-1.52588e-05	0.00332489
519.586	0.521729	-4.54712e-06
520.486	0.521729	-4.5166e-06
521.386	0.520691	0.000353424
522.226	0.52182	-5.40161e-06
523.126	0.521423	-3.08228e-06
524.026	0.521729	2.97241e-05
524.866	0.520813	1.58691e-06
525.766	0.521454	-3.17383e-06
526.666	0.520752	1.62964e-05
527.506	0.521576	-4.48608e-06
528.406	0.52066	2.41089e-06
529.306	0.521698	5.64575e-06
530.146	0.520691	9.46045e-07
531.046	0.521698	-3.69263e-06
531.946	0.520844	7.8125e-06
532.786	0.520721	1.92261e-06
533.686	0.521088	-1.83105e-07
534.586	0.521179	3.02124e-06
535.426	0.520721	1.15967e-06
536.326	0.520966	7.62939e-07
537.226	0.52121	2.74658e-07
538.086	-0.699219	-0.012381
538.966	0.521576	-3.20435e-06
539.866	0.521545	-2.19727e-06
540.726	-0.699524	-0.00650024
541.606	0.521606	-2.80762e-06
542.506	0.521393	-5.18799e-07
543.386	-0.00062561	0.0096283
544.246	0.521576	-4.48608e-06
545.146	0.521667	-1.2207e-06
546.026	-0.000234985	0.00364746
546.886	0.521606	-4.5166e-06
547.786	0.521118	8.54492e-07
548.686	0.52182	0.000424744
549.526	0.521729	-4.15039e-06
550.426	0.521667	-2.19727e-06
551.326	0.521759	3.42407e-05
552.166	0.521576	-3.66211e-06
553.066	0.520752	3.08228e-06
553.966	0.521179	1.4679e-05
554.806	0.521606	-4.11987e-06
555.706	0.520721	2.89917e-06
556.606	0.521698	5.92041e-06
557.446	0.520752	1.06812e-06
558.346	0.521667	-3.69263e-06
559.246	0.520813	8.75854e-06
560.086	0.521515	-3.84521e-06
560.986	0.521545	-2.34985e-06
561.886	0.521454	3.8147e-06
562.726	0.521332	-2.38037e-06
563.626	0.520599	1.92261e-06
564.526	0.521088	4.57764e-06
565.386	-0.699127	-0.0126984
566.266	0.521301	-4.05884e-06
567.166	0.521393	2.31934e-06
568.026	-0.69928	-0.00679138
568.906	0.52066	1.83105e-07
569.806	0.52121	2.10571e-06
570.686	-0.000259399	0.00970459
571.546	0.521759	-4.60815e-06
572.446	0.521545	-2.2583e-06
573.326	-0.000283813	0.00391846
574.186	0.52121	-2.47192e-06
575.086	0.521179	4.27246e-07
575.986	0.520691	0.000531311
576.826	0.521423	-1.31226e-06
577.726	0.521606	-2.92969e-06
578.626	0.520844	4.3396e-05
579.466	0.521576	-2.74658e-06
580.366	0.520966	1.5564e-06
581.266	0.520996	1.63879e-05
582.106	0.521118	-1.00708e-06
583.006	0.520599	3.69263e-06
583.906	0.52182	5.76782e-06
584.746	0.520599	2.80762e-06
585.646	0.521698	-3.78418e-06
586.546	0.520569	1.04065e-05
587.386	0.52121	-1.28174e-06
588.286	0.521729	-3.78418e-06
589.186	0.520569	8.05664e-06
590.026	0.521484	-3.11279e-06
590.926	0.521362	-1.80054e-06
591.826	0.520782	4.30298e-06
592.686	-0.698212	-0.0130035
593.566	0.520569	3.20435e-06
594.466	0.520721	5.52368e-06
595.326	-0.698669	-0.00707611
596.206	0.521576	-3.93677e-06
597.106	0.520691	4.79126e-06
597.986	5.18799e-05	0.00973511
598.846	0.520569	2.10571e-06
599.746	0.521698	-1.49536e-06
600.626	-0.000262451	0.00415649
601.486	0.520782	1.37329e-06
602.386	0.521729	-3.05176e-06
603.286	0.52124	0.000657349
604.126	0.520782	1.15967e-06
605.026	0.521545	-7.62939e-07
605.926	0.52066	5.09644e-05
606.766	0.521027	-5.18799e-07
607.666	0.52063	3.17383e-06
608.566	0.520599	2.21558e-05
609.406	0.521484	-2.96021e-06
610.306	0.520721	1.67847e-06
611.206	0.521057	1.18103e-05
612.046	0.52066	1.43433e-06
612.946	0.521576	-2.99072e-06
613.846	0.521637	3.9978e-06
614.686	0.521729	-4.76074e-06
615.586	0.52063	2.13623e-06
616.486	0.520782	7.08008e-06
617.326	0.521606	-4.48608e-06
618.226	0.520996	1.00708e-06
619.126	0.521027	5.34058e-06
619.986	-0.698669	-0.0132751
620.866	0.521545	-3.84521e-06
621.766	0.521088	3.2959e-06
622.626	-0.699524	-0.00733887
623.506	0.521545	-2.10571e-06
624.406	0.520813	4.24194e-06
625.286	-0.000317383	0.00974731
626.146	0.521454	-2.86865e-06
627.046	0.521667	-1.31226e-06
627.926	0.000735474	0.0043515
628.786	0.520569	2.34985e-06
629.686	0.521484	-1.34277e-06
630.586	0.521729	0.000823059
631.426	0.521362	-1.92261e-06
632.326	0.521118	2.04468e-06
633.226	0.52066	5.4657e-05
634.066	0.521637	-4.54712e-06
634.966	0.521332	2.44141e-07
635.866	0.520813	2.18506e-05
636.706	0.521698	-4.24194e-06
637.606	0.520599	4.27246e-06
638.506	0.521759	7.78198e-06
639.346	0.520691	2.01416e-06
640.246	0.521759	-3.02124e-06
641.146	0.520935	8.8501e-06
641.986	0.520691	1.31226e-06
642.886	0.520874	2.01416e-06
643.786	0.521179	5.58472e-06
644.626	0.520599	3.23486e-06
645.526	0.520599	3.75366e-06
646.426	0.520782	5.34058e-06
647.286	-0.698425	-0.0135529
648.166	0.521301	-9.15527e-07
649.066	0.521332	1.46484e-06
649.926	-0.698914	-0.00762024
650.806	0.52179	-3.69263e-06
651.706	0.520691	5.0354e-06
652.586	0.000106812	0.00975342
653.446	0.521027	5.18799e-07
654.346	0.521759	-2.41089e-06
655.226	2.13623e-05	0.00452881
656.086	0.520721	1.5564e-06
656.986	0.52066	3.479e-06
657.886	0.521393	0.00106018
658.726	0.521515	-2.19727e-06
659.626	0.521301	6.40869e-07
660.526	0.52121	5.86548e-05
661.366	0.521637	-4.08936e-06
662.266	0.520844	2.38037e-06
663.166	0.521576	1.95923e-05
664.006	0.520721	1.58691e-06
664.906	0.521637	-2.53296e-06
665.806	0.520996	1.26953e-05
666.646	0.520691	1.95313e-06
667.546	0.520569	2.99072e-06
668.446	0.521729	4.18091e-06
669.286	0.521881	-4.21143e-06
670.186	0.521698	-2.53296e-06
671.086	0.521667	1.95313e-06
671.926	0.520721	1.83105e-07
672.826	0.521515	-1.28174e-06
673.726	0.520599	8.30078e-06
674.586	-0.699158	-0.0137878
675.466	0.521698	-2.01416e-06
676.366	0.520569	7.50732e-06
677.226	-0.699188	-0.00787964
678.106	0.521637	-3.90625e-06
679.006	0.521729	-4.57764e-07
679.886	0.000128174	0.00973816
680.746	0.520935	6.71387e-07
681.646	0.521606	6.71387e-07
682.526	-2.13623e-05	0.00467529
683.386	0.520691	2.01416e-06
684.286	0.520844	3.32642e-06
685.186	0.521759	0.00139069
686.026	0.52179	-4.94385e-06
686.926	0.521545	-1.70898e-06
687.826	0.521271	6.54907e-05
688.666	0.521393	-2.31934e-06
689.566	0.521667	-1.64795e-06
690.466	0.52063	2.72827e-05
691.306	0.521027	5.18799e-07
692.206	0.521729	-2.65503e-06
693.106	0.521332	1.22986e-05
693.946	0.520599	1.98364e-06
694.846	0.520996	1.2207e-07
695.746	0.52063	1.27869e-05
696.586	0.52182	-5.24902e-06
697.486	0.52182	-2.89917e-06
698.386	0.521759	3.38745e-06
699.226	0.521515	-2.96021e-06
700.126	0.520691	2.80762e-06
701.026	0.521545	2.44141e-06
701.886	-0.699066	-0.0140259
702.766	0.521149	-2.44141e-07
703.666	0.52063	7.78198e-06
704.526	-0.698669	-0.00812378
705.406	0.52066	3.14331e-06
706.306	0.520538	6.34766e-06
707.186	0.000131226	0.00971069
708.046	0.520569	3.11279e-06
708.946	0.520752	4.05884e-06
709.826	-0.000283813	0.00479736
710.686	0.520935	1.7395e-06
711.586	0.520782	3.9978e-06
712.486	0.521912	0.00187744
713.326	0.520844	8.8501e-07
714.226	0.521057	1.64795e-06
715.126	0.521118	7.56531e-05
715.966	0.521484	-3.93677e-06
716.866	0.520599	4.5166e-06
717.766	0.520569	2.99683e-05
718.606	0.521729	-3.35693e-06
719.506	0.521088	1.0376e-06
720.406	0.521057	1.54114e-05
721.246	0.521454	-1.64795e-06
722.146	0.521759	-2.34985e-06
723.046	0.521271	7.72095e-06
723.886	0.521301	-1.64795e-06
724.786	0.521606	-2.96021e-06
725.686	0.521637	2.50244e-06
726.526	0.52121	-1.09863e-06
727.426	0.520905	1.61743e-06
728.326	0.52179	1.86157e-06
729.186	-0.699066	-0.0142334
730.066	0.520844	2.38037e-06
730.966	0.521545	7.01904e-07
731.826	-0.698547	-0.00835571
732.706	0.520935	2.68555e-06
733.606	0.521759	-1.19019e-06
734.486	-0.00045166	0.00968323
735.346	0.521729	-4.45557e-06
736.246	0.52063	6.2561e-06
737.126	-0.000149536	0.00490723
737.986	0.52124	-8.8501e-07
738.886	0.521637	-1.31226e-06
739.786	0.521454	0.00255981
740.626	0.52063	2.53296e-06
741.526	0.521027	9.76562e-07
742.426	0.52121	8.30994e-05
743.266	0.520721	2.16675e-06
744.166	0.520599	4.21143e-06
745.066	0.521515	2.6062e-05
745.906	0.521149	-1.67847e-06
746.806	0.521881	-2.89917e-06
747.706	0.52179	1.2085e-05
748.546	0.521362	-1.61743e-06
749.446	0.52124	-8.23975e-07
750.346	0.52066	1.3855e-05
751.186	0.521729	-5.09644e-06
752.086	0.521362	-1.52588e-06
752.986	0.52063	1.13525e-05
753.826	0.521301	-5.18799e-07
754.726	0.521454	-1.49536e-06
755.626	0.521698	2.01416e-06
756.486	-0.698547	-0.0144348
757.366	0.520538	2.44141e-06
758.266	0.52179	2.44141e-07
759.126	-0.698883	-0.00857544
760.006	0.52179	-4.3335e-06
760.906	0.520691	5.88989e-06
761.786	-0.000323486	0.00964661
762.646	0.521759	-5.00488e-06
763.546	0.520538	5.40161e-06
764.426	0.000415039	0.00500061
765.286	0.520691	1.95313e-06
766.186	0.520874	5.09644e-06
767.086	0.52179	0.00358734
767.926	0.520538	3.26538e-06
768.826	0.520966	4.27246e-06
769.726	0.521698	8.81348e-05
770.566	0.520569	2.7771e-06
771.467	0.521698	-2.28882e-06
772.367	0.521729	2.63672e-05
773.207	0.521606	-4.66919e-06
774.107	0.521057	1.06812e-06
775.007	0.521454	1.49841e-05
775.847	0.520935	-3.96729e-07
776.747	0.520752	3.02124e-06
777.647	0.52066	1.474e-05
778.487	0.52063	1.80054e-06
779.387	0.521759	-2.41089e-06
780.287	0.521332	6.46973e-06
781.127	0.521515	-4.05884e-06
782.027	0.521454	4.88281e-07
782.927	0.520721	7.47681e-06
783.787	-0.69928	-0.0146271
784.667	0.520599	4.05884e-06
785.567	0.521362	3.35693e-06
786.427	-0.698944	-0.00879822
787.307	0.520935	2.86865e-06
788.207	0.521301	3.66211e-06
789.087	-0.000268555	0.00960999
789.947	0.520721	1.5564e-06
790.847	0.52066	7.62939e-06
791.727	0.00050354	0.00508087
792.587	0.521454	-3.57056e-06
793.487	0.520508	5.34058e-06
794.387	0.522003	0.0048822
795.227	0.52063	3.17383e-06
796.127	0.521606	-1.00708e-06
797.027	0.52121	0.00010199
797.867	0.521484	-3.11279e-06
798.767	0.520996	2.44141e-06
799.667	0.520782	3.60413e-05
800.507	0.521454	-2.62451e-06
801.407	0.520477	4.36401e-06
802.307	0.52182	1.53503e-05
803.147	0.521576	-2.92969e-06
804.047	0.520691	4.05884e-06
804.947	0.521515	1.07727e-05
805.787	0.52066	2.47192e-06
806.687	0.521759	-2.65503e-06
807.587	0.521576	7.50732e-06
808.427	0.520966	4.27246e-07
809.327	0.520721	5.12695e-06
810.227	0.521393	4.39453e-06
811.087	-0.699066	-0.0148102
811.967	0.521637	-1.98364e-06
812.867	0.520813	6.83594e-06
813.727	-0.698425	-0.00900574
814.607	0.520599	3.08228e-06
815.507	0.52063	8.54492e-06
816.387	3.05176e-05	0.00957336
817.247	0.521454	-1.46484e-06
818.147	0.520752	5.61523e-06
819.027	0.000741577	0.00515198
819.887	0.521515	-1.28174e-06
820.787	0.520508	5.40161e-06
821.687	0.521637	0.00612793
822.527	0.520599	3.17383e-06
823.427	0.521332	1.00708e-06
824.327	0.521484	0.000110901
825.167	0.52121	-1.52588e-06
826.067	0.520569	4.76074e-06
826.967	0.521027	3.71399e-05
827.807	0.520691	2.47192e-06
828.707	0.520782	2.04468e-06
829.607	0.52121	1.9165e-05
830.447	0.521729	-3.57056e-06
831.347	0.52179	-3.75366e-06
832.247	0.521759	9.49097e-06
833.087	0.52182	-4.30298e-06
833.987	0.521637	-3.17383e-06
834.887	0.520599	1.39465e-05
835.727	0.521027	4.88281e-07
836.627	0.520874	2.34985e-06
837.527	0.521576	5.95093e-06
838.387	-0.699097	-0.0149902
839.267	0.520721	3.75366e-06
840.167	0.520966	6.43921e-06
841.027	-0.698517	-0.0092041
841.907	0.521698	-2.80762e-06
842.807	0.521698	1.15967e-06
843.687	-0.000805664	0.00953979
844.547	0.521179	-7.62939e-07
845.447	0.520691	6.71387e-06
846.327	-0.000161743	0.00522064
847.187	0.521332	-2.92969e-06
848.087	0.521759	-2.44141e-07
848.987	0.521423	0.0070459
849.827	0.520813	7.01904e-07
850.727	0.52179	-1.46484e-06
851.627	0.520874	0.000125122
852.467	0.521667	-3.32642e-06
853.367	0.521759	-6.40869e-07
854.267	0.52124	3.94287e-05
855.107	0.52063	2.31934e-06
856.007	0.521606	-2.16675e-06
856.907	0.52124	1.97754e-05
857.747	0.52066	1.70898e-06
858.647	0.521423	-1.77002e-06
859.547	0.521393	1.34277e-05
860.387	0.521698	-4.15039e-06
861.287	0.52066	4.18091e-06
862.187	0.521423	8.39233e-06
863.027	0.521637	-3.17383e-06
863.927	0.52063	3.57056e-06
864.827	0.520691	1.14441e-05
865.687	-0.698059	-0.015152
866.567	0.520691	5.34058e-06
867.467	0.52179	1.52588e-06
868.327	-0.699585	-0.0093811
869.207	0.520721	3.8147e-06
870.107	0.521332	3.57056e-06
870.987	9.15527e-06	0.00948792
871.847	0.521729	-3.35693e-06
872.747	0.521729	5.79834e-07
873.627	7.93457e-05	0.00527283
874.487	0.521667	-4.21143e-06
875.387	0.520599	7.41577e-06
876.287	0.520386	0.00774231
877.127	0.521606	-1.31226e-06
878.027	0.521759	-4.27246e-07
878.927	0.521362	0.000135315
879.767	0.521057	8.8501e-07
880.667	0.52063	5.61523e-06
881.567	0.521423	4.20532e-05
882.407	0.52063	3.66211e-06
883.307	0.521484	-1.25122e-06
884.207	0.520905	2.35596e-05
885.047	0.521698	-4.97437e-06
885.947	0.520874	3.72314e-06
886.847	0.520691	1.80054e-05
887.687	0.52182	-3.35693e-06
888.587	0.520569	5.40161e-06
889.487	0.521423	7.8125e-06
890.327	0.52124	-9.15527e-08
891.227	0.521759	-2.01416e-06
892.127	0.521698	5.00488e-06
892.987	-0.699036	-0.0153046
893.867	0.521637	-3.08228e-06
894.767	0.52066	9.39941e-06
895.627	-0.699432	-0.00955811
896.507	0.520966	1.46484e-06
897.407	0.520569	9.09424e-06
898.287	-0.000747681	0.00945129
899.147	0.521759	-3.26538e-06
900.047	0.521301	3.32642e-06
900.927	-0.000259399	0.00532471
901.787	0.521851	-4.27246e-06
902.687	0.521271	3.9978e-06
903.587	0.520325	0.00827637
904.427	0.521637	-3.08228e-06
905.327	0.521759	-9.76562e-07
906.227	0.52063	0.000153839
907.067	0.521027	8.8501e-07
907.967	0.520752	5.76782e-06
908.867	0.521576	4.3457e-05
909.707	0.521515	-1.52588e-06
910.607	0.521667	-2.47192e-06
911.507	0.521301	2.46277e-05
912.347	0.520569	3.02124e-06
913.247	0.520813	2.74658e-06
914.147	0.521057	1.5625e-05
914.987	0.520691	2.13623e-07
915.887	0.521637	-1.7395e-06
916.787	0.520874	1.41602e-05
917.627	0.521149	-9.76562e-07
918.527	0.520691	2.83813e-06
919.427	0.521362	8.08716e-06
920.287	-0.69873	-0.0154755
921.167	0.520966	2.44141e-07
922.067	0.521179	5.5542e-06
922.927	-0.698822	-0.00974426
923.807	0.52066	4.63867e-06
924.707	0.521027	6.56128e-06
925.587	0.000375366	0.00939026
926.447	0.521698	-1.86157e-06
927.347	0.521637	1.98364e-06
928.227	-0.000228882	0.00536652
929.087	0.521545	-2.22778e-06
929.987	0.521698	2.44141e-07
930.887	0.521484	0.00875244
931.727	0.521698	-2.28882e-06
932.627	0.521729	-6.40869e-07
933.527	0.520721	0.000167664
934.367	0.521545	-2.56348e-06
935.267	0.520599	7.23267e-06
936.167	0.521637	4.58374e-05
937.007	0.52182	-2.99072e-06
937.907	0.521393	1.49536e-06
938.807	0.52124	2.41394e-05
939.647	0.521759	-3.44849e-06
940.547	0.52182	-1.95313e-06
941.447	0.521149	1.44958e-05
942.287	0.521545	-3.57056e-06
943.187	0.521179	2.44141e-07
944.087	0.521515	1.03455e-05
944.927	0.521088	-3.05176e-08
945.827	0.521667	-2.74658e-06
946.727	0.521759	5.61523e-06
947.587	-0.698395	-0.0156189
948.467	0.520874	2.53296e-06
949.367	0.520874	9.21631e-06
950.227	-0.699402	-0.00990906
951.107	0.521484	-1.58691e-06
952.007	0.520569	9.765625E-06
952.887	0.000128174	0.00933838
953.747	0.520569	4.21143e-06
954.647	0.520691	8.27026e-06
955.527	-0.00012207	0.00540222
956.387	0.520599	4.3335e-06
957.287	0.521759	7.01904e-07
958.187	0.520935	0.00917358
959.027	0.520599	4.94385e-06
959.927	0.520813	5.40161e-06
960.827	0.521118	0.000180878
961.667	0.520752	1.95313e-06
962.567	0.521088	2.74658e-06
963.467	0.521576	5.07202e-05
964.307	0.52121	-1.52588e-06
965.207	0.521637	-1.43433e-06
966.107	0.521576	2.4292e-05
966.947	0.520599	3.72314e-06
967.847	0.521149	2.22778e-06
968.747	0.521484	1.51672e-05
969.587	0.520752	5.18799e-07
970.487	0.52182	-2.65503e-06
971.387	0.520813	1.45264e-05
972.227	0.521301	-4.88281e-07
973.127	0.520599	5.00488e-06
974.027	0.52066	1.0437e-05
974.887	-0.699005	-0.0157623
975.767	0.520508	4.88281e-06
976.667	0.52063	8.78906e-06
977.527	-0.698212	-0.0100708
978.407	0.520935	2.96021e-06
979.307	0.520935	7.72095e-06
980.187	-0.000820923	0.00929565
981.047	0.520599	2.01416e-06
981.947	0.52066	9.30786e-06
982.827	9.15527e-06	0.0054306
983.687	0.520996	1.52588e-06
984.587	0.521484	2.38037e-06
985.487	0.521362	0.00950317
986.327	0.521393	3.35693e-07
987.227	0.521057	2.41089e-06
988.127	0.52063	0.000205231
988.967	0.520599	5.09644e-06
989.867	0.521179	4.5166e-06
990.767	0.521698	5.3833e-05
991.607	0.520874	3.90625e-06
992.507	0.521667	-1.61743e-06
993.407	0.521088	2.90222e-05
994.247	0.521271	2.0752e-06
995.147	0.52063	4.48608e-06
996.047	0.520782	2.00806e-05
996.887	0.520599	1.7395e-06
997.787	0.521149	-3.35693e-07
998.687	0.520966	1.53198e-05
999.527	0.520599	1.92261e-06
1000.43	0.521027	3.50952e-06
1001.33	0.521393	9.00269e-06
1002.19	-0.698517	-0.0158936
1003.07	0.52063	3.69263e-06
1003.97	0.521759	4.76074e-06
1004.83	-0.698792	-0.0102173
1005.71	0.521057	1.98364e-06
1006.61	0.521759	2.41089e-06
1007.49	-0.000799561	0.00924988
1008.35	0.52182	-3.96729e-06
1009.25	0.520874	6.5918e-06
1010.13	0.000531006	0.0054538
1010.99	0.521667	-2.99072e-06
1011.89	0.521027	4.73022e-06
1012.79	0.520844	0.00982971
1013.63	0.520569	3.8147e-06
1014.53	0.521637	5.49316e-07
1015.43	0.520599	0.00022345
1016.27	0.520966	2.16675e-06
1017.17	0.521576	5.79834e-07
1018.07	0.520721	6.47583e-05
1018.91	0.520691	1.98364e-06
1019.81	0.521729	-2.13623e-07
1020.71	0.52063	3.42712e-05
1021.55	0.52179	-3.72314e-06
1022.45	0.520996	3.54004e-06
1023.35	0.521149	1.96533e-05
1024.19	0.52063	3.87573e-06
1025.09	0.521057	1.7395e-06
1025.99	0.521545	1.2085e-05
1026.83	0.521576	-2.68555e-06
1027.73	0.520569	4.42505e-06
1028.63	0.520844	1.171875E-05
1029.49	-0.697998	-0.0160461
1030.37	0.521759	-2.22778e-06
1031.27	0.520813	1.01318e-05
1032.13	-0.699097	-0.0103668
1033.01	0.521637	-2.41089e-06
1033.91	0.52124	7.93457e-06
1034.79	-0.000790405	0.009198
1035.65	0.521332	-5.18799e-07
1036.55	0.52066	8.91113e-06
1037.43	-0.000222778	0.00548187
1038.29	0.520996	-1.2207e-07
1039.19	0.521759	2.56348e-06
1040.09	0.520966	0.0101257
1040.93	0.521698	-3.17383e-06
1041.83	0.52124	4.3335e-06
1042.73	0.52063	0.000239197
1043.57	0.520508	5.85937e-06
1044.47	0.521698	1.0376e-06
1045.37	0.521057	6.57654e-05
1046.21	0.521271	9.46045e-07
1047.11	0.521423	1.15967e-06
1048.01	0.521515	3.12195e-05
1048.85	0.521698	-2.28882e-06
1049.75	0.52066	5.98145e-06
1050.65	0.520996	2.02637e-05
1051.49	0.521454	-1.43433e-06
1052.39	0.521667	-1.40381e-06
1053.29	0.521576	1.43433e-05
1054.13	0.521088	9.46045e-07
1055.03	0.52063	5.00488e-06
1055.93	0.52066	1.48621e-05
1056.79	-0.699036	-0.0161682
1057.67	0.52121	2.99072e-06
1058.57	0.521332	8.05664e-06
1059.43	-0.698273	-0.0105133
1060.31	0.520966	1.58691e-06
1061.21	0.521454	5.18799e-06
1062.09	-0.000106812	0.00914917
1062.95	0.520966	2.71606e-06
1063.85	0.52066	1.04675e-05
1064.73	0.000579834	0.00550018
1065.59	0.521729	-1.70898e-06
1066.49	0.520874	6.37817e-06
1067.39	0.520325	0.0104004
1068.23	0.521118	1.95313e-06
1069.13	0.521515	9.76562e-07
1070.03	0.521729	0.000252869
1070.87	0.52124	1.77002e-06
1071.77	0.521851	6.71387e-07
1072.67	0.520905	7.05261e-05
1073.51	0.521027	2.0752e-06
1074.41	0.520538	7.14111e-06
1075.31	0.521545	3.10974e-05
1076.15	0.521576	-8.8501e-07
1077.05	0.521729	-1.0376e-06
1077.95	0.521667	1.9043e-05
1078.79	0.521729	-3.44849e-06
1079.69	0.521393	7.62939e-07
1080.59	0.520782	1.7395e-05
1081.43	0.520905	4.05884e-06
1082.33	0.521484	1.52588e-07
1083.23	0.521729	8.45337e-06
1084.09	-0.697906	-0.0163055
1084.97	0.521729	-1.2207e-06
1085.87	0.521606	8.42285e-06
1086.73	-0.699249	-0.0106354
1087.61	0.521423	-8.54492e-07
1088.51	0.520599	1.13525e-05
1089.39	-3.66211e-05	0.00910034
1090.25	0.520813	4.24194e-06
1091.15	0.52063	1.01624e-05
1092.03	0.000631714	0.00551697
1092.89	0.521637	-1.80054e-06
1093.79	0.520935	6.01196e-06
1094.69	0.521301	0.0106384
1095.53	0.520752	3.17383e-06
1096.43	0.521362	3.9978e-06
1097.33	0.52066	0.000278717
1098.17	0.521332	-2.44141e-07
1099.07	0.520813	4.21143e-06
1099.97	0.520691	7.81555e-05
1100.81	0.52063	4.91333e-06
1101.71	0.520874	5.61523e-06
1102.61	0.520935	3.68652e-05
1103.45	0.521759	-4.73022e-06
1104.35	0.521545	3.05176e-08
1105.25	0.521515	2.21558e-05
1106.09	0.520935	2.22778e-06
1106.99	0.520844	5.0354e-06
1107.89	0.521637	1.24817e-05
1108.73	0.521057	2.74658e-07
1109.63	0.521576	0
1110.53	0.520721	1.5564e-05
1111.39	-0.698364	-0.0164215
1112.27	0.520844	5.88989e-06
1113.17	0.520569	1.44043e-05
1114.03	-0.69812	-0.0107727
1114.91	0.520996	2.41089e-06
1115.81	0.520874	1.01013e-05
1116.69	0.000323486	0.00903625
1117.55	0.520691	3.479e-06
1118.45	0.521423	5.34058e-06
1119.33	0.000415039	0.0055307
1120.19	0.521576	-1.15967e-06
1121.09	0.52066	9.24683e-06
1121.99	0.521271	0.0108795
1122.83	0.520813	3.78418e-06
1123.73	0.521729	7.62939e-07
1124.63	0.521027	0.000297821
1125.47	0.520935	8.8501e-07
1126.37	0.521362	2.86865e-06
1127.27	0.520782	8.05054e-05
1128.11	0.521149	-1.2207e-07
1129.01	0.521393	2.16675e-06
1129.91	0.52124	3.95508e-05
1130.75	0.521729	-3.05176e-06
1131.65	0.521088	4.88281e-06
1132.55	0.520691	2.70081e-05
1133.39	0.521088	-1.52588e-06
1134.29	0.520966	6.40869e-06
1135.19	0.521606	1.38245e-05
1136.03	0.521729	-2.34985e-06
1136.93	0.520813	5.67627e-06
1137.83	0.52121	1.32446e-05
1138.69	-0.697998	-0.0165436
1139.57	0.521027	3.50952e-06
1140.47	0.52124	9.61304e-06
1141.33	-0.699371	-0.0109009
1142.21	0.52066	5.64575e-06
1143.11	0.52182	4.73022e-06
1143.99	0.000170898	0.00899353
1144.85	0.521179	9.76562e-07
1145.75	0.521057	8.81958e-06
1146.63	-0.000289917	0.00554596
1147.49	0.521362	1.98364e-06
1148.39	0.520569	1.04675e-05
1149.29	0.520325	0.0111053
1150.13	0.521362	1.28174e-06
1151.03	0.52066	6.98853e-06
1151.93	0.521667	0.000319489
1152.77	0.521027	2.0752e-06
1153.67	0.521118	3.84521e-06
1154.57	0.520844	8.4259e-05
1155.41	0.52179	-2.04468e-06
1156.31	0.520721	6.98853e-06
1157.21	0.521027	3.9856e-05
1158.05	0.520935	2.28882e-06
1158.95	0.521423	1.34277e-06
1159.85	0.520477	2.84424e-05
1160.69	0.52179	-2.68555e-06
1161.59	0.52179	-9.15527e-08
1162.49	0.521759	1.40381e-05
1163.33	0.520599	1.98364e-06
1164.23	0.520599	6.50024e-06
1165.13	0.52063	1.60522e-05
1165.99	-0.697906	-0.0166656
1166.87	0.520752	4.57764e-06
1167.77	0.52063	1.26038e-05
1168.63	-0.698151	-0.0110291
1169.51	0.521729	-2.41089e-06
1170.41	0.521423	5.5542e-06
1171.29	0.000222778	0.0089325
1172.15	0.52179	-2.47192e-06
1173.05	0.520691	9.12476e-06
1173.93	0.000698853	0.00554657
1174.79	0.52063	3.90625e-06
1175.69	0.521149	6.7749e-06
1176.59	0.520508	0.0113251
1177.43	0.520599	4.97437e-06
1178.33	0.521088	5.70679e-06
1179.23	0.521729	0.000343658
1180.07	0.521332	6.40869e-07
1180.97	0.521545	1.52588e-06
1181.87	0.520966	8.8623e-05
1182.71	0.520996	2.04468e-06
1183.61	0.521545	4.27246e-07
1184.51	0.52182	3.76282e-05
1185.35	0.521423	-4.27246e-07
1186.25	0.521759	-4.88281e-07
1187.15	0.520844	2.80457e-05
1187.99	0.520752	3.9978e-06
1188.89	0.521057	2.53296e-06
1189.79	0.520752	2.14539e-05
1190.63	0.52066	2.92969e-06
1191.53	0.520508	5.79834e-06
1192.43	0.520935	1.69678e-05
1193.29	-0.6987	-0.0167725
1194.17	0.521423	1.31226e-06
1195.07	0.521637	7.96509e-06
1195.93	-0.698547	-0.0111572
1196.81	0.521057	3.14331e-06
1197.71	0.520874	1.0437e-05
1198.59	-0.000778198	0.00888367
1199.45	0.520508	6.10352e-06
1200.35	0.521729	5.12695e-06
1201.23	8.54492e-05	0.00556183
1202.09	0.520782	3.14331e-06
1202.99	0.520996	7.44629e-06
1203.89	0.520782	0.0115082
1204.73	0.521698	-2.74658e-06
1205.63	0.521057	6.28662e-06
1206.53	0.52066	0.000375427
1207.37	0.520599	3.41797e-06
1208.27	0.521393	2.59399e-06
1209.17	0.520691	9.43909e-05
1210.01	0.520599	3.63159e-06
1210.91	0.520599	6.68335e-06
1211.81	0.521271	4.62646e-05
1212.65	0.52063	4.88281e-06
1213.55	0.520721	5.67627e-06
1214.45	0.520813	2.78625e-05
1215.29	0.52063	1.2207e-06
1216.19	0.521759	-5.18799e-07
1217.09	0.52121	1.84021e-05
1217.93	0.520569	3.17383e-06
1218.83	0.521698	9.76562e-07
1219.73	0.521729	1.35803e-05
1220.59	-0.698914	-0.0168915
1221.47	0.520599	6.43921e-06
1222.37	0.521667	8.17871e-06
1223.23	-0.698608	-0.0112732
1224.11	0.521729	-1.40381e-06
1225.01	0.520721	1.14441e-05
1225.89	-0.000823975	0.00883179
1226.75	0.520508	4.73022e-06
1227.65	0.52063	1.2085e-05
1228.53	0.000317383	0.00556366
1229.39	0.521179	1.98364e-06
1230.29	0.521271	6.16455e-06
1231.19	0.520477	0.0116882
1232.03	0.52063	5.40161e-06
1232.93	0.520569	9.42993e-06
1233.83	0.52066	0.000411713
1234.67	0.520874	3.8147e-06
1235.57	0.521637	3.11279e-06
1236.47	0.521698	9.49707e-05
1237.31	0.521515	6.71387e-07
1238.21	0.520691	6.83594e-06
1239.11	0.521393	4.37012e-05
1239.95	0.520874	1.64795e-06
1240.85	0.520691	7.62939e-06
1241.75	0.521545	2.59399e-05
1242.59	0.521271	-2.13623e-07
1243.49	0.521576	-2.44141e-07
1244.39	0.521149	2.06909e-05
1245.23	0.520996	2.71606e-06
1246.13	0.521423	2.92969e-06
1247.03	0.520844	1.72119e-05
1247.89	-0.69809	-0.0170044
1248.77	0.520874	3.96729e-06
1249.67	0.520569	1.58081e-05
1250.53	-0.698456	-0.0113647
1251.41	0.52179	1.2207e-07
1252.31	0.520844	1.26648e-05
1253.19	0.000308228	0.00879211
1254.05	0.520813	4.82178e-06
1254.95	0.521759	4.63867e-06
1255.83	-0.000421143	0.00557556
1256.69	0.521729	-2.0752e-06
1257.59	0.520966	9.61304e-06
1258.49	0.520416	0.0118378
1259.33	0.521484	-3.96729e-07
1260.23	0.521301	4.88281e-06
1261.13	0.520569	0.000436371
1261.97	0.521759	-2.31934e-06
1262.87	0.52121	5.24902e-06
1263.77	0.521027	0.000103363
1264.61	0.521667	-3.02124e-06
1265.51	0.521637	1.46484e-06
1266.41	0.520599	5.1239e-05
1267.25	0.521759	-2.16675e-06
1268.15	0.521332	3.05176e-06
1269.05	0.520874	2.96326e-05
1269.89	0.521637	-2.71606e-06
1270.79	0.520844	6.86646e-06
1271.69	0.521362	2.02026e-05
1272.53	0.521881	-3.14331e-06
1273.43	0.520996	3.44849e-06
1274.33	0.521698	1.18713e-05
1275.19	-0.698975	-0.0171021
1276.07	0.521179	3.69263e-06
1276.97	0.520569	1.62659e-05
1277.83	-0.698517	-0.0114807
1278.71	0.520844	3.66211e-06
1279.61	0.521729	6.92749e-06
1280.49	-0.000549316	0.00874634
1281.35	0.521576	4.88281e-07
1282.25	0.52066	1.17493e-05
1283.13	-9.15527e-06	0.00557556
1283.99	0.521759	-2.83813e-06
1284.89	0.520752	9.09424e-06
1285.79	0.521271	0.0119812
1286.63	0.521698	-8.23975e-07
1287.53	0.521454	2.62451e-06
1288.43	0.520996	0.000459686
1289.27	0.521667	1.83105e-07
1290.17	0.520966	7.8125e-06
1291.07	0.521545	0.000104919
1291.91	0.521179	2.44141e-06
1292.81	0.520691	8.36182e-06
1293.71	0.521729	4.79736e-05
1294.55	0.52124	6.10352e-08
1295.45	0.520538	6.89697e-06
1296.35	0.521088	3.1311e-05
1297.19	0.520569	5.76782e-06
1298.09	0.520752	5.31006e-06
1298.99	0.521698	1.84326e-05
1299.83	0.52124	8.54492e-07
1300.73	0.521637	6.40869e-07
1301.63	0.521484	1.64185e-05
1302.49	-0.697784	-0.0172058
1303.37	0.521698	-6.10352e-08
1304.27	0.520538	1.66626e-05
1305.13	-0.69928	-0.0115784
1306.01	0.520782	4.11987e-06
1306.91	0.520874	1.32446e-05
1307.79	0.000442505	0.00871277
1308.65	0.520599	3.54004e-06
1309.55	0.521698	5.7373e-06
1310.43	0.000518799	0.00558624
1311.29	0.521698	-1.83105e-06
1312.19	0.520813	8.39233e-06
1313.09	0.520111	0.0121399
1313.93	0.521088	1.2207e-06
1314.83	0.520813	9.64355e-06
1315.73	0.521729	0.000487244
1316.57	0.521606	-1.0376e-06
1317.47	0.521667	2.38037e-06
1318.37	0.521729	0.000111053
1319.21	0.521454	-1.15967e-06
1320.11	0.521545	2.99072e-06
1321.01	0.52179	4.90112e-05
1321.85	0.521698	-2.44141e-06
1322.75	0.52121	6.16455e-06
1323.65	0.520935	3.35693e-05
1324.49	0.521545	-4.88281e-07
1325.39	0.520874	4.85229e-06
1326.29	0.520538	2.65198e-05
1327.13	0.521667	-1.89209e-06
1328.03	0.520966	2.89917e-06
1328.93	0.521332	1.52283e-05
1329.79	-0.69812	-0.0173126
1330.67	0.52063	5.95093e-06
1331.57	0.520599	1.68152e-05
1332.43	-0.698303	-0.0116852
1333.31	0.521606	-2.44141e-07
1334.21	0.52124	9.8877e-06
1335.09	-0.000582886	0.00867004
1335.95	0.521729	-8.8501e-07
1336.85	0.520996	1.17798e-05
1337.73	0.000244141	0.00558807
1338.59	0.52124	3.14331e-06
1339.49	0.520844	1.05286e-05
1340.39	0.520294	0.0122894
1341.23	0.520691	5.67627e-06
1342.13	0.521729	3.17383e-06
1343.03	0.521362	0.000523071
1343.87	0.521637	-1.00708e-06
1344.77	0.52063	9.8877e-06
1345.67	0.520874	0.000119537
1346.51	0.521606	-2.96021e-06
1347.41	0.521454	3.54004e-06
1348.31	0.520782	5.77698e-05
1349.15	0.521027	2.47192e-06
1350.05	0.521851	6.40869e-07
1350.95	0.520538	3.76892e-05
1351.79	0.520966	2.34985e-06
1352.69	0.521759	4.57764e-07
1353.59	0.520844	2.62451e-05
1354.43	0.520752	3.44849e-06
1355.33	0.521637	8.54492e-07
1356.23	0.52179	1.34888e-05
1357.09	-0.698303	-0.0174194
1357.97	0.52179	-1.0376e-06
1358.87	0.520935	1.60522e-05
1359.73	-0.698639	-0.0117859
1360.61	0.520721	4.88281e-06
1361.51	0.521637	7.84302e-06
1362.39	-0.000708008	0.00860291
1363.25	0.521698	-9.15527e-07
1364.15	0.520569	1.28784e-05
1365.03	-0.00038147	0.00558777
1365.89	0.521362	8.8501e-07
1366.79	0.520996	8.63647e-06
1367.69	0.521149	0.0124207
1368.53	0.521149	2.44141e-06
1369.43	0.521667	3.26538e-06
1370.33	0.521667	0.000558472
1371.17	0.52121	1.86157e-06
1372.07	0.52121	7.35474e-06
1372.97	0.520569	0.000128387
1373.81	0.521759	-1.77002e-06
1374.71	0.520691	7.8125e-06
1375.61	0.520599	5.96619e-05
1376.45	0.521149	2.71606e-06
1377.35	0.520905	5.31006e-06
1378.25	0.521851	3.00598e-05
1379.09	0.520782	4.48608e-06
1379.99	0.520599	8.30078e-06
1380.89	0.521515	2.12708e-05
1381.73	0.521667	-1.31226e-06
1382.63	0.521271	2.65503e-06
1383.53	0.520538	2.2522e-05
1384.39	-0.698303	-0.0175079
1385.27	0.521301	2.62451e-06
1386.17	0.521027	1.57166e-05
1387.03	-0.698456	-0.0118744
1387.91	0.520782	6.34766e-06
1388.81	0.521606	8.20923e-06
1389.69	-0.000680542	0.00856628
1390.55	0.521729	-7.01904e-07
1391.45	0.521759	5.21851e-06
1392.33	-4.88281e-05	0.00558441
1393.19	0.520599	5.52368e-06
1394.09	0.52063	1.1261e-05
1394.99	0.519958	0.0125458
1395.83	0.521454	-1.09863e-06
1396.73	0.520721	9.09424e-06
1397.63	0.521606	0.000596924
1398.47	0.521118	2.62451e-06
1399.37	0.521454	3.84521e-06
1400.27	0.521027	0.000131805
1401.11	0.520569	6.80542e-06
1402.01	0.521759	1.92261e-06
1402.91	0.521637	5.61523e-05
1403.75	0.521393	7.32422e-07
1404.65	0.520599	8.91113e-06
1405.55	0.52124	3.40271e-05
1406.39	0.520935	2.68555e-06
1407.29	0.52063	7.62939e-06
1408.19	0.521484	2.0813e-05
1409.03	0.521362	5.79834e-07
1409.93	0.520813	3.87573e-06
1410.83	0.520569	2.15149e-05
1411.69	-0.698517	-0.0176117
1412.57	0.52066	5.40161e-06
1413.47	0.521606	1.19629e-05
1414.33	-0.699127	-0.0119629
1415.21	0.520599	6.46973e-06
1416.11	0.52066	1.5625e-05
1416.99	-0.000762939	0.00851746
1417.85	0.521606	-2.13623e-06
1418.75	0.521759	6.95801e-06
1419.63	0.000527954	0.00557922
1420.49	0.521606	-6.71387e-07
1421.39	0.520508	1.09863e-05
1422.29	0.520447	0.0126678
1423.13	0.521088	2.2583e-06
1424.03	0.520966	7.90405e-06
1424.93	0.52121	0.000639648
1425.77	0.521759	-9.76562e-07
1426.67	0.521149	6.01196e-06
1427.57	0.521667	0.000134064
1428.41	0.520844	2.83813e-06
1429.31	0.52066	9.33838e-06
1430.21	0.521759	5.84717e-05
1431.05	0.521301	-1.52588e-06
1431.95	0.521637	1.00708e-06
1432.85	0.520996	3.86963e-05
1433.69	0.520508	4.27246e-06
1434.59	0.521576	2.74658e-06
1435.49	0.520813	2.79541e-05
1436.33	0.521179	2.19727e-06
1437.23	0.520996	3.38745e-06
1438.13	0.52121	1.81885e-05
1438.99	-0.698792	-0.0176941
1439.87	0.521729	7.32422e-07
1440.77	0.520782	1.94397e-05
1441.63	-0.699341	-0.0120544
1442.51	0.521515	3.96729e-07
1443.41	0.52066	1.59607e-05
1444.29	0.000363159	0.00845947
1445.15	0.520569	5.31006e-06
1446.05	0.521118	9.64355e-06
1446.93	0.0003479	0.00557983
1447.79	0.521271	2.62451e-06
1448.69	0.520691	1.24512e-05
1449.59	0.520721	0.0127808
1450.43	0.521759	-1.34277e-06
1451.33	0.520752	1.08948e-05
1452.23	0.520538	0.00068634
1453.07	0.520508	6.073e-06
1453.97	0.521271	5.76782e-06
1454.87	0.521423	0.000141174
1455.71	0.520691	4.57764e-06
1456.61	0.52179	3.96729e-07
1457.51	0.521027	6.47888e-05
1458.35	0.52124	7.01904e-07
1459.25	0.521484	2.16675e-06
1460.15	0.520874	4.15039e-05
1460.99	0.520599	5.58472e-06
1461.89	0.520905	5.7373e-06
1462.79	0.52182	2.38037e-05
1463.63	0.521515	-1.86157e-06
1464.53	0.521149	5.34058e-06
1465.43	0.52066	2.23083e-05
1466.29	-0.697784	-0.0177917
1467.17	0.521088	3.96729e-06
1468.07	0.52066	1.96533e-05
1468.93	-0.699127	-0.012146
1469.81	0.520721	5.92041e-06
1470.71	0.520752	1.46484e-05
1471.59	0.000427246	0.00843201
1472.45	0.520752	3.60107e-06
1473.35	0.520782	1.28479e-05
1474.23	8.54492e-05	0.00557678
1475.09	0.521759	-9.15527e-07
1475.99	0.520538	1.33057e-05
1476.89	0.519989	0.0128937
1477.73	0.521057	1.92261e-06
1478.63	0.521637	4.11987e-06
1479.53	0.52066	0.000733643
1480.37	0.520721	4.42505e-06
1481.27	0.52124	6.68335e-06
1482.17	0.520569	0.000151367
1483.01	0.521576	4.27246e-07
1483.15	0.521637	-1.89209e-06