File: Edgar/20210811 (1)/pruebas/cv_data_procedure_test.txt
Potential applied (V)	WE(1).Current (A)	Time (s)
0.00244141	9.487e-07	12.6171
0.00732422	6.78406e-06	12.6659
0.012207	1.12549e-05	12.7147
0.0170898	1.57257e-05	12.7635
0.0219727	2.02057e-05	12.8123
0.0268555	2.46796e-05	12.8611
0.0317383	2.91504e-05	12.9099
0.0366211	3.36395e-05	12.9587
0.0415039	3.80981e-05	13.0075
0.0463867	4.25781e-05	13.0563
0.0512695	4.7052e-05	13.1051
0.0561523	5.15442e-05	13.1539
0.0610352	5.59998e-05	13.2027
0.065918	6.04858e-05	13.2515
0.0708008	6.49719e-05	13.3003
0.0756836	6.9458e-05	13.3491
0.0805664	7.39136e-05	13.3979
0.0854492	7.83997e-05	13.4467
0.090332	8.28857e-05	13.4955
0.0952148	8.73413e-05	13.5443
0.100098	9.18274e-05	13.5931
0.10498	9.63135e-05	13.6419
0.109863	0.000100769	13.6907
0.114746	0.000105255	13.7395
0.119629	0.000109711	13.7883
0.124512	0.000114197	13.8371
0.129395	0.000118683	13.8859
0.134277	0.000123169	13.9347
0.13916	0.000127625	13.9835
0.144043	0.000132111	14.0323
0.148926	0.000136566	14.0811
0.153809	0.000141052	14.1299
0.158691	0.000145508	14.1787
0.163574	0.000149994	14.2275
0.168457	0.000154449	14.2763
0.17334	0.000158936	14.3251
0.178223	0.000163422	14.3739
0.183105	0.000167877	14.4227
0.187988	0.000172363	14.4715
0.192871	0.000176849	14.5203
0.197754	0.000181305	14.5691
0.202637	0.000185791	14.6179
0.20752	0.000190277	14.6667
0.212402	0.000194763	14.7155
0.217285	0.000199219	14.7643
0.222168	0.000203705	14.8131
0.227051	0.000208191	14.8619
0.231934	0.000212646	14.9107
0.236816	0.000217133	14.9595
0.241699	0.000221588	15.0083
0.246582	0.000226074	15.0571
0.251465	0.00023056	15.1059
0.256348	0.000235046	15.1547
0.26123	0.000239502	15.2035
0.266113	0.000243988	15.2523
0.270996	0.000248474	15.3011
0.275879	0.000252899	15.3499
0.280762	0.000257385	15.3987
0.285645	0.000261871	15.4475
0.290527	0.000266357	15.4963
0.29541	0.000270844	15.5451
0.300293	0.000275299	15.5939
0.305176	0.000279785	15.6427
0.310059	0.000284241	15.6915
0.314941	0.000288757	15.7403
0.319824	0.000293213	15.7891
0.324707	0.000297699	15.8379
0.32959	0.000302185	15.8867
0.334473	0.000306793	15.9355
0.339355	0.000311279	15.9843
0.344238	0.000315735	16.0331
0.349121	0.000320221	16.0819
0.354004	0.000324677	16.1307
0.358887	0.000329163	16.1795
0.36377	0.000333649	16.2283
0.368652	0.000338135	16.2771
0.373535	0.000342621	16.3259
0.378418	0.000347076	16.3747
0.383301	0.0003515625	16.4235
0.388184	0.000356018	16.4723
0.393066	0.000360535	16.5211
0.397949	0.00036499	16.5699
0.402832	0.000369476	16.6187
0.407715	0.000373932	16.6675
0.412598	0.000378418	16.7163
0.41748	0.000382904	16.7651
0.422363	0.00038736	16.8139
0.427246	0.000391846	16.8627
0.432129	0.000396332	16.9115
0.437012	0.000400787	16.9603
0.441895	0.000405273	17.0091
0.446777	0.00040976	17.0579
0.45166	0.000414215	17.1067
0.456543	0.000418701	17.1555
0.461426	0.000423187	17.2043
0.466309	0.000427673	17.2531
0.471191	0.000432129	17.3019
0.476074	0.000436615	17.3507
0.480957	0.000441101	17.3995
0.48584	0.000445557	17.4483
0.490723	0.000450043	17.4971
0.495605	0.000454529	17.5459
0.500488	0.000459015	17.5947
0.505371	0.00046347	17.6435
0.510254	0.000467957	17.6923
0.515137	0.000472412	17.7411
0.52002	0.000476898	17.7899
0.524902	0.000481384	17.8387
0.529785	0.00048584	17.8875
0.534668	0.000490326	17.9363
0.539551	0.000494812	17.9851
0.544434	0.000499298	18.0339
0.549316	0.000503845	18.0827
0.554199	0.000508423	18.1315
0.559082	0.000513	18.1803
0.563965	0.000517273	18.2291
0.568848	0.000521851	18.2779
0.57373	0.000526123	18.3267
0.578613	0.000530701	18.3755
0.583496	0.000535278	18.4243
0.588379	0.000539551	18.4731
0.593262	0.000544128	18.5219
0.598145	0.000548706	18.5707
0.603027	0.000552979	18.6195
0.60791	0.000557556	18.6683
0.612793	0.000562134	18.7171
0.617676	0.000566406	18.7659
0.622559	0.000570984	18.8147
0.627441	0.000575562	18.8635
0.632324	0.000579834	18.9123
0.637207	0.000584412	18.9611
0.64209	0.000588989	19.0099
0.646973	0.000593567	19.0587
0.651855	0.000597839	19.1075
0.656738	0.000602417	19.1563
0.661621	0.000606995	19.2051
0.666504	0.000611267	19.2539
0.671387	0.000615845	19.3027
0.67627	0.000620422	19.3515
0.681152	0.000624695	19.4003
0.686035	0.000629272	19.4491
0.690918	0.000633545	19.4979
0.695801	0.000638123	19.5467
0.700684	0.0006427	19.5955
0.705566	0.000647278	19.6443
0.710449	0.00065155	19.6931
0.715332	0.000656128	19.7419
0.720215	0.000660706	19.7907
0.725098	0.000664978	19.8395
0.72998	0.000669556	19.8883
0.734863	0.000674133	19.9371
0.739746	0.000678406	19.9859
0.744629	0.000682983	20.0347
0.749512	0.000687561	20.0835
0.754395	0.000692139	20.1323
0.759277	0.000696411	20.1811
0.76416	0.000700989	20.2299
0.769043	0.000705261	20.2787
0.773926	0.000709839	20.3275
0.778809	0.000714417	20.3763
0.783691	0.000718689	20.4251
0.788574	0.000723267	20.4739
0.793457	0.000727844	20.5227
0.79834	0.000732117	20.5715
0.803223	0.000736694	20.6203
0.808105	0.000741272	20.6691
0.812988	0.00074585	20.7179
0.817871	0.000750122	20.7667
0.822754	0.0007547	20.8155
0.827637	0.000759277	20.8643
0.83252	0.00076355	20.9131
0.837402	0.000768127	20.9619
0.842285	0.000772705	21.0107
0.847168	0.000776978	21.0595
0.852051	0.000781555	21.1083
0.856934	0.000786133	21.1571
0.861816	0.000790405	21.2059
0.866699	0.000794983	21.2547
0.871582	0.000799561	21.3035
0.876465	0.000803833	21.3523
0.881348	0.000808411	21.4011
0.88623	0.000812988	21.4499
0.891113	0.000817261	21.4987
0.895996	0.000821838	21.5475
0.900879	0.000826416	21.5963
0.905762	0.000830994	21.6451
0.910645	0.000835266	21.6939
0.915527	0.000839844	21.7427
0.92041	0.000844421	21.7915
0.925293	0.000848694	21.8403
0.930176	0.000853271	21.8891
0.935059	0.000857849	21.9379
0.939941	0.000862122	21.9867
0.944824	0.000866699	22.0355
0.949707	0.000871277	22.0843
0.95459	0.000875549	22.1331
0.959473	0.000880127	22.1819
0.964355	0.000884705	22.2307
0.969238	0.000888977	22.2795
0.974121	0.000893555	22.3283
0.979004	0.000898132	22.3771
0.983887	0.000902405	22.4259
0.98877	0.000906982	22.4747
0.993652	0.00091156	22.5235
0.998535	0.000916138	22.5723
0.998535	0.000915833	22.6211
0.993652	0.00091156	22.6699
0.98877	0.000906982	22.7187
0.983887	0.000902405	22.7675
0.979004	0.000898132	22.8163
0.974121	0.000893555	22.8651
0.969238	0.000888977	22.9139
0.964355	0.000884705	22.9627
0.959473	0.000880127	23.0115
0.95459	0.000875549	23.0603
0.949707	0.000871277	23.1091
0.944824	0.000866699	23.1579
0.939941	0.000862122	23.2067
0.935059	0.000857849	23.2555
0.930176	0.000853271	23.3043
0.925293	0.000848694	23.3531
0.92041	0.000844421	23.4019
0.915527	0.000839844	23.4507
0.910645	0.000835266	23.4995
0.905762	0.000830994	23.5483
0.900879	0.000826416	23.5971
0.895996	0.000821838	23.6459
0.891113	0.000817261	23.6947
0.88623	0.000812988	23.7435
0.881348	0.000808411	23.7923
0.876465	0.000803833	23.8411
0.871582	0.000799561	23.8899
0.866699	0.000794983	23.9387
0.861816	0.000790405	23.9875
0.856934	0.000786133	24.0363
0.852051	0.000781555	24.0851
0.847168	0.000776978	24.1339
0.842285	0.000772705	24.1827
0.837402	0.000768127	24.2315
0.83252	0.00076355	24.2803
0.827637	0.000758972	24.3291
0.822754	0.0007547	24.3779
0.817871	0.000750122	24.4267
0.812988	0.00074585	24.4755
0.808105	0.000741272	24.5243
0.803223	0.000736694	24.5731
0.79834	0.000732117	24.6219
0.793457	0.000727844	24.6707
0.788574	0.000723267	24.7195
0.783691	0.000718689	24.7683
0.778809	0.000714417	24.8171
0.773926	0.000709839	24.8659
0.769043	0.000705261	24.9147
0.76416	0.000700989	24.9635
0.759277	0.000696411	25.0123
0.754395	0.000691833	25.0611
0.749512	0.000687561	25.1099
0.744629	0.000682983	25.1587
0.739746	0.000678711	25.2075
0.734863	0.000674133	25.2563
0.72998	0.000669556	25.3051
0.725098	0.000664978	25.3539
0.720215	0.000660706	25.4027
0.715332	0.000656128	25.4515
0.710449	0.00065155	25.5003
0.705566	0.000647278	25.5491
0.700684	0.0006427	25.5979
0.695801	0.000638123	25.6467
0.690918	0.000633545	25.6955
0.686035	0.000629272	25.7443
0.681152	0.000624695	25.7931
0.67627	0.000620422	25.8419
0.671387	0.000615845	25.8907
0.666504	0.000611267	25.9395
0.661621	0.000606995	25.9883
0.656738	0.000602417	26.0371
0.651855	0.000597839	26.0859
0.646973	0.000593262	26.1347
0.64209	0.000588989	26.1835
0.637207	0.000584412	26.2323
0.632324	0.000579834	26.2811
0.627441	0.000575562	26.3299
0.622559	0.000570984	26.3787
0.617676	0.000566406	26.4275
0.612793	0.000562134	26.4763
0.60791	0.000557556	26.5251
0.603027	0.000552979	26.5739
0.598145	0.000548706	26.6227
0.593262	0.000544128	26.6715
0.588379	0.000539551	26.7203
0.583496	0.000535278	26.7691
0.578613	0.000530701	26.8179
0.57373	0.000526123	26.8667
0.568848	0.000521851	26.9155
0.563965	0.000517273	26.9643
0.559082	0.000512695	27.0131
0.554199	0.000508423	27.0619
0.549316	0.000503845	27.1107
0.544434	0.000499268	27.1595
0.539551	0.000494781	27.2083
0.534668	0.000490326	27.2571
0.529785	0.00048584	27.3059
0.524902	0.000481354	27.3547
0.52002	0.000476898	27.4035
0.515137	0.000472412	27.4523
0.510254	0.000467926	27.5011
0.505371	0.00046347	27.5499
0.500488	0.000458984	27.5987
0.495605	0.000454498	27.6475
0.490723	0.000450012	27.6963
0.48584	0.000445526	27.7451
0.480957	0.000441071	27.7939
0.476074	0.000436584	27.8427
0.471191	0.000432098	27.8915
0.466309	0.000427643	27.9403
0.461426	0.000423157	27.9891
0.456543	0.000418701	28.0379
0.45166	0.000414215	28.0867
0.446777	0.000409729	28.1355
0.441895	0.000405243	28.1843
0.437012	0.000400757	28.2331
0.432129	0.000396301	28.2819
0.427246	0.000391815	28.3307
0.422363	0.00038736	28.3795
0.41748	0.000382874	28.4283
0.412598	0.000378387	28.4771
0.407715	0.000373932	28.5259
0.402832	0.000369446	28.5747
0.397949	0.00036496	28.6235
0.393066	0.000360504	28.6723
0.388184	0.000356018	28.7211
0.383301	0.000351532	28.7699
0.378418	0.000347046	28.8187
0.373535	0.00034259	28.8675
0.368652	0.000338104	28.9163
0.36377	0.000333618	28.9651
0.358887	0.000329163	29.0139
0.354004	0.000324677	29.0627
0.349121	0.00032019	29.1115
0.344238	0.000315735	29.1603
0.339355	0.000311249	29.2091
0.334473	0.000306763	29.2579
0.32959	0.000302307	29.3067
0.324707	0.000297821	29.3555
0.319824	0.000293335	29.4043
0.314941	0.000288849	29.4531
0.310059	0.000284332	29.5019
0.305176	0.000279877	29.5507
0.300293	0.000275391	29.5995
0.29541	0.000270905	29.6483
0.290527	0.000266449	29.6971
0.285645	0.000261963	29.7459
0.280762	0.000257477	29.7947
0.275879	0.000252991	29.8435
0.270996	0.000248535	29.8923
0.266113	0.000244049	29.9411
0.26123	0.000239594	29.9899
0.256348	0.000235107	30.0387
0.251465	0.000230621	30.0875
0.246582	0.000226166	30.1363
0.241699	0.00022168	30.1851
0.236816	0.000217194	30.2339
0.231934	0.000212708	30.2827
0.227051	0.000208252	30.3315
0.222168	0.000203766	30.3803
0.217285	0.00019931	30.4291
0.212402	0.000194824	30.4779
0.20752	0.000190338	30.5267
0.202637	0.000185852	30.5755
0.197754	0.000181366	30.6243
0.192871	0.00017691	30.6731
0.187988	0.000172424	30.7219
0.183105	0.000167938	30.7707
0.178223	0.000163483	30.8195
0.17334	0.000158997	30.8683
0.168457	0.00015451	30.9171
0.163574	0.000150024	30.9659
0.158691	0.000145569	31.0147
0.153809	0.000141083	31.0635
0.148926	0.000136597	31.1123
0.144043	0.000132141	31.1611
0.13916	0.000127655	31.2099
0.134277	0.000123169	31.2587
0.129395	0.000118713	31.3075
0.124512	0.000114227	31.3563
0.119629	0.000109741	31.4051
0.114746	0.000105286	31.4539
0.109863	0.0001008	31.5027
0.10498	9.63135e-05	31.5515
0.100098	9.18579e-05	31.6003
0.0952148	8.73413e-05	31.6491
0.090332	8.28857e-05	31.6979
0.0854492	7.83997e-05	31.7467
0.0805664	7.39136e-05	31.7955
0.0756836	6.9458e-05	31.8443
0.0708008	6.49414e-05	31.8931
0.065918	6.04858e-05	31.9419
0.0610352	5.59998e-05	31.9907
0.0561523	5.15442e-05	32.0395
0.0512695	4.7052e-05	32.0883
0.0463867	4.25812e-05	32.1371
0.0415039	3.80951e-05	32.1859
0.0366211	3.36426e-05	32.2347
0.0317383	2.91656e-05	32.2835
0.0268555	2.46857e-05	32.3323
0.0219727	2.02118e-05	32.3811
0.0170898	1.57288e-05	32.4299
0.012207	1.12549e-05	32.4787
0.00732422	6.78406e-06	32.5275
0.00244141	2.29828e-06	32.5763
-0.00244141	-2.17621e-06	32.6251
-0.00732422	-6.64978e-06	32.6739
-0.012207	-1.11267e-05	32.7227
-0.0170898	-1.55975e-05	32.7715
-0.0219727	-2.00775e-05	32.8203
-0.0268555	-2.45544e-05	32.8691
-0.0317383	-2.90283e-05	32.9179
-0.0366211	-3.35114e-05	32.9667
-0.0415039	-3.797e-05	33.0155
-0.0463867	-4.24469e-05	33.0643
-0.0512695	-4.69299e-05	33.1131
-0.0561523	-5.14221e-05	33.1619
-0.0610352	-5.59082e-05	33.2107
-0.065918	-6.03638e-05	33.2595
-0.0708008	-6.48499e-05	33.3083
-0.0756836	-6.93359e-05	33.3571
-0.0805664	-7.3822e-05	33.4059
-0.0854492	-7.82776e-05	33.4547
-0.090332	-8.27637e-05	33.5035
-0.0952148	-8.72498e-05	33.5523
-0.100098	-9.17358e-05	33.6011
-0.10498	-9.61914e-05	33.6499
-0.109863	-0.000100677	33.6987
-0.114746	-0.000105164	33.7475
-0.119629	-0.00010965	33.7963
-0.124512	-0.000114105	33.8451
-0.129395	-0.000118591	33.8939
-0.134277	-0.000123077	33.9427
-0.13916	-0.000127533	33.9915
-0.144043	-0.000132019	34.0403
-0.148926	-0.000136475	34.0891
-0.153809	-0.000140961	34.1379
-0.158691	-0.000145447	34.1867
-0.163574	-0.000149902	34.2355
-0.168457	-0.000154388	34.2843
-0.17334	-0.000158875	34.3331
-0.178223	-0.000163361	34.3819
-0.183105	-0.000167816	34.4307
-0.187988	-0.000172302	34.4795
-0.192871	-0.000176788	34.5283
-0.197754	-0.000181244	34.5771
-0.202637	-0.00018573	34.6259
-0.20752	-0.000190186	34.6747
-0.212402	-0.000194672	34.7235
-0.217285	-0.000199158	34.7723
-0.222168	-0.000203644	34.8211
-0.227051	-0.00020813	34.8699
-0.231934	-0.000212585	34.9187
-0.236816	-0.000217072	34.9675
-0.241699	-0.000221558	35.0163
-0.246582	-0.000226013	35.0651
-0.251465	-0.000230499	35.1139
-0.256348	-0.000234985	35.1627
-0.26123	-0.000239471	35.2115
-0.266113	-0.000243927	35.2603
-0.270996	-0.000248413	35.3091
-0.275879	-0.000252899	35.3579
-0.280762	-0.000257355	35.4067
-0.285645	-0.000261841	35.4555
-0.290527	-0.000266327	35.5043
-0.29541	-0.000270782	35.5531
-0.300293	-0.000275269	35.6019
-0.305176	-0.000279755	35.6507
-0.310059	-0.000284241	35.6995
-0.314941	-0.000288727	35.7483
-0.319824	-0.000293213	35.7971
-0.324707	-0.000297699	35.8459
-0.32959	-0.000302185	35.8947
-0.334473	-0.000306763	35.9435
-0.339355	-0.000311249	35.9923
-0.344238	-0.000315735	36.0411
-0.349121	-0.00032019	36.0899
-0.354004	-0.000324677	36.1387
-0.358887	-0.000329163	36.1875
-0.36377	-0.000333618	36.2363
-0.368652	-0.000338104	36.2851
-0.373535	-0.00034259	36.3339
-0.378418	-0.000347076	36.3827
-0.383301	-0.0003515625	36.4315
-0.388184	-0.000356049	36.4803
-0.393066	-0.000360535	36.5291
-0.397949	-0.00036499	36.5779
-0.402832	-0.000369476	36.6267
-0.407715	-0.000373962	36.6755
-0.412598	-0.000378418	36.7243
-0.41748	-0.000382904	36.7731
-0.422363	-0.00038739	36.8219
-0.427246	-0.000391876	36.8707
-0.432129	-0.000396332	36.9195
-0.437012	-0.000400818	36.9683
-0.441895	-0.000405273	37.0171
-0.446777	-0.00040976	37.0659
-0.45166	-0.000414246	37.1147
-0.456543	-0.000418732	37.1635
-0.461426	-0.000423218	37.2123
-0.466309	-0.000427704	37.2611
-0.471191	-0.000432159	37.3099
-0.476074	-0.000436646	37.3587
-0.480957	-0.000441132	37.4075
-0.48584	-0.000445618	37.4563
-0.490723	-0.000450104	37.5051
-0.495605	-0.000454559	37.5539
-0.500488	-0.000459045	37.6027
-0.505371	-0.000463531	37.6515
-0.510254	-0.000468018	37.7003
-0.515137	-0.000472473	37.7491
-0.52002	-0.000476959	37.7979
-0.524902	-0.000481445	37.8467
-0.529785	-0.000485931	37.8955
-0.534668	-0.000490417	37.9443
-0.539551	-0.000494873	37.9931
-0.544434	-0.000499359	38.0419
-0.549316	-0.00050415	38.0907
-0.554199	-0.000508423	38.1395
-0.559082	-0.000513	38.1883
-0.563965	-0.000517578	38.2371
-0.568848	-0.000521851	38.2859
-0.57373	-0.000526428	38.3347
-0.578613	-0.000531006	38.3835
-0.583496	-0.000535278	38.4323
-0.588379	-0.000539856	38.4811
-0.593262	-0.000544434	38.5299
-0.598145	-0.000548706	38.5787
-0.603027	-0.000553284	38.6275
-0.60791	-0.000557861	38.6763
-0.612793	-0.000562134	38.7251
-0.617676	-0.000566711	38.7739
-0.622559	-0.000571289	38.8227
-0.627441	-0.000575562	38.8715
-0.632324	-0.000580139	38.9203
-0.637207	-0.000584717	38.9691
-0.64209	-0.000589294	39.0179
-0.646973	-0.000593567	39.0667
-0.651855	-0.000598145	39.1155
-0.656738	-0.000602417	39.1643
-0.661621	-0.000606995	39.2131
-0.666504	-0.000611572	39.2619
-0.671387	-0.00061615	39.3107
-0.67627	-0.000620422	39.3595
-0.681152	-0.000625	39.4083
-0.686035	-0.000629272	39.4571
-0.690918	-0.00063385	39.5059
-0.695801	-0.000638428	39.5547
-0.700684	-0.0006427	39.6035
-0.705566	-0.000647278	39.6523
-0.710449	-0.000651855	39.7011
-0.715332	-0.000656433	39.7499
-0.720215	-0.000660706	39.7987
-0.725098	-0.000665283	39.8475
-0.72998	-0.000669861	39.8963
-0.734863	-0.000674133	39.9451
-0.739746	-0.000678711	39.9939
-0.744629	-0.000683289	40.0427
-0.749512	-0.000687561	40.0915
-0.754395	-0.000692139	40.1403
-0.759277	-0.000696716	40.1891
-0.76416	-0.000700989	40.2379
-0.769043	-0.000705566	40.2867
-0.773926	-0.000710144	40.3355
-0.778809	-0.000714417	40.3843
-0.783691	-0.000718994	40.4331
-0.788574	-0.000723572	40.4819
-0.793457	-0.000727844	40.5307
-0.79834	-0.000732422	40.5795
-0.803223	-0.000736694	40.6283
-0.808105	-0.000741272	40.6771
-0.812988	-0.00074585	40.7259
-0.817871	-0.000750427	40.7747
-0.822754	-0.0007547	40.8235
-0.827637	-0.000759277	40.8723
-0.83252	-0.000763855	40.9211
-0.837402	-0.000768127	40.9699
-0.842285	-0.000772705	41.0187
-0.847168	-0.000777283	41.0675
-0.852051	-0.000781555	41.1163
-0.856934	-0.000786133	41.1651
-0.861816	-0.00079071	41.2139
-0.866699	-0.000794983	41.2627
-0.871582	-0.000799561	41.3115
-0.876465	-0.000804138	41.3603
-0.881348	-0.000808411	41.4091
-0.88623	-0.000812988	41.4579
-0.891113	-0.000817566	41.5067
-0.895996	-0.000822144	41.5555
-0.900879	-0.000826416	41.6043
-0.905762	-0.000830994	41.6531
-0.910645	-0.000835571	41.7019
-0.915527	-0.000839844	41.7507
-0.92041	-0.000844421	41.7995
-0.925293	-0.000848999	41.8483
-0.930176	-0.000853271	41.8971
-0.935059	-0.000857849	41.9459
-0.939941	-0.000862427	41.9947
-0.944824	-0.000866699	42.0435
-0.949707	-0.000871277	42.0923
-0.95459	-0.000875854	42.1411
-0.959473	-0.000880127	42.1899
-0.964355	-0.000884705	42.2387
-0.969238	-0.000889282	42.2875
-0.974121	-0.000893555	42.3363
-0.979004	-0.000898132	42.3851
-0.983887	-0.00090271	42.4339
-0.98877	-0.000906982	42.4827
-0.993652	-0.00091156	42.5315
-0.998535	-0.000916138	42.5803
-0.998535	-0.000916138	42.6291
-0.993652	-0.00091156	42.6779
-0.98877	-0.000906982	42.7267
-0.983887	-0.00090271	42.7755
-0.979004	-0.000898132	42.8243
-0.974121	-0.000893555	42.8731
-0.969238	-0.000889282	42.9219
-0.964355	-0.000884705	42.9707
-0.959473	-0.000880127	43.0195
-0.95459	-0.000875549	43.0683
-0.949707	-0.000871277	43.1171
-0.944824	-0.000866699	43.1659
-0.939941	-0.000862427	43.2147
-0.935059	-0.000857849	43.2635
-0.930176	-0.000853271	43.3123
-0.925293	-0.000848999	43.3611
-0.92041	-0.000844421	43.4099
-0.915527	-0.000839844	43.4587
-0.910645	-0.000835571	43.5075
-0.905762	-0.000830994	43.5563
-0.900879	-0.000826416	43.6051
-0.895996	-0.000822144	43.6539
-0.891113	-0.000817566	43.7027
-0.88623	-0.000812988	43.7515
-0.881348	-0.000808411	43.8003
-0.876465	-0.000804138	43.8491
-0.871582	-0.000799561	43.8979
-0.866699	-0.000794983	43.9467
-0.861816	-0.00079071	43.9955
-0.856934	-0.000786133	44.0443
-0.852051	-0.000781555	44.0931
-0.847168	-0.000777283	44.1419
-0.842285	-0.000772705	44.1907
-0.837402	-0.000768127	44.2395
-0.83252	-0.000763855	44.2883
-0.827637	-0.000759277	44.3371
-0.822754	-0.0007547	44.3859
-0.817871	-0.000750427	44.4347
-0.812988	-0.00074585	44.4835
-0.808105	-0.000741272	44.5323
-0.803223	-0.000737	44.5811
-0.79834	-0.000732422	44.6299
-0.793457	-0.000727844	44.6787
-0.788574	-0.000723572	44.7275
-0.783691	-0.000718994	44.7763
-0.778809	-0.000714417	44.8251
-0.773926	-0.000710144	44.8739
-0.769043	-0.000705566	44.9227
-0.76416	-0.000700989	44.9715
-0.759277	-0.000696716	45.0203
-0.754395	-0.000692139	45.0691
-0.749512	-0.000687561	45.1179
-0.744629	-0.000683289	45.1667
-0.739746	-0.000678711	45.2155
-0.734863	-0.000674133	45.2643
-0.72998	-0.000669861	45.3131
-0.725098	-0.000665283	45.3619
-0.720215	-0.000660706	45.4107
-0.715332	-0.000656433	45.4595
-0.710449	-0.000651855	45.5083
-0.705566	-0.000647278	45.5571
-0.700684	-0.000643005	45.6059
-0.695801	-0.000638428	45.6547
-0.690918	-0.00063385	45.7035
-0.686035	-0.000629578	45.7523
-0.681152	-0.000625	45.8011
-0.67627	-0.000620422	45.8499
-0.671387	-0.00061615	45.8987
-0.666504	-0.000611572	45.9475
-0.661621	-0.000606995	45.9963
-0.656738	-0.000602417	46.0451
-0.651855	-0.000598145	46.0939
-0.646973	-0.000593567	46.1427
-0.64209	-0.000588989	46.1915
-0.637207	-0.000584717	46.2403
-0.632324	-0.000580139	46.2891
-0.627441	-0.000575562	46.3379
-0.622559	-0.000571289	46.3867
-0.617676	-0.000566711	46.4355
-0.612793	-0.000562134	46.4843
-0.60791	-0.000557861	46.5331
-0.603027	-0.000553284	46.5819
-0.598145	-0.000548706	46.6307
-0.593262	-0.000544434	46.6795
-0.588379	-0.000539856	46.7283
-0.583496	-0.000535278	46.7771
-0.578613	-0.000531006	46.8259
-0.57373	-0.000526428	46.8747
-0.568848	-0.000521851	46.9235
-0.563965	-0.000517578	46.9723
-0.559082	-0.000513	47.0211
-0.554199	-0.000508423	47.0699
-0.549316	-0.00050415	47.1187
-0.544434	-0.000499359	47.1675
-0.539551	-0.000494904	47.2163
-0.534668	-0.000490417	47.2651
-0.529785	-0.000485931	47.3139
-0.524902	-0.000481445	47.3627
-0.52002	-0.000476959	47.4115
-0.515137	-0.000472504	47.4603
-0.510254	-0.000468018	47.5091
-0.505371	-0.000463562	47.5579
-0.500488	-0.000459076	47.6067
-0.495605	-0.00045459	47.6555
-0.490723	-0.000450104	47.7043
-0.48584	-0.000445618	47.7531
-0.480957	-0.000441132	47.8019
-0.476074	-0.000436646	47.8507
-0.471191	-0.00043219	47.8995
-0.466309	-0.000427704	47.9483
-0.461426	-0.000423218	47.9971
-0.456543	-0.000418762	48.0459
-0.45166	-0.000414246	48.0947
-0.446777	-0.00040979	48.1435
-0.441895	-0.000405304	48.1923
-0.437012	-0.000400818	48.2411
-0.432129	-0.000396362	48.2899
-0.427246	-0.000391876	48.3387
-0.422363	-0.00038739	48.3875
-0.41748	-0.000382904	48.4363
-0.412598	-0.000378448	48.4851
-0.407715	-0.000373962	48.5339
-0.402832	-0.000369476	48.5827
-0.397949	-0.000365021	48.6315
-0.393066	-0.000360535	48.6803
-0.388184	-0.000356049	48.7291
-0.383301	-0.0003515625	48.7779
-0.378418	-0.000347107	48.8267
-0.373535	-0.00034259	48.8755
-0.368652	-0.000338104	48.9243
-0.36377	-0.000333649	48.9731
-0.358887	-0.000329163	49.0219
-0.354004	-0.000324677	49.0707
-0.349121	-0.000320221	49.1195
-0.344238	-0.000315735	49.1683
-0.339355	-0.000311249	49.2171
-0.334473	-0.000306793	49.2659
-0.32959	-0.000302307	49.3147
-0.324707	-0.000297821	49.3635
-0.319824	-0.000293335	49.4123
-0.314941	-0.000288879	49.4611
-0.310059	-0.000284363	49.5099
-0.305176	-0.000279877	49.5587
-0.300293	-0.000275391	49.6075
-0.29541	-0.000270905	49.6563
-0.290527	-0.000266418	49.7051
-0.285645	-0.000261963	49.7539
-0.280762	-0.000257477	49.8027
-0.275879	-0.000252991	49.8515
-0.270996	-0.000248535	49.9003
-0.266113	-0.000244049	49.9491
-0.26123	-0.000239594	49.9979
-0.256348	-0.000235077	50.0467
-0.251465	-0.000230621	50.0955
-0.246582	-0.000226135	50.1443
-0.241699	-0.000221649	50.1931
-0.236816	-0.000217194	50.2419
-0.231934	-0.000212677	50.2907
-0.227051	-0.000208221	50.3395
-0.222168	-0.000203735	50.3883
-0.217285	-0.000199249	50.4371
-0.212402	-0.000194763	50.4859
-0.20752	-0.000190277	50.5347
-0.202637	-0.000185822	50.5835
-0.197754	-0.000181335	50.6323
-0.192871	-0.00017688	50.6811
-0.187988	-0.000172394	50.7299
-0.183105	-0.000167908	50.7787
-0.178223	-0.000163422	50.8275
-0.17334	-0.000158936	50.8763
-0.168457	-0.00015448	50.9251
-0.163574	-0.000149994	50.9739
-0.158691	-0.000145508	51.0227
-0.153809	-0.000141022	51.0715
-0.148926	-0.000136566	51.1203
-0.144043	-0.00013208	51.1691
-0.13916	-0.000127594	51.2179
-0.134277	-0.000123138	51.2667
-0.129395	-0.000118622	51.3155
-0.124512	-0.000114166	51.3643
-0.119629	-0.000109711	51.4131
-0.114746	-0.000105225	51.4619
-0.109863	-0.000100739	51.5107
-0.10498	-9.62524e-05	51.5595
-0.100098	-9.17664e-05	51.6083
-0.0952148	-8.72498e-05	51.6571
-0.090332	-8.27637e-05	51.7059
-0.0854492	-7.82776e-05	51.7547
-0.0805664	-7.3822e-05	51.8035
-0.0756836	-6.93359e-05	51.8523
-0.0708008	-6.48499e-05	51.9011
-0.065918	-6.03943e-05	51.9499
-0.0610352	-5.59082e-05	51.9987
-0.0561523	-5.14221e-05	52.0475
-0.0512695	-4.69299e-05	52.0963
-0.0463867	-4.24438e-05	52.1451
-0.0415039	-3.7973e-05	52.1939
-0.0366211	-3.35052e-05	52.2427
-0.0317383	-2.90314e-05	52.2915
-0.0268555	-2.45575e-05	52.3403
-0.0219727	-2.00806e-05	52.3891
-0.0170898	-1.55945e-05	52.4379
-0.012207	-1.11328e-05	52.4867
-0.00732422	-6.65283e-06	52.5355
-0.00244141	-2.18048e-06	52.5843
0	6.92749e-08	52.6087