File: Edgar/20240517/20240517/electrodeposition_pulsed_potential_20240517_A/pulses_4000_to_5000.txt
Time (s)	WE(1).Potential (V)	WE(1).Current (A)
5475.68	-0.696503	-0.0242065
5476.56	0.549622	-3.05176e-06
5477.46	0.55069	5.31006e-06
5478.32	-0.698212	-0.0178192
5479.2	0.549652	-2.2583e-06
5480.1	0.549377	8.05664e-06
5480.98	0.000231934	0.00752258
5481.84	0.550964	-1.33362e-05
5482.74	0.549316	6.56128e-06
5483.62	0.00179138	0.00486359
5484.48	0.550568	-8.97217e-06
5485.38	0.550629	-7.75146e-06
5486.28	0.548431	0.0169556
5487.12	0.550934	-1.25427e-05
5488.02	0.549683	-1.5564e-06
5488.92	0.549561	0.00923462
5489.76	0.549286	-1.5564e-06
5490.66	0.550415	-7.53784e-06
5491.56	0.550568	0.000934753
5492.4	0.550934	-1.2146e-05
5493.3	0.549683	-2.34985e-06
5494.2	0.549347	0.000325653
5495.04	0.54953	-4.42505e-06
5495.94	0.550476	-8.60596e-06
5496.84	0.550873	0.000130157
5497.68	0.54953	-6.2561e-06
5498.58	0.551025	-1.23596e-05
5499.48	0.550507	5.69153e-05
5500.32	0.549438	-1.25122e-06
5501.22	0.550598	-9.12476e-06
5502.12	0.550537	2.31934e-05
5502.98	-0.697845	-0.0242004
5503.86	0.550446	-1.00403e-05
5504.76	0.549438	1.55029e-05
5505.62	-0.696655	-0.0178467
5506.5	0.551025	-1.25122e-05
5507.4	0.550934	1.5564e-06
5508.28	0.00162354	0.00754089
5509.14	0.549469	-1.15967e-06
5510.04	0.549591	5.43213e-06
5510.92	0.00192871	0.00488525
5511.78	0.550598	-1.10779e-05
5512.68	0.550995	-1.02844e-05
5513.58	0.549774	0.0169983
5514.42	0.549683	-4.11987e-06
5515.32	0.55069	-7.23267e-06
5516.22	0.55072	0.0093689
5517.06	0.550049	-5.15747e-06
5517.96	0.549561	-2.13623e-07
5518.86	0.549347	0.000969238
5519.7	0.550842	-1.24817e-05
5520.6	0.549805	-3.9978e-06
5521.5	0.549347	0.000333527
5522.34	0.550385	-1.18103e-05
5523.24	0.549286	1.0376e-06
5524.14	0.549805	0.00014035
5524.98	0.549377	-3.66211e-07
5525.88	0.550873	-1.0437e-05
5526.78	0.550018	6.46057e-05
5527.62	0.549957	-6.98853e-06
5528.52	0.551178	-1.23596e-05
5529.42	0.550598	2.27051e-05
5530.28	-0.696808	-0.0242218
5531.16	0.550781	-8.02612e-06
5532.06	0.550049	1.00403e-05
5532.92	-0.697845	-0.0178619
5533.8	0.550293	-6.19507e-06
5534.7	0.549286	1.02539e-05
5535.58	6.10352e-05	0.00752869
5536.44	0.550659	-1.18408e-05
5537.34	0.55011	-1.0376e-06
5538.22	0.000335693	0.00489685
5539.08	0.550323	-8.72803e-06
5539.98	0.54953	7.62939e-07
5540.88	0.549622	0.0170074
5541.72	0.54953	-2.59399e-06
5542.62	0.549377	2.04468e-06
5543.52	0.549774	0.0094574
5544.36	0.550873	-1.16882e-05
5545.26	0.550964	-1.10168e-05
5546.16	0.55069	0.000978394
5547	0.549591	-2.01416e-06
5547.9	0.550446	-6.86646e-06
5548.8	0.550171	0.000334106
5549.64	0.550018	-8.30078e-06
5550.54	0.551086	-1.21765e-05
5551.44	0.550262	0.0001409
5552.28	0.551147	-1.42822e-05
5553.18	0.551025	-1.22375e-05
5554.08	0.549805	6.66504e-05
5554.92	0.549622	-4.21143e-06
5555.82	0.550354	-1.03149e-05
5556.72	0.549744	2.98157e-05
5557.58	-0.696381	-0.0242615
5558.46	0.549286	-5.18799e-07
5559.36	0.549286	1.78528e-05
5560.22	-0.697052	-0.0179199
5561.1	0.550323	-8.3313e-06
5562	0.550781	1.31226e-06
5562.88	0.00113525	0.00751953
5563.74	0.550781	-9.30786e-06
5564.64	0.549622	7.93457e-07
5565.52	0.00193787	0.00487244
5566.38	0.55011	-6.073e-06
5567.28	0.549957	-2.44141e-07
5568.18	0.548462	0.017041
5569.02	0.550293	-7.8125e-06
5569.92	0.550323	-5.0354e-06
5570.82	0.550049	0.00950928
5571.66	0.549713	-4.66919e-06
5572.56	0.550262	-6.7749e-06
5573.46	0.550262	0.0010025
5574.3	0.549347	-2.44141e-07
5575.2	0.549896	-3.84521e-06
5576.1	0.54953	0.000348145
5576.94	0.55069	-8.02612e-06
5577.84	0.550018	-3.60107e-06
5578.74	0.550507	0.00014209
5579.58	0.550842	-9.64355e-06
5580.48	0.549347	7.01904e-07
5581.38	0.549316	7.0282e-05
5582.22	0.549316	-2.7771e-06
5583.12	0.550934	-1.32446e-05
5584.02	0.550232	2.70996e-05
5584.88	-0.696198	-0.0242706
5585.76	0.549988	-7.96509e-06
5586.66	0.550873	5.52368e-06
5587.52	-0.69812	-0.0179321
5588.4	0.550232	-7.20215e-06
5589.3	0.55011	0
5590.18	0.00173035	0.0074707
5591.04	0.549713	-2.65503e-06
5591.94	0.549286	3.2959e-06
5592.82	0.000823975	0.0048645
5593.68	0.549805	-5.67627e-06
5594.58	0.549713	7.62939e-07
5595.48	0.549072	0.0170563
5596.32	0.550995	-1.26343e-05
5597.22	0.551025	-9.09424e-06
5598.12	0.550232	0.00957031
5598.96	0.549347	-2.34985e-06
5599.86	0.549469	-2.13623e-07
5600.76	0.549866	0.00102722
5601.6	0.549927	-5.06592e-06
5602.5	0.549805	-3.02124e-06
5603.4	0.549316	0.000357422
5604.24	0.550079	-6.50024e-06
5605.14	0.550995	-1.17798e-05
5606.04	0.550262	0.000149597
5606.88	0.549988	-8.78906e-06
5607.78	0.550507	-7.87354e-06
5608.68	0.549957	6.67114e-05
5609.52	0.549408	-1.37329e-06
5610.42	0.550171	-1.06201e-05
5611.32	0.549347	3.69873e-05
5612.18	-0.696411	-0.0242859
5613.06	0.549927	-7.8125e-06
5613.96	0.550934	7.47681e-06
5614.82	-0.697937	-0.0179565
5615.7	0.550476	-8.88062e-06
5616.6	0.550323	-7.01904e-07
5617.48	0.00103149	0.00744934
5618.34	0.550476	-9.27734e-06
5619.24	0.550568	-6.10352e-06
5620.12	0.0015686	0.00484955
5620.98	0.549805	-5.18799e-06
5621.88	0.549347	3.57056e-06
5622.78	0.549042	0.0170715
5623.62	0.550476	-9.12476e-06
5624.52	0.550995	-9.67407e-06
5625.42	0.549225	0.00966492
5626.26	0.550873	-1.12e-05
5627.16	0.549408	0
5628.06	0.549835	0.00105011
5628.9	0.549438	-1.70898e-06
5629.8	0.549866	-3.75366e-06
5630.7	0.550415	0.000357147
5631.54	0.549377	-1.49536e-06
5632.44	0.550476	-8.91113e-06
5633.34	0.550903	0.000149231
5634.18	0.549561	-4.66919e-06
5635.08	0.550934	-1.171875E-05
5635.98	0.550781	6.60095e-05
5636.82	0.550659	-8.5144e-06
5637.72	0.549347	-1.0376e-06
5638.62	0.549713	3.42712e-05
5639.48	-0.696198	-0.0243134
5640.36	0.54953	3.35693e-07
5641.26	0.549469	1.85547e-05
5642.12	-0.697174	-0.0179932
5643	0.550476	-6.16455e-06
5643.9	0.549438	9.46045e-06
5644.78	0.000704956	0.00742462
5645.64	0.550385	-7.38525e-06
5646.54	0.551056	-6.31714e-06
5647.42	0.00172119	0.00483063
5648.28	0.550629	-9.85718e-06
5649.18	0.550323	-6.04248e-06
5650.08	0.549042	0.0170685
5650.92	0.549377	-1.28174e-06
5651.82	0.55014	-3.78418e-06
5652.72	0.549561	0.0097168
5653.56	0.550201	-9.33838e-06
5654.46	0.549469	-5.18799e-07
5655.36	0.550201	0.00106262
5656.2	0.550964	-1.23596e-05
5657.1	0.550598	-9.73511e-06
5658	0.549225	0.000373627
5658.84	0.550323	-7.93457e-06
5659.74	0.549713	-4.36401e-06
5660.64	0.549225	0.000164001
5661.48	0.551086	-1.41602e-05
5662.38	0.549408	-2.74658e-06
5663.28	0.549255	7.83997e-05
5664.12	0.551025	-1.32446e-05
5665.02	0.549438	-2.01416e-06
5665.92	0.550201	3.30505e-05
5666.78	-0.696228	-0.0243134
5667.66	0.550537	-1.0376e-05
5668.56	0.55072	9.46045e-06
5669.42	-0.696747	-0.0180298
5670.3	0.550903	-1.26648e-05
5671.2	0.549927	6.65283e-06
5672.08	0.000564575	0.00738831
5672.94	0.550232	-6.50024e-06
5673.84	0.55069	-3.08228e-06
5674.72	0.00184021	0.00481598
5675.58	0.549347	-5.79834e-07
5676.48	0.549744	9.15527e-07
5677.38	0.549347	0.0170776
5678.22	0.550598	-1.3092e-05
5679.12	0.551025	-1.02539e-05
5680.02	0.549988	0.00977173
5680.86	0.551056	-1.45569e-05
5681.76	0.550018	-3.44849e-06
5682.66	0.549286	0.00109314
5683.5	0.550781	-1.12305e-05
5684.4	0.551056	-1.07117e-05
5685.3	0.550995	0.000367645
5686.14	0.550201	-8.72803e-06
5687.04	0.549927	-9.46045e-07
5687.94	0.549469	0.00016745
5688.78	0.550232	-8.48389e-06
5689.68	0.550232	-9.21631e-06
5690.58	0.549927	7.36084e-05
5691.42	0.550323	-9.61304e-06
5692.32	0.549316	-1.2207e-07
5693.22	0.550842	3.16467e-05
5694.08	-0.69751	-0.0243439
5694.96	0.549561	-3.78418e-06
5695.86	0.549713	1.46484e-05
5696.72	-0.696655	-0.0180634
5697.6	0.55069	-1.01318e-05
5698.5	0.549805	9.64355e-06
5699.38	0.00155029	0.00735779
5700.24	0.549896	-6.65283e-06
5701.14	0.550964	-4.42505e-06
5702.02	0.00107727	0.00480713
5702.88	0.551117	-1.39465e-05
5703.78	0.549377	3.72314e-06
5704.68	0.548676	0.0171021
5705.52	0.550262	-8.94165e-06
5706.42	0.549744	-1.00708e-06
5707.32	0.549896	0.00981445
5708.16	0.550995	-1.34888e-05
5709.06	0.549713	-1.2207e-06
5709.96	0.55072	0.00110321
5710.8	0.550262	-7.47681e-06
5711.7	0.549835	-4.39453e-06
5712.6	0.550903	0.000376038
5713.44	0.549774	-5.70679e-06
5714.34	0.549347	7.32422e-07
5715.24	0.550751	0.000162231
5716.08	0.550262	-9.18579e-06
5716.98	0.551025	-1.23291e-05
5717.88	0.549377	8.30688e-05
5718.72	0.551025	-1.15967e-05
5719.62	0.551025	-1.22375e-05
5720.52	0.549652	4.04053e-05
5721.38	-0.697144	-0.0243378
5722.26	0.549896	-5.18799e-06
5723.16	0.551086	1.04675e-05
5724.02	-0.696533	-0.0180908
5724.9	0.550903	-1.23291e-05
5725.8	0.550659	3.35693e-06
5726.68	0.000308228	0.00733093
5727.54	0.55072	-1.29395e-05
5728.44	0.550964	-4.91333e-06
5729.32	0.0017334	0.00479462
5730.18	0.54953	-6.37817e-06
5731.08	0.54953	2.92969e-06
5731.98	0.55014	0.0170959
5732.82	0.549408	2.74658e-07
5733.72	0.550018	-2.31934e-06
5734.62	0.549438	0.00988159
5735.46	0.549622	-2.31934e-06
5736.36	0.550995	-1.00098e-05
5737.26	0.549438	0.00113068
5738.1	0.550934	-1.27869e-05
5739	0.549713	-9.15527e-08
5739.9	0.549622	0.000392242
5740.74	0.550201	-7.72095e-06
5741.64	0.550995	-9.85718e-06
5742.54	0.549347	0.000174744
5743.38	0.550537	-9.552e-06
5744.28	0.550964	-9.94873e-06
5745.18	0.549347	8.52966e-05
5746.02	0.550507	-9.85718e-06
5746.92	0.549438	-1.40381e-06
5747.82	0.550537	3.16162e-05
5748.68	-0.696289	-0.0243652
5749.56	0.550995	-1.27258e-05
5750.46	0.550537	1.72729e-05
5751.32	-0.696533	-0.0181122
5752.2	0.550842	-1.05591e-05
5753.1	0.550232	4.5166e-06
5753.98	0.000747681	0.00730927
5754.84	0.549377	-1.12915e-06
5755.74	0.551117	-4.27246e-06
5756.62	0.00175171	0.00477264
5757.48	0.549805	-5.88989e-06
5758.38	0.549683	2.56348e-06
5759.28	0.550201	0.0171143
5760.12	0.549408	-2.13623e-06
5761.02	0.549408	3.23486e-06
5761.92	0.549438	0.00992737
5762.76	0.5495	-2.01416e-06
5763.66	0.551025	-1.05286e-05
5764.56	0.549896	0.00115051
5765.4	0.550049	-7.32422e-06
5766.3	0.550659	-9.552e-06
5767.2	0.549286	0.000401917
5768.04	0.550629	-1.19629e-05
5768.94	0.549469	-6.10352e-07
5769.84	0.549805	0.000176208
5770.68	0.550934	-1.41602e-05
5771.58	0.550629	-8.08716e-06
5772.48	0.551056	7.46765e-05
5773.32	0.550537	-1.18103e-05
5774.22	0.549622	-2.34985e-06
5775.12	0.549622	4.32434e-05
5775.98	-0.697113	-0.0243774
5776.86	0.550842	-1.1322e-05
5777.76	0.549988	1.85852e-05
5778.62	-0.697998	-0.0181244
5779.5	0.551086	-1.35498e-05
5780.4	0.549866	9.85718e-06
5781.28	0.00187988	0.00727081
5782.14	0.549591	-2.7771e-06
5783.04	0.549622	5.34058e-06
5783.92	0.00197449	0.00475586
5784.78	0.55072	-8.54492e-06
5785.68	0.550964	-6.13403e-06
5786.58	0.548584	0.0171204
5787.42	0.55072	-1.34583e-05
5788.32	0.550751	-7.69043e-06
5789.22	0.549072	0.0099762
5790.06	0.550598	-8.39233e-06
5790.96	0.551086	-9.67407e-06
5791.86	0.54953	0.00116821
5792.7	0.551178	-1.37329e-05
5793.6	0.550079	-3.63159e-06
5794.5	0.549561	0.000407166
5795.34	0.549896	-7.75146e-06
5796.24	0.549744	-2.7771e-06
5797.14	0.550507	0.000174713
5797.98	0.549713	-5.37109e-06
5798.88	0.550446	-1.11694e-05
5799.78	0.550415	8.03833e-05
5800.62	0.551025	-1.38245e-05
5801.52	0.550476	-5.34058e-06
5802.42	0.5495	4.37012e-05
5803.28	-0.697876	-0.0243805
5804.16	0.549561	-3.66211e-07
5805.06	0.551056	1.20239e-05
5805.92	-0.698242	-0.0181549
5806.8	0.549408	-9.76562e-07
5807.7	0.550018	7.69043e-06
5808.58	0.0016449	0.00724213
5809.44	0.550354	-6.7749e-06
5810.34	0.550842	-3.90625e-06
5811.22	0.00194397	0.00473846
5812.08	0.549561	-1.7395e-06
5812.98	0.551147	-8.60596e-06
5813.88	0.549255	0.0171265
5814.72	0.55072	-1.11694e-05
5815.62	0.550903	-9.85718e-06
5816.52	0.549072	0.0100159
5817.36	0.550903	-1.27563e-05
5818.26	0.549316	-9.15527e-08
5819.16	0.549438	0.00118774
5820	0.551025	-1.39465e-05
5820.9	0.55011	-6.95801e-06
5821.8	0.549988	0.000410797
5822.64	0.550537	-1.05286e-05
5823.54	0.549835	-1.06812e-06
5824.44	0.550232	0.000178162
5825.28	0.551025	-1.40686e-05
5826.18	0.550598	-9.06372e-06
5827.08	0.549286	9.19189e-05
5827.92	0.550568	-1.06506e-05
5828.82	0.549988	-4.05884e-06
5829.72	0.551025	3.22876e-05
5830.58	-0.696777	-0.0244019
5831.46	0.549591	-1.98364e-06
5832.36	0.549652	2.49329e-05
5833.22	-0.69632	-0.0181915
5834.1	0.550964	-1.14441e-05
5835	0.550537	7.62939e-06
5835.88	0.00140381	0.00721466
5836.74	0.54953	-2.99072e-06
5837.64	0.549377	6.34766e-06
5838.52	0.00039978	0.00473145
5839.38	0.550262	-9.12476e-06
5840.28	0.550262	-3.17383e-06
5841.18	0.549286	0.0171356
5842.02	0.550873	-1.26648e-05
5842.92	0.551056	-9.30786e-06
5843.82	0.550812	0.0100525
5844.66	0.551025	-1.37939e-05
5845.56	0.549438	1.7395e-06
5846.46	0.550354	0.00120667
5847.3	0.549835	-5.5542e-06
5848.2	0.549591	-1.5564e-06
5849.1	0.549377	0.000423706
5849.94	0.549713	-5.00488e-06
5850.84	0.549408	1.58691e-06
5851.74	0.549896	0.000183228
5852.58	0.549622	-4.60815e-06
5853.48	0.550964	-1.21155e-05
5854.38	0.550049	8.93555e-05
5855.22	0.550507	-1.04065e-05
5856.12	0.549438	-1.34277e-06
5857.02	0.550415	3.85742e-05
5857.88	-0.697418	-0.0244141
5858.76	0.550049	-5.06592e-06
5859.66	0.549469	2.40479e-05
5860.52	-0.697693	-0.0182129
5861.4	0.55072	-9.21631e-06
5862.3	0.549713	1.08032e-05
5863.18	0.000585937	0.00719208
5864.04	0.550842	-1.12305e-05
5864.94	0.550568	-1.80054e-06
5865.82	0.000393677	0.00471252
5866.68	0.550323	-7.26318e-06
5867.58	0.549347	4.48608e-06
5868.48	0.548889	0.0171417
5869.32	0.550018	-7.08008e-06
5870.22	0.550446	-5.24902e-06
5871.12	0.550598	0.0101044
5871.96	0.549408	-1.2207e-06
5872.86	0.550873	-9.46045e-06
5873.76	0.550812	0.00121948
5874.6	0.550812	-1.1261e-05
5875.5	0.551025	-1.02539e-05
5876.4	0.550934	0.000419586
5877.24	0.550751	-1.03149e-05
5878.14	0.550903	-9.73511e-06
5879.04	0.550659	0.000186462
5879.88	0.54953	-2.7771e-06
5880.78	0.549347	-3.05176e-07
5881.68	0.549957	9.04541e-05
5882.52	0.549683	-4.39453e-06
5883.42	0.549683	-3.41797e-06
5884.32	0.550537	3.97949e-05
5885.18	-0.696899	-0.0244202
5886.06	0.54953	-2.16675e-06
5886.96	0.549591	2.48413e-05
5887.82	-0.697113	-0.0182526
5888.7	0.549622	-2.13623e-06
5889.6	0.550049	8.30078e-06
5890.48	0.000454712	0.00716614
5891.34	0.550751	-1.00708e-05
5892.24	0.550171	2.04468e-06
5893.12	0.000811768	0.00468842
5893.98	0.550659	-9.27734e-06
5894.88	0.550659	-3.66211e-06
5895.78	0.550079	0.0171356
5896.62	0.549591	-2.38037e-06
5897.52	0.549805	-8.54492e-07
5898.42	0.549103	0.010144
5899.26	0.550293	-8.02612e-06
5900.16	0.550354	-5.98145e-06
5901.06	0.54953	0.00124237
5901.9	0.55072	-1.09253e-05
5902.8	0.5495	-7.01904e-07
5903.7	0.550293	0.000431213
5904.54	0.550629	-1.13831e-05
5905.44	0.549591	-1.70898e-06
5906.34	0.550201	0.000190918
5907.18	0.549469	-3.05176e-06
5908.08	0.550873	-1.02234e-05
5908.98	0.549438	9.70764e-05
5909.82	0.550964	-1.25732e-05
5910.72	0.549377	-4.27246e-07
5911.62	0.549835	4.60815e-05
5912.48	-0.69754	-0.0244446
5913.36	0.550323	-8.81958e-06
5914.26	0.551056	1.40991e-05
5915.12	-0.696533	-0.01828
5916	0.549866	-4.94385e-06
5916.9	0.550842	2.83813e-06
5917.78	0.00159607	0.00712799
5918.64	0.549316	-2.13623e-06
5919.54	0.549835	2.62451e-06
5920.42	0.000283813	0.00467804
5921.28	0.55011	-4.97437e-06
5922.18	0.549347	3.72314e-06
5923.08	0.548645	0.0171539
5923.92	0.549438	-9.15527e-07
5924.82	0.550842	-8.36182e-06
5925.72	0.550018	0.0101715
5926.56	0.549683	-3.02124e-06
5927.46	0.549927	-9.46045e-07
5928.36	0.549469	0.00126373
5929.2	0.550323	-7.87354e-06
5930.1	0.551086	-1.12e-05
5931	0.549561	0.000442657
5931.84	0.549896	-4.63867e-06
5932.74	0.550537	-8.42285e-06
5933.64	0.550995	0.000188416
5934.48	0.550415	-6.83594e-06
5935.38	0.549377	-9.15527e-08
5936.28	0.550537	8.92944e-05
5937.12	0.550476	-8.36182e-06
5938.02	0.549622	-2.31934e-06
5938.92	0.550659	4.20837e-05
5939.78	-0.696625	-0.024472
5940.66	0.549377	-4.27246e-07
5941.56	0.550903	1.66321e-05
5942.42	-0.696716	-0.0183197
5943.3	0.550842	-1.05286e-05
5944.2	0.5495	1.40076e-05
5945.08	0.000790405	0.00711823
5945.94	0.549316	-7.62939e-07
5946.84	0.551056	-4.63867e-06
5947.72	0.00148621	0.00465607
5948.58	0.550079	-7.32422e-06
5949.48	0.54953	2.56348e-06
5950.38	0.550262	0.017157
5951.22	0.550995	-1.3092e-05
5952.12	0.549286	3.44849e-06
5953.02	0.550659	0.0102081
5953.86	0.55011	-7.47681e-06
5954.76	0.550659	-8.39233e-06
5955.66	0.549255	0.0012851
5956.5	0.55069	-1.12305e-05
5957.4	0.550964	-1.15967e-05
5958.3	0.549927	0.000448761
5959.14	0.550995	-1.29089e-05
5960.04	0.549347	-2.13623e-07
5960.94	0.550049	0.000200043
5961.78	0.549896	-5.06592e-06
5962.68	0.549408	9.15527e-08
5963.58	0.550323	9.45435e-05
5964.42	0.551147	-1.26038e-05
5965.32	0.550995	-1.2146e-05
5966.22	0.550903	4.16565e-05
5967.08	-0.697205	-0.0244904
5967.96	0.550354	-6.65283e-06
5968.86	0.549469	2.82898e-05
5969.72	-0.697632	-0.0183289
5970.6	0.549957	-5.79834e-06
5971.5	0.549377	1.51978e-05
5972.38	0.0015625	0.0070871
5973.24	0.550293	-7.41577e-06
5974.14	0.550415	1.67847e-06
5975.02	0.00115051	0.00464508
5975.88	0.551025	-1.24512e-05
5976.78	0.551025	-6.7749e-06
5977.68	0.55011	0.0171631
5978.52	0.550018	-6.10352e-06
5979.42	0.549622	9.15527e-07
5980.32	0.54895	0.0102631
5981.16	0.550232	-7.72095e-06
5982.06	0.550354	-6.68335e-06
5982.96	0.550049	0.00130188
5983.8	0.550629	-8.45337e-06
5984.7	0.550323	-5.88989e-06
5985.6	0.549927	0.000450378
5986.44	0.549347	-3.05176e-08
5987.34	0.549683	-3.35693e-06
5988.24	0.550964	0.000200806
5989.08	0.550659	-1.17798e-05
5989.98	0.550934	-1.0376e-05
5990.88	0.550964	9.21631e-05
5991.72	0.550568	-1.01624e-05
5992.62	0.550354	-7.87354e-06
5993.52	0.550262	4.35181e-05
5994.38	-0.697784	-0.0244995
5995.26	0.549347	-1.5564e-06
5996.16	0.550781	1.69678e-05
5997.02	-0.69693	-0.0183716
5997.9	0.550018	-6.43921e-06
5998.8	0.549377	1.75171e-05
5999.68	0.000250244	0.00707886
6000.54	0.55069	-1.0437e-05
6001.44	0.550537	2.7771e-06
6002.32	0.000900269	0.00463379
6003.18	0.550568	-1.0437e-05
6004.08	0.550629	-1.70898e-06
6004.98	0.548523	0.0171814
6005.82	0.550293	-8.54492e-06
6006.72	0.550934	-6.37817e-06
6007.62	0.548859	0.0102905
6008.46	0.549774	-6.04248e-06
6009.36	0.550964	-9.94873e-06
6010.26	0.549347	0.00131989
6011.1	0.549438	-2.13623e-06
6012	0.551056	-1.22681e-05
6012.9	0.549408	0.000466339
6013.74	0.550659	-9.52148e-06
6014.64	0.549774	-3.93677e-06
6015.54	0.549866	0.00020932
6016.38	0.550049	-8.81958e-06
6017.28	0.549469	-1.34277e-06
6018.18	0.549469	0.000105865
6019.02	0.549591	-4.88281e-06
6019.92	0.549683	-2.86865e-06
6020.82	0.549469	5.30396e-05
6021.68	-0.697571	-0.0245087
6022.56	0.549957	-6.53076e-06
6023.46	0.549377	3.03345e-05
6024.32	-0.69809	-0.0183899
6025.2	0.549561	-2.34985e-06
6026.1	0.549469	1.58081e-05
6026.98	0.000115967	0.007052
6027.84	0.550171	-5.43213e-06
6028.74	0.549591	7.04956e-06
6029.62	0.00045166	0.00461548
6030.48	0.55072	-1.20544e-05
6031.38	0.549927	1.06812e-06
6032.28	0.548492	0.0171875
6033.12	0.550995	-1.34888e-05
6034.02	0.549866	-3.05176e-07
6034.92	0.548889	0.0103302
6035.76	0.550323	-9.3689e-06
6036.66	0.550751	-8.30078e-06
6037.56	0.550812	0.00133087
6038.4	0.549622	-5.46265e-06
6039.3	0.550323	-8.08716e-06
6040.2	0.549927	0.000468933
6041.04	0.549286	-1.25122e-06
6041.94	0.549713	-2.65503e-06
6042.84	0.549347	0.000218231
6043.68	0.549377	-3.57056e-06
6044.58	0.549347	-1.2207e-06
6045.48	0.549896	0.000106659
6046.32	0.549561	-2.53296e-06
6047.22	0.550781	-1.12305e-05
6048.12	0.550934	4.76685e-05
6048.98	-0.696655	-0.0245361
6049.86	0.550964	-1.26038e-05
6050.76	0.550964	1.9043e-05
6051.62	-0.698242	-0.0184296
6052.5	0.549774	-4.69971e-06
6053.4	0.549774	1.35498e-05
6054.28	0.00148621	0.0070163
6055.14	0.550995	-1.25427e-05
6056.04	0.549316	1.07727e-05
6056.92	0.00110474	0.00459656
6057.78	0.549805	-4.69971e-06
6058.68	0.55069	-2.89917e-06
6059.58	0.548584	0.0171844
6060.42	0.549988	-8.02612e-06
6061.32	0.549347	1.7395e-06
6062.22	0.549561	0.0103699
6063.06	0.549896	-6.98853e-06
6063.96	0.549255	2.65503e-06
6064.86	0.5495	0.0013623
6065.7	0.551056	-1.37634e-05
6066.6	0.550537	-6.71387e-06
6067.5	0.550476	0.000473145
6068.34	0.549835	-6.80542e-06
6069.24	0.549561	-2.2583e-06
6070.14	0.549713	0.000220093
6070.98	0.549866	-6.34766e-06
6071.88	0.55011	-6.68335e-06
6072.78	0.550781	0.000101166
6073.62	0.549377	-1.61743e-06
6074.52	0.549896	-2.96021e-06
6075.42	0.551117	4.71497e-05
6076.28	-0.696838	-0.0245483
6077.16	0.549377	-2.2583e-06
6078.06	0.549316	3.09753e-05
6078.92	-0.696594	-0.018454
6079.8	0.550629	-8.36182e-06
6080.7	0.549652	1.50757e-05
6081.58	0.000125122	0.00699524
6082.44	0.549408	3.66211e-07
6083.34	0.549316	1.0376e-05
6084.22	0.00162964	0.00457397
6085.08	0.549469	-1.31226e-06
6085.98	0.551056	-6.34766e-06
6086.88	0.549744	0.0171906
6087.72	0.549438	-5.98145e-06
6088.62	0.549835	-1.95313e-06
6089.52	0.549377	0.0104126
6090.36	0.549194	-1.83105e-07
6091.26	0.549286	2.34985e-06
6092.16	0.549561	0.00138214
6093	0.549438	-5.67627e-06
6093.9	0.549377	4.27246e-07
6094.8	0.549774	0.000484955
6095.64	0.550354	-1.1261e-05
6096.54	0.550934	-1.11694e-05
6097.44	0.550903	0.000215668
6098.28	0.55014	-9.42993e-06
6099.18	0.549957	-5.49316e-06
6100.08	0.550934	0.000103485
6100.92	0.55072	-1.14746e-05
6101.82	0.550507	-9.06372e-06
6102.72	0.550079	5.39246e-05
6103.58	-0.697174	-0.0245575
6104.46	0.550415	-7.23267e-06
6105.36	0.549835	2.82593e-05
6106.22	-0.698212	-0.0184692
6107.1	0.549255	-8.23975e-07
6108	0.550018	1.34277e-05
6108.88	0.000259399	0.00697754
6109.74	0.549469	-2.50244e-06
6110.64	0.550995	-1.77002e-06
6111.52	0.00183716	0.00456451
6112.38	0.549316	-9.46045e-07
6113.28	0.550262	-1.5564e-06
6114.18	0.549255	0.0172058
6115.02	0.549652	-3.87573e-06
6115.92	0.549896	-6.71387e-07
6116.82	0.549042	0.0104492
6117.66	0.549805	-5.15747e-06
6118.56	0.550537	-5.7373e-06
6119.46	0.550507	0.0013974
6120.3	0.549377	-1.31226e-06
6121.2	0.550629	-9.39941e-06
6122.1	0.549896	0.000493591
6122.94	0.549347	-1.7395e-06
6123.84	0.551117	-1.11389e-05
6124.74	0.55011	0.00022464
6125.58	0.549835	-5.95093e-06
6126.48	0.549194	4.27246e-07
6127.38	0.550995	0.000104645
6128.22	0.550446	-1.00098e-05
6129.12	0.551086	-1.0498e-05
6130.02	0.549316	6.09741e-05
6130.88	-0.697723	-0.0245728
6131.76	0.549194	1.98364e-06
6132.66	0.54953	3.20129e-05
6133.52	-0.697937	-0.0184967
6134.4	0.549774	-6.53076e-06
6135.3	0.550598	8.97217e-06
6136.18	0.00164795	0.00694458
6137.04	0.55069	-1.34583e-05
6137.94	0.550964	-6.10352e-07
6138.82	0.000979614	0.00454712
6139.68	0.549103	-6.40869e-07
6140.58	0.550873	-4.3335e-06
6141.48	0.549835	0.0171967
6142.32	0.550476	-1.31836e-05
6143.22	0.550842	-6.98853e-06
6144.12	0.549896	0.0104797
6144.96	0.550659	-1.40076e-05
6145.86	0.550385	-4.27246e-06
6146.76	0.551025	0.00141083
6147.6	0.55014	-8.5144e-06
6148.5	0.550232	-5.31006e-06
6149.4	0.549622	0.000501373
6150.24	0.549438	-3.26538e-06
6151.14	0.549988	-4.88281e-06
6152.04	0.549225	0.000232758
6152.88	0.549896	-7.01904e-06
6153.78	0.5495	-7.32422e-07
6154.68	0.549683	0.000117035
6155.52	0.550903	-1.36414e-05
6156.42	0.550903	-1.07117e-05
6157.32	0.550751	5.26123e-05
6158.18	-0.696777	-0.0246002
6159.06	0.551056	-1.23901e-05
6159.96	0.550171	2.75574e-05
6160.82	-0.697418	-0.0185394
6161.7	0.549835	-4.82178e-06
6162.6	0.549438	1.9043e-05
6163.48	0.000619507	0.0069223
6164.34	0.551056	-1.34583e-05
6165.24	0.551117	-2.59399e-06
6166.12	0.00078125	0.00453369
6166.98	0.54953	-1.25122e-06
6167.88	0.549408	2.92969e-06
6168.78	0.55014	0.0172028
6169.62	0.550415	-7.38525e-06
6170.52	0.549683	3.44849e-06
6171.42	0.549805	0.010495
6172.26	0.549988	-4.82178e-06
6173.16	0.55072	-4.66919e-06
6174.06	0.549774	0.00144012
6174.9	0.54953	-2.7771e-06
6175.8	0.550079	-5.61523e-06
6176.7	0.550964	0.000499268
6177.54	0.550018	-7.04956e-06
6178.44	0.549286	9.46045e-07
6179.34	0.549683	0.000234375
6180.18	0.549347	-1.40381e-06
6181.08	0.549377	1.25122e-06
6181.98	0.549286	0.000122192
6182.82	0.550873	-1.5564e-05
6183.72	0.549988	-4.02832e-06
6184.62	0.549927	6.05774e-05
6185.48	-0.697601	-0.0246002
6186.36	0.551025	-1.33972e-05
6187.26	0.550659	2.52075e-05
6188.12	-0.696503	-0.0185608
6189	0.550415	-7.23267e-06
6189.9	0.550537	1.1322e-05
6190.78	0.00032959	0.00690033
6191.64	0.549347	-1.83105e-07
6192.54	0.550293	6.04248e-06
6193.42	0.000341797	0.0045285
6194.28	0.551056	-1.22681e-05
6195.18	0.550812	-3.26538e-06
6196.08	0.550018	0.0172028
6196.92	0.550995	-1.37939e-05
6197.82	0.550385	-1.92261e-06
6198.72	0.549164	0.010556
6199.56	0.550873	-1.14746e-05
6200.46	0.550964	-9.00269e-06
6201.36	0.550873	0.00145142
6202.2	0.550446	-9.0332e-06
6203.1	0.549744	8.23975e-07
6204	0.549194	0.00052124
6204.84	0.551056	-1.30615e-05
6205.74	0.551086	-1.10779e-05
6206.64	0.550659	0.000230072
6207.48	0.549347	-2.04468e-06
6208.38	0.549408	1.00708e-06
6209.28	0.550842	0.000111847
6210.12	0.55011	-7.1106e-06
6211.02	0.550262	-7.99561e-06
6211.92	0.549988	5.896e-05
6212.78	-0.696655	-0.0246063
6213.66	0.550873	-7.99561e-06
6214.56	0.549896	3.18909e-05
6215.42	-0.696991	-0.0185913
6216.3	0.550507	-6.2561e-06
6217.2	0.549408	2.09045e-05
6218.08	0.0013916	0.00686218
6218.94	0.550171	-6.53076e-06
6219.84	0.550507	3.479e-06
6220.72	0.00170593	0.0044986
6221.58	0.549774	-3.72314e-06
6222.48	0.55014	1.83105e-07
6223.38	0.548462	0.0172119
6224.22	0.549652	-3.23486e-06
6225.12	0.550934	-6.01196e-06
6226.02	0.550537	0.0105652
6226.86	0.549408	-2.16675e-06
6227.76	0.549316	2.28882e-06
6228.66	0.549408	0.00147919
6229.5	0.549957	-4.91333e-06
6230.4	0.550293	-5.00488e-06
6231.3	0.550385	0.000522461
6232.14	0.550171	-9.33838e-06
6233.04	0.550476	-7.75146e-06
6233.94	0.551025	0.000231476
6234.78	0.550903	-1.1322e-05
6235.68	0.550934	-1.171875E-05
6236.58	0.551086	0.000114227
6237.42	0.549408	-1.58691e-06
6238.32	0.5495	-2.38037e-06
6239.22	0.550446	5.80139e-05
6240.08	-0.696442	-0.0246216
6240.96	0.550964	-9.46045e-06
6241.86	0.5495	3.66211e-05
6242.72	-0.697662	-0.0185974
6243.6	0.549622	-4.3335e-06
6244.5	0.550751	1.10474e-05
6245.38	0.000549316	0.00685059
6246.24	0.55072	-1.3855e-05
6247.14	0.549927	6.56128e-06
6248.02	0.000299072	0.00449524
6248.88	0.549316	9.15527e-08
6249.78	0.550018	4.88281e-07
6250.68	0.548492	0.0172272
6251.52	0.55014	-6.5918e-06
6252.42	0.549316	3.87573e-06
6253.32	0.549072	0.010611
6254.16	0.550964	-1.36414e-05
6255.06	0.550842	-6.95801e-06
6255.96	0.550598	0.0014975
6256.8	0.549377	-1.25122e-06
6257.7	0.549347	2.38037e-06
6258.6	0.549164	0.000533142
6259.44	0.55011	-7.14111e-06
6260.34	0.550507	-6.92749e-06
6261.24	0.551147	0.000235535
6262.08	0.549347	-1.00708e-06
6262.98	0.549347	-6.10352e-08
6263.88	0.549255	0.00012619
6264.72	0.550598	-9.24683e-06
6265.62	0.551025	-1.09863e-05
6266.52	0.551147	5.67627e-05
6267.38	-0.696655	-0.0246185
6268.26	0.550873	-1.22681e-05
6269.16	0.551147	2.33459e-05
6270.02	-0.696503	-0.0186249
6270.9	0.549316	2.13623e-07
6271.8	0.550385	1.1322e-05
6272.68	0.000418091	0.0068161
6273.54	0.550232	-5.31006e-06
6274.44	0.550873	1.09863e-06
6275.32	0.000759888	0.00447571
6276.18	0.550934	-9.85718e-06
6277.08	0.550201	-1.83105e-07
6277.98	0.550262	0.017215
6278.82	0.549866	-2.31934e-06
6279.72	0.551025	-7.93457e-06
6280.62	0.549438	0.0106445
6281.46	0.550964	-1.23901e-05
6282.36	0.550934	-1.01929e-05
6283.26	0.54953	0.00152313
6284.1	0.549316	0
6285	0.54953	2.44141e-07
6285.9	0.550903	0.000530701
6286.74	0.550964	-1.2146e-05
6287.64	0.549377	5.18799e-07
6288.54	0.550018	0.00024823
6289.38	0.550751	-1.15356e-05
6290.28	0.549377	1.83105e-06
6291.18	0.549225	0.000131042
6292.02	0.549438	-2.31934e-06
6292.92	0.549316	-3.05176e-08
6293.82	0.549164	6.96411e-05
6294.68	-0.697815	-0.0246399
6295.56	0.549957	-4.30298e-06
6296.46	0.550873	2.56958e-05
6297.32	-0.697083	-0.0186523
6298.2	0.549347	-5.49316e-07
6299.1	0.549957	1.80054e-05
6299.98	0.00146179	0.0067923
6300.84	0.550201	-8.54492e-06
6301.74	0.549896	6.89697e-06
6302.62	0.00172119	0.00445374
6303.48	0.549377	-2.68555e-06
6304.38	0.549347	6.2561e-06
6305.28	0.550018	0.0172211
6306.12	0.549164	-8.23975e-07
6307.02	0.549438	3.9978e-06
6307.92	0.548859	0.0106689
6308.76	0.550751	-1.15051e-05
6309.66	0.550812	-8.20923e-06
6310.56	0.5495	0.00154694
6311.4	0.550629	-1.00403e-05
6312.3	0.550964	-1.00708e-05
6313.2	0.550537	0.000540771
6314.04	0.550873	-1.28174e-05
6314.94	0.550659	-9.09424e-06
6315.84	0.549316	0.000258118
6316.68	0.550995	-1.36108e-05
6317.58	0.54953	-7.93457e-07
6318.48	0.549194	0.00013382
6319.32	0.549408	-1.40381e-06
6320.22	0.54953	-1.25122e-06
6321.12	0.549225	7.24792e-05
6321.98	-0.697357	-0.0246613
6322.86	0.550537	-8.81958e-06
6323.76	0.549805	3.72314e-05
6324.62	-0.698029	-0.0186676
6325.5	0.551056	-1.32751e-05
6326.4	0.55011	1.62964e-05
6327.28	0.00109253	0.00677002
6328.14	0.549377	1.2207e-06
6329.04	0.550476	4.45557e-06
6329.92	0.00100403	0.00444916
6330.78	0.549744	-1.09863e-06
6331.68	0.549469	5.95093e-06
6332.58	0.548889	0.0172333
6333.42	0.550964	-1.37024e-05
6334.32	0.549744	1.7395e-06
6335.22	0.54953	0.0106995
6336.06	0.551025	-1.38855e-05
6336.96	0.549713	-2.50244e-06
6337.86	0.550232	0.00156372
6338.7	0.551025	-1.22681e-05
6339.6	0.549896	-3.02124e-06
6340.5	0.550629	0.000549011
6341.34	0.549316	-1.12915e-06
6342.24	0.550415	-6.71387e-06
6343.14	0.551086	0.000247528
6343.98	0.549377	-2.28882e-06
6344.88	0.549316	3.35693e-07
6345.78	0.550537	0.000122742
6346.62	0.550262	-8.78906e-06
6347.52	0.549438	-4.08936e-06
6348.42	0.549835	6.83899e-05
6349.28	-0.697815	-0.024649
6350.16	0.550385	-1.01929e-05
6351.06	0.549622	3.75061e-05
6351.92	-0.697784	-0.0186768
6352.8	0.55014	-2.41089e-06
6353.7	0.549774	2.01721e-05
6354.58	8.23975e-05	0.00675171
6355.44	0.549377	-5.49316e-07
6356.34	0.549316	1.27869e-05
6357.22	0.00105591	0.00443146
6358.08	0.549622	-2.53296e-06
6358.98	0.549347	6.53076e-06
6359.88	0.55014	0.0172272
6360.72	0.551056	-1.33667e-05
6361.62	0.549744	-8.8501e-07
6362.52	0.549774	0.0107391
6363.36	0.55069	-1.08643e-05
6364.26	0.550964	-9.06372e-06
6365.16	0.550812	0.00157745
6366	0.549316	-3.66211e-07
6366.9	0.550385	-6.34766e-06
6367.8	0.549957	0.000555725
6368.64	0.549377	-1.37329e-06
6369.54	0.549408	-2.22778e-06
6370.44	0.549652	0.000264496
6371.28	0.550873	-1.18713e-05
6372.18	0.549255	1.5564e-06
6373.08	0.550934	0.000125275
6373.92	0.550049	-5.95093e-06
6374.82	0.549286	5.79834e-07
6375.72	0.550415	6.56433e-05
6376.58	-0.696106	-0.0246735
6377.46	0.549316	-3.66211e-07
6378.36	0.549622	3.95508e-05
6379.22	-0.697998	-0.0187042
6380.1	0.550537	-8.97217e-06
6381	0.550812	1.2085e-05
6381.88	0.000341797	0.00671906
6382.74	0.549652	-2.99072e-06
6383.64	0.550903	2.19727e-06
6384.52	0.000521851	0.00441528
6385.38	0.5495	-2.62451e-06
6386.28	0.550476	8.54492e-07
6387.18	0.550018	0.0172241
6388.02	0.549866	-6.71387e-06
6388.92	0.549683	2.47192e-06
6389.82	0.550262	0.0107574
6390.66	0.549774	-3.84521e-06
6391.56	0.549194	2.04468e-06
6392.46	0.550598	0.00160278
6393.3	0.551147	-1.32446e-05
6394.2	0.550781	-1.12e-05
6395.1	0.550018	0.000567017
6395.94	0.549286	-1.12915e-06
6396.84	0.550903	-1.11694e-05
6397.74	0.550018	0.000263428
6398.58	0.550415	-7.14111e-06
6399.48	0.550507	-7.01904e-06
6400.38	0.550598	0.000132568
6401.22	0.55014	-7.93457e-06
6402.12	0.54953	-2.34985e-06
6403.02	0.54953	7.48291e-05
6403.88	-0.697266	-0.0246704
6404.76	0.549896	-4.85229e-06
6405.66	0.550415	3.54919e-05
6406.52	-0.697906	-0.0187256
6407.4	0.549652	-2.80762e-06
6408.3	0.55011	1.76086e-05
6409.18	0.000222778	0.00669739
6410.04	0.549438	-1.67847e-06
6410.94	0.551147	8.8501e-07
6411.82	0.000521851	0.00440002
6412.68	0.549347	-1.67847e-06
6413.58	0.551025	-5.43213e-06
6414.48	0.549652	0.0172302
6415.32	0.549835	-6.68335e-06
6416.22	0.549408	5.64575e-06
6417.12	0.548828	0.010791
6417.96	0.549805	-7.08008e-06
6418.86	0.54953	5.49316e-07
6419.76	0.550873	0.00162231
6420.6	0.551086	-1.38855e-05
6421.5	0.55014	-4.5166e-06
6422.4	0.549988	0.000574646
6423.24	0.550751	-1.24817e-05
6424.14	0.549347	5.49316e-07
6425.04	0.550598	0.000265015
6425.88	0.550964	-1.39771e-05
6426.78	0.5495	-7.01904e-07
6427.68	0.550232	0.000135284
6428.52	0.549591	-4.08936e-06
6429.42	0.550659	-9.30786e-06
6430.32	0.550293	6.84814e-05
6431.18	-0.697815	-0.0246735
6432.06	0.549774	-3.11279e-06
6432.96	0.549408	4.44946e-05
6433.82	-0.698181	-0.0187408
6434.7	0.551147	-1.45874e-05
6435.6	0.549347	2.52075e-05
6436.48	0.00139771	0.00667358
6437.34	0.550293	-1.16882e-05
6438.24	0.550232	9.58252e-06
6439.12	0.000201416	0.00438812
6439.98	0.550751	-1.07422e-05
6440.88	0.5495	6.50024e-06
6441.78	0.550079	0.0172363
6442.62	0.549316	-2.65503e-06
6443.52	0.550751	-6.34766e-06
6444.42	0.549927	0.0108063
6445.26	0.550781	-1.04065e-05
6446.16	0.550995	-8.30078e-06
6447.06	0.550903	0.00165039
6447.9	0.550018	-6.74438e-06
6448.8	0.549377	4.27246e-07
6449.7	0.549255	0.000588379
6450.54	0.550293	-9.82666e-06
6451.44	0.549377	-1.86157e-06
6452.34	0.550201	0.000270111
6453.18	0.549469	-3.41797e-06
6454.08	0.550751	-1.25427e-05
6454.98	0.549438	0.000143951
6455.82	0.550232	-6.46973e-06
6456.72	0.551025	-1.23596e-05
6457.62	0.550995	6.78406e-05
6458.48	-0.696655	-0.0246948
6459.36	0.549316	-1.5564e-06
6460.26	0.549438	4.49829e-05
6461.12	-0.696838	-0.0187653
6462	0.549683	-3.90625e-06
6462.9	0.551056	1.37939e-05
6463.78	0.000204468	0.00665192
6464.64	0.549316	-2.31934e-06
6465.54	0.550323	8.54492e-06
6466.42	0.00126343	0.00437103
6467.28	0.55011	-7.8125e-06
6468.18	0.551117	-1.70898e-06
6469.08	0.548584	0.0172394
6469.92	0.549316	-2.01416e-06
6470.82	0.551025	-7.01904e-06
6471.72	0.550354	0.010849
6472.56	0.549164	-2.01416e-06
6473.46	0.550903	-7.96509e-06
6474.36	0.550171	0.0016748
6475.2	0.550262	-9.18579e-06
6476.1	0.550812	-8.39233e-06
6477	0.551025	0.000582886
6477.84	0.549377	-1.67847e-06
6478.74	0.549286	2.13623e-06
6479.64	0.549408	0.000280731
6480.48	0.549622	-4.05884e-06
6481.38	0.549286	3.66211e-07
6482.28	0.550446	0.000143585
6483.12	0.549622	-4.76074e-06
6484.02	0.550323	-8.27026e-06
6484.92	0.550873	7.0282e-05
6485.78	-0.697815	-0.024704
6486.66	0.550842	-8.3313e-06
6487.56	0.549377	4.64783e-05
6488.42	-0.696655	-0.018811
6489.3	0.550598	-1.12e-05
6490.2	0.550415	1.76392e-05
6491.08	0.00020752	0.00663116
6491.94	0.5495	-3.23486e-06
6492.84	0.550964	3.72314e-06
6493.72	0.000378418	0.00436249
6494.58	0.549255	-9.15527e-07
6495.48	0.550903	-2.28882e-06
6496.38	0.548706	0.0172455
6497.22	0.549805	-4.57764e-06
6498.12	0.549377	5.82886e-06
6499.02	0.550507	0.0108795
6499.86	0.549652	-3.14331e-06
6500.76	0.549225	4.69971e-06
6501.66	0.550446	0.00169342
6502.5	0.549713	-4.5166e-06
6503.4	0.550934	-8.5144e-06
6504.3	0.550842	0.000592041
6505.14	0.550964	-1.13525e-05
6506.04	0.549438	5.18799e-07
6506.94	0.551056	0.000273041
6507.78	0.550873	-9.91821e-06
6508.68	0.550873	-9.49097e-06
6509.58	0.5495	0.000149658
6510.42	0.549347	-1.80054e-06
6511.32	0.551025	-1.297e-05
6512.22	0.550323	7.40051e-05
6513.08	-0.695984	-0.0247192
6513.96	0.549377	-3.05176e-08
6514.86	0.550262	3.80554e-05
6515.72	-0.697906	-0.018808
6516.6	0.550995	-1.26953e-05
6517.5	0.551086	1.54114e-05
6518.38	0.000720215	0.00660248
6519.24	0.550293	-4.85229e-06
6520.14	0.549957	1.1261e-05
6521.02	0.000186157	0.00434692
6521.88	0.549438	2.74658e-07
6522.78	0.550903	-1.67847e-06
6523.68	0.548615	0.0172516
6524.52	0.551025	-1.27258e-05
6525.42	0.549316	5.52368e-06
6526.32	0.550568	0.0109039
6527.16	0.550385	-8.27026e-06
6528.06	0.549988	-2.80762e-06
6528.96	0.550995	0.0017099
6529.8	0.549622	-2.65503e-06
6530.7	0.551056	-9.24683e-06
6531.6	0.549561	0.000610046
6532.44	0.549988	-7.50732e-06
6533.34	0.550781	-7.08008e-06
6534.24	0.551025	0.000276611
6535.08	0.549438	-3.26538e-06
6535.98	0.549255	2.0752e-06
6536.88	0.550629	0.000141357
6537.72	0.55072	-1.26038e-05
6538.62	0.550629	-8.3313e-06
6539.52	0.549866	7.76672e-05
6540.38	-0.696686	-0.0247101
6541.26	0.54953	-2.41089e-06
6542.16	0.550995	3.43323e-05
6543.02	-0.697021	-0.0188324
6543.9	0.5495	-2.47192e-06
6544.8	0.550995	1.61438e-05
6545.68	0.00129089	0.00658295
6546.54	0.549591	-2.71606e-06
6547.44	0.55069	3.41797e-06
6548.32	0.000341797	0.00433502
6549.18	0.549805	-4.24194e-06
6550.08	0.551086	-2.86865e-06
6550.98	0.549164	0.0172638
6551.82	0.549652	-1.0376e-06
6552.72	0.550568	-3.54004e-06
6553.62	0.549042	0.0109314
6554.46	0.550812	-1.19629e-05
6555.36	0.549286	4.88281e-06
6556.26	0.550476	0.00173431
6557.1	0.549316	-1.7395e-06
6558	0.550995	-8.78906e-06
6558.9	0.550415	0.000612488
6559.74	0.549652	-3.78418e-06
6560.64	0.550934	-1.03455e-05
6561.54	0.549286	0.000290588
6562.38	0.55069	-1.09253e-05
6563.28	0.551239	-1.08948e-05
6564.18	0.549377	0.000153748
6565.02	0.549255	-1.64795e-06
6565.92	0.550171	-4.24194e-06
6566.82	0.549347	8.5083e-05
6567.68	-0.697327	-0.0247375
6568.56	0.549316	1.52588e-06
6569.46	0.550995	3.58582e-05
6570.32	-0.696442	-0.018866
6571.2	0.551086	-1.31226e-05
6572.1	0.55011	2.14233e-05
6572.98	0.00045166	0.00656677
6573.84	0.549347	-5.49316e-07
6574.74	0.551208	4.94385e-06
6575.62	0.0018219	0.00430969
6576.48	0.549438	0
6577.38	0.551086	-3.9978e-06
6578.28	0.549011	0.0172607
6579.12	0.549744	-1.95313e-06
6580.02	0.551025	-5.88989e-06
6580.92	0.549408	0.0109528
6581.76	0.549316	4.57764e-07
6582.66	0.550507	-4.27246e-06
6583.56	0.550903	0.00175568
6584.4	0.551056	-1.33362e-05
6585.3	0.550049	-3.479e-06
6586.2	0.549652	0.000620422
6587.04	0.550018	-6.01196e-06
6587.94	0.550629	-7.56836e-06
6588.84	0.551056	0.00028479
6589.68	0.549316	-7.93457e-07
6590.58	0.549225	4.27246e-07
6591.48	0.550995	0.000145081
6592.32	0.550629	-1.1322e-05
6593.22	0.550934	-8.78906e-06
6594.12	0.550049	8.2489e-05
6594.98	-0.697693	-0.0247467
6595.86	0.550568	-7.93457e-06
6596.76	0.550293	4.3396e-05
6597.62	-0.696564	-0.0188904
6598.5	0.550964	-1.26648e-05
6599.4	0.550781	1.74561e-05
6600.28	0.00055542	0.00654175
6601.14	0.549347	-4.27246e-07
6602.04	0.549438	1.3855e-05
6602.92	0.000299072	0.00430664
6603.78	0.549988	-3.63159e-06
6604.68	0.549683	4.97437e-06
6605.58	0.548553	0.0172729
6606.42	0.550903	-1.15662e-05
6607.32	0.551056	-6.50024e-06
6608.22	0.549652	0.0109863
6609.06	0.549377	-1.19019e-06
6609.96	0.549957	7.32422e-07
6610.86	0.550751	0.00177002
6611.7	0.550018	-6.16455e-06
6612.6	0.549408	2.38037e-06
6613.5	0.549286	0.000631104
6614.34	0.550964	-1.25122e-05
6615.24	0.550385	-8.36182e-06
6616.14	0.549927	0.000297943
6616.98	0.550049	-6.53076e-06
6617.88	0.550629	-1.02234e-05
6618.78	0.550018	0.000152771
6619.62	0.549835	-4.63867e-06
6620.52	0.550354	-6.34766e-06
6621.42	0.550964	7.72095e-05
6622.28	-0.696198	-0.0247955
6623.16	0.549316	-5.18799e-07
6624.06	0.549927	4.62036e-05
6624.92	-0.696503	-0.0189362
6625.8	0.549377	2.44141e-07
6626.7	0.550171	2.12402e-05
6627.58	0.00143738	0.00652985
6628.44	0.550995	-1.25732e-05
6629.34	0.549194	1.64795e-05
6630.22	0.000869751	0.00429749
6631.08	0.549408	-2.50244e-06
6631.98	0.5495	8.78906e-06
6632.88	0.549866	0.0172668
6633.72	0.550934	-1.11694e-05
6634.62	0.549316	5.46265e-06
6635.52	0.550323	0.0109894
6636.36	0.549377	-5.18799e-07
6637.26	0.551056	-9.06372e-06
6638.16	0.550323	0.00179596
6639	0.549316	-9.76562e-07
6639.9	0.550995	-1.04065e-05
6640.8	0.549805	0.00063446
6641.64	0.550079	-6.56128e-06
6642.54	0.551056	-1.171875E-05
6643.44	0.550415	0.0002948
6644.28	0.549286	-2.2583e-06
6645.18	0.550781	-1.18408e-05
6646.08	0.549622	0.000158997
6646.92	0.550629	-8.17871e-06
6647.82	0.549377	-3.35693e-07
6648.72	0.550751	7.93152e-05
6649.58	-0.697723	-0.0247681
6650.46	0.550415	-7.65991e-06
6651.36	0.549866	4.65088e-05
6652.22	-0.698212	-0.0189301
6653.1	0.551056	-1.26343e-05
6654	0.549225	2.83813e-05
6654.88	0.00134583	0.00651123
6655.74	0.549286	-3.05176e-08
6656.64	0.550018	1.27563e-05
6657.52	0.000198364	0.00429108
6658.38	0.549316	3.35693e-07
6659.28	0.549744	8.11768e-06
6660.18	0.54892	0.0172882
6661.02	0.550812	-1.15051e-05
6661.92	0.550995	-5.43213e-06
6662.82	0.550659	0.0110168
6663.66	0.549561	-1.95313e-06
6664.56	0.549316	3.479e-06
6665.46	0.550201	0.00180939
6666.3	0.55011	-8.11768e-06
6667.2	0.551208	-9.58252e-06
6668.1	0.550751	0.000632935
6668.94	0.550903	-1.33362e-05
6669.84	0.549713	-1.34277e-06
6670.74	0.549286	0.000307098
6671.58	0.550201	-7.62939e-06
6672.48	0.551086	-1.18408e-05
6673.38	0.551056	0.000151245
6674.22	0.550781	-1.23596e-05
6675.12	0.549652	-3.17383e-06
6676.02	0.549255	9.12476e-05
6676.88	-0.697815	-0.0247864
6677.76	0.549622	-2.34985e-06
6678.66	0.550354	4.38538e-05
6679.52	-0.697357	-0.0189484
6680.4	0.550629	-1.24817e-05
6681.3	0.549408	2.85339e-05
6682.18	0.00187378	0.0064798
6683.04	0.550018	-6.10352e-06
6683.94	0.549286	1.78833e-05
6684.82	0.00166321	0.00426392
6685.68	0.549896	-4.88281e-06
6686.58	0.551025	-2.34985e-06
6687.48	0.55014	0.017276
6688.32	0.550995	-1.297e-05
6689.22	0.550842	-2.80762e-06
6690.12	0.550323	0.0110382
6690.96	0.549469	-2.50244e-06
6691.86	0.550751	-6.16455e-06
6692.76	0.550201	0.00183472
6693.6	0.549286	-2.22778e-06
6694.5	0.550964	-8.81958e-06
6695.4	0.549622	0.000649719
6696.24	0.550018	-5.92041e-06
6697.14	0.549591	-1.77002e-06
6698.04	0.54953	0.000309845
6698.88	0.551056	-1.22986e-05
6699.78	0.550842	-1.14136e-05
6700.68	0.550354	0.000156769
6701.52	0.549805	-3.66211e-06
6702.42	0.549286	-3.05176e-07
6703.32	0.550171	8.79822e-05
6704.18	-0.697601	-0.0247955
6705.06	0.549683	-9.15527e-07
6705.96	0.551025	4.06189e-05
6706.82	-0.69812	-0.0189697
6707.7	0.549866	-4.76074e-06
6708.6	0.549957	2.46887e-05
6709.48	0.000445557	0.00646973
6710.34	0.549744	-5.49316e-06
6711.24	0.549927	1.2146e-05
6712.12	0.000939941	0.00426208
6712.98	0.551056	-1.36414e-05
6713.88	0.549316	1.24512e-05
6714.78	0.549927	0.0172821
6715.62	0.550781	-9.61304e-06
6716.52	0.550415	-1.28174e-06
6717.42	0.549377	0.0110687
6718.26	0.549438	-1.89209e-06
6719.16	0.549652	1.2207e-07
6720.06	0.549225	0.00186279
6720.9	0.551056	-1.36414e-05
6721.8	0.549866	-2.16675e-06
6722.7	0.549225	0.000659485
6723.54	0.550873	-1.171875E-05
6724.44	0.549316	-9.15527e-08
6725.34	0.550842	0.000305664
6726.18	0.549316	-1.19019e-06
6727.08	0.550323	-9.0332e-06
6727.98	0.549438	0.000169525
6728.82	0.549622	-4.57764e-07
6729.72	0.549744	-2.74658e-06
6730.62	0.5495	9.30481e-05
6731.48	-0.696106	-0.024823
6732.36	0.550171	-6.95801e-06
6733.26	0.550903	4.20837e-05
6734.12	-0.69812	-0.0190094
6735	0.550751	-1.15662e-05
6735.9	0.549591	3.24402e-05
6736.78	0.000146484	0.00645111
6737.64	0.549774	-7.38525e-06
6738.54	0.549438	1.78223e-05
6739.42	0.000912476	0.00424866
6740.28	0.550079	-6.95801e-06
6741.18	0.551086	-1.83105e-07
6742.08	0.549683	0.017276
6742.92	0.549469	-2.74658e-06
6743.82	0.550018	4.27246e-07
6744.72	0.548767	0.0110962
6745.56	0.551086	-1.27563e-05
6746.46	0.549713	3.11279e-06
6747.36	0.550903	0.00187195
6748.2	0.549377	-2.86865e-06
6749.1	0.550812	-1.00098e-05
6750	0.550262	0.000658569
6750.84	0.551056	-1.49536e-05
6751.74	0.549561	-3.96729e-07
6752.64	0.549927	0.000315094
6753.48	0.550934	-1.26343e-05
6754.38	0.549377	-9.15527e-08
6755.28	0.550995	0.0001604
6756.12	0.551086	-1.39465e-05
6757.02	0.549469	-1.98364e-06
6757.92	0.549744	9.50928e-05
6758.78	-0.696045	-0.024823
6759.66	0.550476	-1.2146e-05
6760.56	0.549622	5.27649e-05
6761.42	-0.696869	-0.0190277
6762.3	0.549988	-5.37109e-06
6763.2	0.55014	2.78931e-05
6764.08	0.00163269	0.00641937
6764.94	0.549469	-1.89209e-06
6765.84	0.551025	7.56836e-06
6766.72	0.00201416	0.00421875
6767.58	0.549622	-3.69263e-06
6768.48	0.550812	-7.32422e-07
6769.38	0.549438	0.0172974
6770.22	0.551056	-1.42212e-05
6771.12	0.550598	-3.14331e-06
6772.02	0.550354	0.0111053
6772.86	0.549927	-9.49097e-06
6773.76	0.549438	3.93677e-06
6774.66	0.550842	0.00189453
6775.5	0.550751	-1.26038e-05
6775.64	0.549377	-6.71387e-07