File: Edgar/20240517/20240517/electrodeposition_pulsed_potential_20240517_A/pulses_1000_to_2000.txt
Time (s)	WE(1).Potential (V)	WE(1).Current (A)
1505.5	-0.698517	-0.0145386
1506.38	0.549927	-4.88281e-06
1507.28	0.549774	-3.96729e-07
1508.14	-0.698059	-0.00711853
1509.02	0.550812	-1.05896e-05
1509.92	0.551178	-1.28784e-05
1510.8	0.000213623	0.0105988
1511.66	0.549286	-1.28174e-06
1512.56	0.551025	-1.09558e-05
1513.44	0.000469971	0.00256042
1514.3	0.549225	-7.93457e-07
1515.2	0.55069	-1.18408e-05
1516.1	0.551056	0.000176147
1516.94	0.550385	-1.1261e-05
1517.84	0.549652	-1.67847e-06
1518.74	0.55069	2.30408e-05
1519.58	0.550568	-6.28662e-06
1520.48	0.550964	-1.15051e-05
1521.38	0.549286	1.41907e-05
1522.22	0.549744	-6.56128e-06
1523.12	0.549622	-2.71606e-06
1524.02	0.550964	-3.69263e-06
1524.86	0.551117	-1.57776e-05
1525.76	0.550293	-5.43213e-06
1526.66	0.549133	6.46973e-06
1527.5	0.550262	-1.01929e-05
1528.4	0.549255	-7.93457e-07
1529.3	0.550598	-5.43213e-06
1530.14	0.549286	-1.67847e-06
1531.04	0.549408	-8.54492e-07
1531.94	0.549438	1.77002e-06
1532.8	-0.697906	-0.0144165
1533.68	0.549133	1.19019e-06
1534.58	0.550934	-1.37634e-05
1535.44	-0.697205	-0.0071405
1536.32	0.55072	-1.19934e-05
1537.22	0.550446	-7.78198e-06
1538.1	0.00162048	0.0108063
1538.96	0.549988	-6.53076e-06
1539.86	0.550934	-1.24817e-05
1540.74	0.00197754	0.00278015
1541.6	0.549255	-6.40869e-07
1542.5	0.550781	-1.15356e-05
1543.4	0.551178	0.000187012
1544.24	0.549255	-3.78418e-06
1545.14	0.550812	-1.40076e-05
1546.04	0.550842	2.23083e-05
1546.88	0.549194	-2.19727e-06
1547.78	0.550537	-6.7749e-06
1548.68	0.549744	9.12476e-06
1549.52	0.551056	-1.55029e-05
1550.42	0.550751	-1.31226e-05
1551.32	0.550507	-1.7395e-06
1552.16	0.551025	-1.3855e-05
1553.06	0.54953	-1.83105e-06
1553.96	0.550842	-6.04248e-06
1554.8	0.550171	-7.59888e-06
1555.7	0.549316	-2.13623e-07
1556.6	0.550934	-8.30078e-06
1557.44	0.549286	-1.06812e-06
1558.34	0.550934	-1.29395e-05
1559.24	0.550354	-4.82178e-06
1560.1	-0.696899	-0.014624
1560.98	0.551056	-1.32751e-05
1561.88	0.550385	-6.2561e-06
1562.74	-0.697266	-0.00725311
1563.62	0.549316	-1.70898e-06
1564.52	0.549286	-9.15527e-08
1565.4	5.18799e-05	0.0109131
1566.26	0.549286	-8.54492e-07
1567.16	0.549561	-2.50244e-06
1568.04	0.000341797	0.00296844
1568.9	0.549652	-3.60107e-06
1569.8	0.550323	-7.78198e-06
1570.7	0.550293	0.000206451
1571.54	0.550507	-1.08643e-05
1572.44	0.54953	-6.40869e-07
1573.34	0.549164	3.50037e-05
1574.18	0.549835	-4.73022e-06
1575.08	0.549744	-3.69263e-06
1575.98	0.550873	3.72314e-06
1576.82	0.551056	-1.41907e-05
1577.72	0.550385	-7.38525e-06
1578.62	0.551086	-2.74658e-07
1579.46	0.549347	-7.32422e-07
1580.36	0.549835	-2.7771e-06
1581.26	0.55069	-3.84521e-06
1582.1	0.549103	-3.17383e-06
1583	0.549835	-5.00488e-06
1583.9	0.551147	-9.06372e-06
1584.74	0.549744	-4.42505e-06
1585.64	0.549377	-2.44141e-06
1586.54	0.550079	-3.479e-06
1587.4	-0.696838	-0.0148071
1588.28	0.549469	-3.54004e-06
1589.18	0.549286	1.64795e-06
1590.04	-0.697113	-0.0073642
1590.92	0.549622	-4.60815e-06
1591.82	0.550079	-8.27026e-06
1592.7	1.52588e-05	0.0109955
1593.56	0.549805	-3.8147e-06
1594.46	0.549683	-3.479e-06
1595.34	0.00185242	0.00311493
1596.2	0.549591	-3.96729e-06
1597.1	0.550049	-5.98145e-06
1598	0.551147	0.00021225
1598.84	0.549255	-2.31934e-06
1599.74	0.549225	-2.01416e-06
1600.64	0.550995	2.53601e-05
1601.48	0.550049	-4.48608e-06
1602.38	0.550262	-5.92041e-06
1603.28	0.551056	4.66919e-06
1604.12	0.549438	-2.65503e-06
1605.02	0.550232	-7.96509e-06
1605.92	0.550537	3.72314e-06
1606.76	0.550751	-1.23291e-05
1607.66	0.549164	-1.89209e-06
1608.56	0.54953	5.79834e-06
1609.4	0.549255	-3.60107e-06
1610.3	0.550354	-7.90405e-06
1611.2	0.549469	1.49536e-06
1612.04	0.551025	-1.37024e-05
1612.94	0.550201	-8.08716e-06
1613.84	0.550842	-8.88062e-06
1614.7	-0.697723	-0.0150177
1615.58	0.55014	-7.8125e-06
1616.48	0.550934	-1.0498e-05
1617.34	-0.696991	-0.00750122
1618.22	0.550262	-8.17871e-06
1619.12	0.549561	9.76562e-07
1620	0.00175171	0.0110626
1620.86	0.551086	-1.50757e-05
1621.76	0.54953	-9.76562e-07
1622.64	0.0011322	0.00327057
1623.5	0.549622	-3.75366e-06
1624.4	0.550781	-1.06812e-05
1625.3	0.549652	0.000241882
1626.14	0.549591	-3.9978e-06
1627.04	0.550842	-1.06201e-05
1627.94	0.551117	2.48108e-05
1628.78	0.549377	-5.34058e-06
1629.68	0.550385	-8.75854e-06
1630.58	0.550415	9.12476e-06
1631.42	0.550323	-9.12476e-06
1632.32	0.550537	-7.44629e-06
1633.22	0.54953	8.02612e-06
1634.06	0.551056	-1.4801e-05
1634.96	0.550354	-8.97217e-06
1635.86	0.549774	2.89917e-06
1636.7	0.55014	-8.63647e-06
1637.6	0.549286	-1.7395e-06
1638.5	0.549988	3.75366e-06
1639.34	0.551178	-1.6571e-05
1640.24	0.549408	-3.23486e-06
1641.14	0.549744	-1.19019e-06
1642	-0.69809	-0.0152039
1642.88	0.550629	-1.07117e-05
1643.78	0.549316	1.31226e-06
1644.64	-0.698975	-0.00764465
1645.52	0.549835	-2.38037e-06
1646.42	0.550781	-1.15967e-05
1647.3	0.0015686	0.0111176
1648.16	0.549347	-2.10571e-06
1649.06	0.550293	-5.85937e-06
1649.94	0.00185547	0.0034201
1650.8	0.55072	-8.78906e-06
1651.7	0.549255	5.49316e-07
1652.6	0.549957	0.000256836
1653.44	0.551208	-1.4801e-05
1654.34	0.55072	-9.39941e-06
1655.24	0.550415	3.05786e-05
1656.08	0.549194	-2.86865e-06
1656.98	0.551025	-1.25732e-05
1657.88	0.549286	1.70898e-05
1658.72	0.549133	3.96729e-07
1659.62	0.550873	-1.35498e-05
1660.52	0.551178	-2.83813e-06
1661.36	0.551056	-1.60217e-05
1662.26	0.549316	-1.40381e-06
1663.16	0.549347	8.78906e-06
1664	0.550812	-1.46484e-05
1664.9	0.551086	-1.37024e-05
1665.8	0.551117	-8.05664e-06
1666.64	0.549347	-2.0752e-06
1667.54	0.549988	-4.11987e-06
1668.44	0.549652	-1.58691e-06
1669.3	-0.698517	-0.0154083
1670.18	0.55011	-5.27954e-06
1671.08	0.549408	9.46045e-07
1671.94	-0.698181	-0.00779419
1672.82	0.549164	1.25122e-06
1673.72	0.550781	-9.85718e-06
1674.6	0.000289917	0.0111786
1675.46	0.549316	-7.93457e-07
1676.36	0.549255	1.37329e-06
1677.24	0.00202942	0.00356171
1678.1	0.550995	-1.48621e-05
1679	0.55069	-7.90405e-06
1679.9	0.550507	0.000273407
1680.74	0.549683	-3.72314e-06
1681.64	0.5495	-2.2583e-06
1682.54	0.550262	3.39966e-05
1683.38	0.549774	-8.02612e-06
1684.28	0.549561	-2.13623e-06
1685.18	0.549347	1.81885e-05
1686.02	0.551117	-1.44043e-05
1686.92	0.550049	-1.0376e-05
1687.82	0.550354	9.15527e-07
1688.66	0.55014	-5.58472e-06
1689.56	0.550995	-1.36719e-05
1690.46	0.549469	6.40869e-06
1691.3	0.550171	-7.35474e-06
1692.2	0.55011	-8.97217e-06
1693.1	0.549744	-1.2207e-07
1693.94	0.549225	4.88281e-07
1694.84	0.549591	-3.44849e-06
1695.74	0.551025	-6.89697e-06
1696.6	-0.696777	-0.0156036
1697.48	0.551056	-1.24207e-05
1698.38	0.549896	-2.04468e-06
1699.24	-0.697662	-0.00792236
1700.12	0.550995	-1.31836e-05
1701.02	0.550781	-1.06201e-05
1701.9	0.00129089	0.0112122
1702.76	0.550629	-1.14746e-05
1703.66	0.549225	1.06812e-06
1704.54	0.000524902	0.00371857
1705.4	0.551056	-1.49536e-05
1706.3	0.549255	3.35693e-07
1707.2	0.549622	0.00030304
1708.04	0.550293	-8.57544e-06
1708.94	0.551117	-1.30615e-05
1709.84	0.550446	3.43323e-05
1710.68	0.550049	-7.84302e-06
1711.58	0.549103	4.57764e-07
1712.48	0.551056	6.16455e-06
1713.32	0.550873	-1.66016e-05
1714.22	0.549469	-2.92969e-06
1715.12	0.550232	5.00488e-06
1715.96	0.551086	-1.61743e-05
1716.86	0.550293	-8.57544e-06
1717.76	0.549438	3.87573e-06
1718.6	0.549622	-4.05884e-06
1719.5	0.551086	-1.43738e-05
1720.4	0.551208	-9.46045e-06
1721.24	0.549286	-1.09863e-06
1722.14	0.551117	-1.24512e-05
1723.04	0.549286	2.31934e-06
1723.9	-0.697968	-0.0157806
1724.78	0.549347	-9.76562e-07
1725.68	0.549591	1.15967e-06
1726.54	-0.698944	-0.00805969
1727.42	0.550812	-1.31531e-05
1728.32	0.550232	-6.65283e-06
1729.2	3.66211e-05	0.0112671
1730.06	0.550323	-1.10474e-05
1730.96	0.549805	-2.92969e-06
1731.84	0.00141296	0.00384155
1732.7	0.550507	-9.82666e-06
1733.6	0.550629	-1.01318e-05
1734.5	0.55069	0.000326111
1735.34	0.551025	-1.44958e-05
1736.24	0.549194	8.23975e-07
1737.14	0.550018	3.98254e-05
1737.98	0.54953	-3.2959e-06
1738.88	0.550842	-1.14441e-05
1739.78	0.550507	9.82666e-06
1740.62	0.550476	-7.41577e-06
1741.52	0.549744	-4.54712e-06
1742.42	0.551086	-2.53296e-06
1743.26	0.550964	-1.57776e-05
1744.16	0.5495	-3.17383e-06
1745.06	0.550385	-4.27246e-07
1745.9	0.550995	-1.58081e-05
1746.8	0.551025	-1.35193e-05
1747.7	0.549255	4.63867e-06
1748.54	0.549286	-1.52588e-06
1749.44	0.550323	-8.30078e-06
1750.34	0.550964	-9.82666e-06
1751.2	-0.698578	-0.0159698
1752.08	0.549988	-6.89697e-06
1752.98	0.550262	-5.31006e-06
1753.84	-0.697571	-0.00822144
1754.72	0.551056	-1.43433e-05
1755.62	0.55069	-9.64355e-06
1756.5	0.00150146	0.0112885
1757.36	0.549255	-1.43433e-06
1758.26	0.550995	-1.00403e-05
1759.14	0.00141907	0.00396729
1760	0.549591	-5.00488e-06
1760.9	0.550842	-1.0498e-05
1761.8	0.549408	0.000368256
1762.64	0.550079	-8.20923e-06
1763.54	0.549438	-2.16675e-06
1764.44	0.54953	4.40979e-05
1765.28	0.550385	-1.25732e-05
1766.18	0.549133	-4.27246e-07
1767.08	0.550537	1.0376e-05
1767.92	0.549591	-5.00488e-06
1768.82	0.550964	-1.23596e-05
1769.72	0.550385	1.52588e-07
1770.56	0.549805	-5.82886e-06
1771.46	0.549286	-1.52588e-07
1772.36	0.550568	-2.65503e-06
1773.2	0.550964	-1.49536e-05
1774.1	0.550995	-1.36108e-05
1775	0.549683	-6.10352e-08
1775.84	0.549408	-2.44141e-07
1776.74	0.550812	-1.13525e-05
1777.64	0.549957	-1.67847e-06
1778.5	-0.698334	-0.0161591
1779.38	0.549561	-2.71606e-06
1780.28	0.549805	6.10352e-08
1781.14	-0.698853	-0.00834656
1782.02	0.549377	-1.83105e-07
1782.92	0.549744	-1.34277e-06
1783.8	0.000790405	0.0113373
1784.66	0.550537	-8.20923e-06
1785.56	0.550262	-7.96509e-06
1786.44	0.00201416	0.00409088
1787.3	0.549408	-1.58691e-06
1788.2	0.549957	-2.92969e-06
1789.1	0.549225	0.000409363
1789.94	0.549377	-1.2207e-06
1790.84	0.550476	-9.49097e-06
1791.74	0.550873	3.72314e-05
1792.58	0.549957	-8.20923e-06
1793.48	0.549683	-6.13403e-06
1794.38	0.549469	1.93481e-05
1795.22	0.549377	-2.74658e-06
1796.12	0.550964	-1.19019e-05
1797.02	0.550018	6.43921e-06
1797.86	0.549622	-3.11279e-06
1798.76	0.549438	-2.31934e-06
1799.66	0.550415	-9.46045e-07
1800.5	0.550415	-9.79614e-06
1801.4	0.550171	-9.765625E-06
1802.3	0.549591	1.37329e-06
1803.14	0.549316	-1.92261e-06
1804.04	0.549225	-8.8501e-07
1804.94	0.549377	1.12915e-06
1805.8	-0.698486	-0.0163177
1806.68	0.550415	-8.39233e-06
1807.58	0.549255	2.0752e-06
1808.44	-0.698944	-0.00849304
1809.32	0.550171	-1.19934e-05
1810.22	0.550812	-7.75146e-06
1811.1	0.00176697	0.0113495
1811.96	0.549683	-3.02124e-06
1812.86	0.551086	-1.2146e-05
1813.74	0.000610352	0.00422272
1814.6	0.549255	-1.37329e-06
1815.5	0.550964	-1.41296e-05
1816.4	0.549774	0.000454254
1817.24	0.549438	-1.25122e-06
1818.14	0.549805	-4.02832e-06
1819.04	0.549194	5.2887e-05
1819.88	0.55011	-6.37817e-06
1820.78	0.550873	-1.45264e-05
1821.68	0.549255	2.21252e-05
1822.52	0.5495	-1.2207e-06
1823.42	0.550842	-1.22375e-05
1824.32	0.55011	6.10352e-06
1825.16	0.549469	-2.01416e-06
1826.06	0.549591	-3.26538e-06
1826.96	0.550293	2.04468e-06
1827.8	0.550964	-9.8877e-06
1828.7	0.549377	-6.53076e-06
1829.6	0.550964	-6.86646e-06
1830.44	0.549316	-2.0752e-06
1831.34	0.549744	-7.62939e-06
1832.24	0.549561	4.57764e-07
1833.1	-0.698212	-0.0164886
1833.98	0.549561	-6.89697e-06
1834.88	0.549408	2.38037e-06
1835.74	-0.698761	-0.00863647
1836.62	0.549988	-4.15039e-06
1837.52	0.551025	-1.1261e-05
1838.4	0.00118713	0.0113586
1839.26	0.549286	-2.28882e-06
1840.16	0.549316	-4.27246e-07
1841.04	0.00144958	0.004328
1841.9	0.550507	-9.64355e-06
1842.8	0.549469	-1.15967e-06
1843.7	0.550262	0.000508118
1844.54	0.55072	-1.28174e-05
1845.44	0.549866	-5.37109e-06
1846.34	0.549866	4.79431e-05
1847.18	0.549469	-4.21143e-06
1848.08	0.550964	-1.2085e-05
1848.98	0.550873	1.09863e-05
1849.82	0.549469	-3.54004e-06
1850.72	0.549988	-8.39233e-06
1851.62	0.550568	4.11987e-06
1852.46	0.551178	-1.47705e-05
1853.36	0.549194	-7.32422e-07
1854.26	0.55011	1.61743e-06
1855.1	0.550903	-1.54114e-05
1856	0.550903	-1.35498e-05
1856.9	0.550995	-8.20923e-06
1857.74	0.549927	-7.72095e-06
1858.64	0.550873	-1.25427e-05
1859.54	0.549316	3.23486e-06
1860.4	-0.697296	-0.0166504
1861.28	0.549133	3.66211e-07
1862.18	0.551056	-9.49097e-06
1863.04	-0.697205	-0.00877075
1863.92	0.550934	-1.26648e-05
1864.82	0.549347	2.83813e-06
1865.7	0.00142822	0.0113953
1866.56	0.550598	-1.12915e-05
1867.46	0.549438	5.49316e-07
1868.34	0.000808716	0.00442627
1869.2	0.550354	-1.08032e-05
1870.1	0.550751	-1.16272e-05
1871	0.549377	0.000572815
1871.84	0.550781	-1.15051e-05
1872.74	0.550049	-3.479e-06
1873.64	0.549286	5.52673e-05
1874.48	0.549225	-1.86157e-06
1875.38	0.550873	-1.17493e-05
1876.28	0.549988	1.79749e-05
1877.12	0.549103	-1.37329e-06
1878.02	0.550842	-1.04675e-05
1878.92	0.550598	4.39453e-06
1879.76	0.550262	-8.66699e-06
1880.66	0.549255	-1.31226e-06
1881.56	0.550781	-4.27246e-07
1882.4	0.550507	-1.10168e-05
1883.3	0.549133	1.28174e-06
1884.2	0.54953	1.95313e-06
1885.04	0.549347	-2.65503e-06
1885.94	0.549255	1.2207e-07
1886.84	0.551056	-9.61304e-06
1887.7	-0.698425	-0.0167969
1888.58	0.55014	-1.08643e-05
1889.48	0.549683	6.10352e-08
1890.34	-0.698822	-0.00889282
1891.22	0.549438	-3.02124e-06
1892.12	0.549255	7.32422e-07
1893	0.00119934	0.0114044
1893.86	0.549255	8.23975e-07
1894.76	0.549438	-1.2207e-06
1895.64	0.000247192	0.00453278
1896.5	0.550079	-8.02612e-06
1897.4	0.549377	2.13623e-06
1898.3	0.550323	0.000632629
1899.14	0.550293	-1.07422e-05
1900.04	0.550659	-1.09253e-05
1900.94	0.549164	5.80444e-05
1901.78	0.549225	-3.50952e-06
1902.68	0.549622	-2.47192e-06
1903.58	0.550659	1.19934e-05
1904.42	0.549316	-6.10352e-07
1905.32	0.550385	-9.97925e-06
1906.22	0.549194	1.23901e-05
1907.06	0.550934	-1.25427e-05
1907.96	0.549377	-4.08936e-06
1908.86	0.551025	-3.72314e-06
1909.7	0.550934	-1.37634e-05
1910.6	0.550323	-8.27026e-06
1911.5	0.550964	-6.74438e-06
1912.34	0.550934	-1.35803e-05
1913.24	0.549744	-6.10352e-06
1914.14	0.550446	-5.5542e-06
1915	-0.697723	-0.0169312
1915.88	0.550262	-7.47681e-06
1916.78	0.549713	-1.67847e-06
1917.64	-0.698914	-0.00901489
1918.52	0.549469	-1.2207e-06
1919.42	0.549316	9.15527e-08
1920.3	0.000473022	0.0114502
1921.16	0.549377	-1.06812e-06
1922.06	0.550995	-1.16882e-05
1922.94	0.000286865	0.0046283
1923.8	0.549164	-1.86157e-06
1924.7	0.549561	-5.18799e-07
1925.6	0.551056	0.000700989
1926.44	0.550903	-1.28174e-05
1927.34	0.550171	-8.17871e-06
1928.24	0.549286	6.08215e-05
1929.08	0.55011	-9.0332e-06
1929.98	0.549561	-2.80762e-06
1930.88	0.550964	1.297e-05
1931.72	0.550262	-9.09424e-06
1932.62	0.550537	-1.04675e-05
1933.52	0.551147	1.0376e-06
1934.36	0.549194	-3.14331e-06
1935.26	0.550415	-9.3689e-06
1936.16	0.550873	-6.71387e-07
1937	0.550232	-1.0376e-05
1937.9	0.550507	-1.01929e-05
1938.8	0.54953	5.31006e-06
1939.64	0.549835	-6.04248e-06
1940.54	0.550049	-5.12695e-06
1941.44	0.549225	3.72314e-06
1942.3	-0.698578	-0.0170746
1943.18	0.55072	-1.25122e-05
1944.08	0.549408	1.31226e-06
1944.94	-0.697052	-0.00914001
1945.82	0.551086	-1.48926e-05
1946.72	0.549164	3.35693e-07
1947.6	7.62939e-05	0.0114624
1948.46	0.549255	-1.52588e-06
1949.36	0.551056	-1.24817e-05
1950.24	0.00193481	0.00469879
1951.1	0.549438	-7.01904e-06
1952	0.549927	-5.64575e-06
1952.9	0.550842	0.000793152
1953.74	0.549408	-1.80054e-06
1954.64	0.550995	-1.1261e-05
1955.54	0.549255	6.22559e-05
1956.38	0.549316	-7.62939e-07
1957.28	0.549408	-3.66211e-07
1958.18	0.551086	1.42822e-05
1959.02	0.551147	-1.33972e-05
1959.92	0.549316	-1.00708e-06
1960.82	0.551086	1.86157e-06
1961.66	0.549866	-6.74438e-06
1962.56	0.550903	-1.37024e-05
1963.46	0.550934	-2.01416e-06
1964.3	0.551208	-1.41907e-05
1965.2	0.550018	-6.43921e-06
1966.1	0.550049	1.95313e-06
1966.94	0.551086	-1.59302e-05
1967.84	0.549286	-4.66919e-06
1968.74	0.55072	-7.20215e-06
1969.6	-0.698486	-0.0171906
1970.48	0.550964	-1.37024e-05
1971.38	0.551056	-9.58252e-06
1972.24	-0.698792	-0.00924072
1973.12	0.551056	-1.42517e-05
1974.02	0.549316	1.86157e-06
1974.9	0.000405884	0.0114594
1975.76	0.549347	-1.46484e-06
1976.66	0.549591	-6.71387e-07
1977.54	0.00179138	0.00477661
1978.4	0.550507	-9.79614e-06
1979.3	0.551056	-8.08716e-06
1980.2	0.550995	0.00087616
1981.04	0.549866	-4.24194e-06
1981.94	0.549347	-2.74658e-07
1982.84	0.549866	6.14624e-05
1983.68	0.549316	-2.62451e-06
1984.58	0.551056	-1.33667e-05
1985.48	0.551117	1.19629e-05
1986.32	0.549744	-7.84302e-06
1987.22	0.549377	3.96729e-07
1988.12	0.549591	1.26343e-05
1988.96	0.550323	-9.46045e-06
1989.86	0.550903	-9.30786e-06
1990.76	0.550171	3.63159e-06
1991.6	0.551147	-1.60828e-05
1992.5	0.549255	-1.43433e-06
1993.4	0.549347	7.08008e-06
1994.24	0.550934	-1.41602e-05
1995.14	0.551056	-1.33972e-05
1996.04	0.550842	-6.83594e-06
1996.9	-0.696991	-0.0172913
1997.78	0.549225	5.49316e-07
1998.68	0.549377	1.70898e-06
1999.54	-0.698822	-0.00932312
2000.42	0.549805	-5.61523e-06
2001.32	0.551025	-1.11084e-05
2002.2	0.00134888	0.0114899
2003.06	0.549377	-1.37329e-06
2003.96	0.549408	-4.57764e-06
2004.84	0.0019165	0.00485077
2005.7	0.551025	-1.40381e-05
2006.6	0.550049	-8.75854e-06
2007.5	0.549957	0.000956421
2008.34	0.55069	-1.18408e-05
2009.24	0.550476	-6.073e-06
2010.14	0.550659	5.69153e-05
2010.98	0.551025	-1.42517e-05
2011.88	0.549133	-1.46484e-06
2012.78	0.549805	2.2583e-05
2013.62	0.549286	-1.28174e-06
2014.52	0.551239	-1.33362e-05
2015.42	0.551086	2.04468e-06
2016.26	0.549316	-2.01416e-06
2017.16	0.549255	1.80054e-06
2018.06	0.549988	1.7395e-06
2018.9	0.550873	-1.2207e-05
2019.8	0.551117	-1.29395e-05
2020.7	0.549835	-1.40381e-06
2021.54	0.549255	-1.00708e-06
2022.44	0.549744	-3.87573e-06
2023.34	0.551086	-1.05896e-05
2024.2	-0.698456	-0.017337
2025.08	0.549255	-1.15967e-06
2025.98	0.550903	-9.15527e-06
2026.84	-0.69754	-0.00938721
2027.72	0.551056	-1.26953e-05
2028.62	0.550018	-5.12695e-06
2029.5	0.00172729	0.0115234
2030.36	0.550812	-1.28479e-05
2031.26	0.549438	-5.79834e-07
2032.14	0.000274658	0.00493347
2033	0.551086	-1.32751e-05
2033.9	0.551025	-1.32141e-05
2034.8	0.551025	0.0010199
2035.64	0.55011	-4.30298e-06
2036.54	0.550079	-5.40161e-06
2037.44	0.550629	5.76782e-05
2038.28	0.551208	-1.33057e-05
2039.18	0.551239	-1.37329e-05
2040.08	0.551178	1.46484e-05
2040.92	0.550323	-6.83594e-06
2041.82	0.550812	-1.10779e-05
2042.72	0.549164	1.51367e-05
2043.56	0.550323	-8.78906e-06
2044.46	0.549866	-5.58472e-06
2045.36	0.549774	4.5166e-06
2046.2	0.550293	-7.78198e-06
2047.1	0.549469	-2.04468e-06
2048	0.550995	-6.10352e-06
2048.84	0.549164	-1.31226e-06
2049.74	0.550537	-1.3916e-05
2050.64	0.549286	3.54004e-06
2051.5	-0.698395	-0.0174255
2052.38	0.549316	-1.64795e-06
2053.28	0.551056	-1.01929e-05
2054.14	-0.698883	-0.0094696
2055.02	0.549408	-3.05176e-06
2055.92	0.550262	-3.78418e-06
2056.8	0.00110474	0.0115265
2057.66	0.549194	4.88281e-07
2058.56	0.551056	-1.19934e-05
2059.44	0.00151672	0.00499176
2060.3	0.550201	-7.32422e-06
2061.2	0.551056	-1.36414e-05
2062.1	0.550385	0.00115265
2062.94	0.550751	-1.24207e-05
2063.84	0.550415	-9.24683e-06
2064.74	0.549591	6.6803e-05
2065.58	0.549561	-2.0752e-06
2066.48	0.551208	-1.40076e-05
2067.38	0.55072	1.52893e-05
2068.22	0.550903	-1.35193e-05
2069.12	0.549347	-2.31934e-06
2070.02	0.550903	3.84521e-06
2070.86	0.549469	-5.49316e-07
2071.76	0.550262	-7.96509e-06
2072.66	0.550629	1.09863e-06
2073.5	0.550873	-1.297e-05
2074.4	0.550751	-1.31531e-05
2075.3	0.549408	5.24902e-06
2076.14	0.551025	-1.36719e-05
2077.04	0.549225	-1.06812e-06
2077.94	0.550781	-6.31714e-06
2078.8	-0.696808	-0.0175232
2079.68	0.550568	-9.27734e-06
2080.58	0.55011	-3.479e-06
2081.44	-0.697845	-0.0095459
2082.32	0.549835	-7.53784e-06
2083.22	0.550232	-4.3335e-06
2084.1	0.00154114	0.0115417
2084.96	0.549561	-3.72314e-06
2085.86	0.550995	-1.27563e-05
2086.74	0.00169373	0.00504242
2087.6	0.550903	-1.12915e-05
2088.5	0.549164	1.28174e-06
2089.4	0.551117	0.00127441
2090.24	0.550873	-1.3031e-05
2091.14	0.549652	-1.49536e-06
2092.04	0.549988	6.36902e-05
2092.88	0.550537	-1.11084e-05
2093.78	0.549164	0
2094.68	0.551086	1.72424e-05
2095.52	0.549469	-3.57056e-06
2096.42	0.551086	-1.35193e-05
2097.32	0.549377	1.55945e-05
2098.16	0.550934	-1.26343e-05
2099.06	0.5495	-1.92261e-06
2099.96	0.550812	-6.10352e-07
2100.8	0.550812	-1.50757e-05
2101.7	0.551117	-1.39465e-05
2102.6	0.550354	-4.57764e-07
2103.44	0.549805	-4.69971e-06
2104.34	0.550934	-1.26343e-05
2105.24	0.549469	2.65503e-06
2106.1	-0.698364	-0.0176239
2106.98	0.550751	-1.21155e-05
2107.88	0.549408	3.11279e-06
2108.74	-0.698822	-0.0096405
2109.62	0.550171	-7.56836e-06
2110.52	0.55069	-8.17871e-06
2111.4	0.00158081	0.0115479
2112.26	0.549072	2.44141e-07
2113.16	0.549103	2.99072e-06
2114.04	0.00100098	0.00510956
2114.9	0.550995	-1.44958e-05
2115.8	0.549438	4.57764e-07
2116.7	0.55069	0.00149475
2117.54	0.550293	-8.63647e-06
2118.44	0.550262	-6.89697e-06
2119.34	0.549744	6.79016e-05
2120.18	0.550873	-1.42822e-05
2121.08	0.549408	-1.0376e-06
2121.98	0.550995	1.76392e-05
2122.82	0.549683	-2.2583e-06
2123.72	0.550842	-1.297e-05
2124.62	0.549255	1.69983e-05
2125.46	0.550446	-1.11694e-05
2126.36	0.551086	-1.31836e-05
2127.26	0.549408	1.07117e-05
2128.1	0.550232	-7.99561e-06
2129	0.549286	-2.44141e-07
2129.9	0.55069	-5.49316e-06
2130.74	0.550751	-1.33667e-05
2131.64	0.549255	-1.2207e-06
2132.54	0.550629	-5.7373e-06
2133.4	-0.698456	-0.0177246
2134.28	0.551086	-1.39771e-05
2135.18	0.549255	2.22778e-06
2136.04	-0.697784	-0.00975037
2136.92	0.549561	-1.70898e-06
2137.82	0.551056	-1.07422e-05
2138.7	5.79834e-05	0.011557
2139.56	0.549896	-6.16455e-06
2140.46	0.551147	-1.1261e-05
2141.34	8.23975e-05	0.00517365
2142.2	0.550964	-1.00403e-05
2143.1	0.550964	-1.10474e-05
2144	0.550629	0.00180206
2144.84	0.549286	-3.05176e-07
2145.74	0.550018	-3.9978e-06
2146.64	0.549347	7.40967e-05
2147.48	0.55072	-7.78198e-06
2148.38	0.549347	-3.05176e-08
2149.28	0.5495	2.9541e-05
2150.12	0.549133	-1.64795e-06
2151.02	0.550568	-1.0437e-05
2151.92	0.550232	8.94165e-06
2152.76	0.550873	-1.09253e-05
2153.66	0.551117	-1.2085e-05
2154.56	0.549774	5.95093e-06
2155.4	0.550354	-6.31714e-06
2156.3	0.550446	-9.18579e-06
2157.2	0.550537	-2.80762e-06
2158.04	0.55069	-1.34888e-05
2158.94	0.55014	-7.99561e-06
2159.84	0.550537	-3.50952e-06
2160.7	-0.69754	-0.0178314
2161.58	0.551025	-1.26648e-05
2162.48	0.5495	-5.49316e-07
2163.34	-0.69751	-0.00983887
2164.22	0.549866	-4.73022e-06
2165.12	0.549774	-1.70898e-06
2166	0.000878906	0.0115753
2166.86	0.549255	0
2167.76	0.550964	-8.20923e-06
2168.64	0.00106506	0.00521515
2169.5	0.549316	9.15527e-08
2170.4	0.549561	-3.96729e-07
2171.3	0.550934	0.00223114
2172.14	0.551056	-1.26953e-05
2173.04	0.551025	-1.23291e-05
2173.94	0.550964	6.49719e-05
2174.78	0.549408	-1.46484e-06
2175.68	0.550323	-9.21631e-06
2176.58	0.550568	1.78223e-05
2177.42	0.550964	-1.3916e-05
2178.32	0.550934	-1.20239e-05
2179.22	0.550751	6.04248e-06
2180.06	0.549713	-3.69263e-06
2180.96	0.549286	3.66211e-07
2181.86	0.550995	-1.34277e-06
2182.7	0.549316	-1.0376e-06
2183.6	0.550781	-1.46179e-05
2184.5	0.550537	-2.83813e-06
2185.34	0.551086	-1.45874e-05
2186.24	0.550598	-1.05591e-05
2187.14	0.550995	-8.3313e-06
2188	-0.697845	-0.0179413
2188.88	0.549591	-1.34277e-06
2189.78	0.549652	-9.15527e-08
2190.64	-0.698669	-0.00992126
2191.52	0.550751	-1.16272e-05
2192.42	0.550476	-8.75854e-06
2193.3	0.000296021	0.0115662
2194.16	0.550232	-1.15356e-05
2195.06	0.550842	-9.12476e-06
2195.94	0.00050354	0.00527618
2196.8	0.550873	-1.2146e-05
2197.7	0.550964	-8.81958e-06
2198.6	0.549744	0.00281433
2199.44	0.549347	-2.41089e-06
2200.34	0.549377	-3.35693e-07
2201.24	0.550995	6.77185e-05
2202.08	0.549896	-4.02832e-06
2202.98	0.549622	-6.10352e-06
2203.88	0.550964	1.82495e-05
2204.72	0.550568	-1.00098e-05
2205.62	0.549744	-3.93677e-06
2206.52	0.55069	4.02832e-06
2207.36	0.549408	-5.00488e-06
2208.26	0.550201	-6.10352e-06
2209.16	0.550781	5.79834e-07
2210	0.549866	-4.97437e-06
2210.9	0.550873	-1.26953e-05
2211.8	0.550446	-2.04468e-06
2212.64	0.551086	-1.33362e-05
2213.54	0.549286	-8.8501e-07
2214.44	0.549377	3.78418e-06
2215.3	-0.696747	-0.018042
2216.18	0.550232	-7.53784e-06
2217.08	0.551086	-9.94873e-06
2217.94	-0.697632	-0.0100311
2218.82	0.550934	-1.35193e-05
2219.72	0.55011	-3.11279e-06
2220.6	0.000186157	0.0115784
2221.46	0.549255	-1.19019e-06
2222.36	0.551208	-1.16882e-05
2223.24	0.00157166	0.00531555
2224.1	0.550812	-1.297e-05
2225	0.549408	7.01904e-07
2225.9	0.55072	0.00362213
2226.74	0.550049	-5.70679e-06
2227.64	0.550995	-1.08337e-05
2228.54	0.549805	7.76978e-05
2229.38	0.551056	-1.48926e-05
2230.28	0.55072	-1.00708e-05
2231.18	0.5495	3.10974e-05
2232.02	0.550934	-1.34583e-05
2232.92	0.550293	-3.23486e-06
2233.82	0.550781	7.47681e-06
2234.66	0.55069	-1.15967e-05
2235.56	0.549286	-2.13623e-07
2236.46	0.549805	6.40869e-06
2237.3	0.549316	-1.7395e-06
2238.2	0.550842	-1.1322e-05
2239.1	0.549835	3.8147e-06
2239.94	0.549347	-2.19727e-06
2240.84	0.5495	-2.74658e-06
2241.74	0.550476	-7.44629e-06
2242.6	-0.696594	-0.0181427
2243.48	0.549683	-3.50952e-06
2244.38	0.549164	5.67627e-06
2245.24	-0.697388	-0.0101074
2246.12	0.55014	-6.62231e-06
2247.02	0.549988	5.79834e-07
2247.9	0.000454712	0.0115723
2248.76	0.550354	-8.94165e-06
2249.66	0.549225	3.63159e-06
2250.54	0.00196533	0.0053476
2251.4	0.550598	-1.33667e-05
2252.3	0.550385	-6.13403e-06
2253.2	0.549744	0.00473511
2254.04	0.549347	-3.57056e-06
2254.94	0.550049	-4.27246e-06
2255.84	0.550873	7.30896e-05
2256.68	0.550659	-1.14441e-05
2257.58	0.550659	-1.01624e-05
2258.48	0.549377	3.19824e-05
2259.32	0.551056	-1.36108e-05
2260.22	0.549255	0
2261.12	0.551208	5.61523e-06
2261.96	0.549408	-1.2207e-07
2262.86	0.550934	-1.23291e-05
2263.76	0.550049	5.40161e-06
2264.6	0.550079	-8.69751e-06
2265.5	0.549408	-9.15527e-07
2266.4	0.55014	8.8501e-07
2267.24	0.549286	-1.28174e-06
2268.14	0.549194	5.49316e-07
2269.04	0.551056	-8.72803e-06
2269.9	-0.697784	-0.0182343
2270.78	0.550629	-1.12e-05
2271.68	0.551147	-7.08008e-06
2272.54	-0.697357	-0.0102081
2273.42	0.54953	-1.40381e-06
2274.32	0.550537	-7.14111e-06
2275.2	0.00119934	0.0115417
2276.06	0.550476	-1.28784e-05
2276.96	0.550659	-9.15527e-06
2277.84	0.00154724	0.00539551
2278.7	0.550537	-1.12305e-05
2279.6	0.551239	-1.19934e-05
2280.5	0.55011	0.0058017
2281.34	0.549255	-1.89209e-06
2282.24	0.549561	-2.10571e-06
2283.14	0.550354	7.92847e-05
2283.98	0.549866	-7.8125e-06
2284.88	0.549988	-4.36401e-06
2285.78	0.549438	3.18909e-05
2286.62	0.550873	-1.26038e-05
2287.52	0.549988	-2.53296e-06
2288.42	0.551025	4.63867e-06
2289.26	0.551178	-1.50452e-05
2290.16	0.549316	-9.15527e-08
2291.06	0.549286	1.09863e-05
2291.9	0.550995	-1.44958e-05
2292.8	0.551147	-1.00403e-05
2293.7	0.550018	1.34277e-06
2294.54	0.549377	-2.44141e-06
2295.44	0.549347	-9.76562e-07
2296.34	0.550598	-3.44849e-06
2297.2	-0.696686	-0.0183075
2298.08	0.55014	-3.05176e-06
2298.98	0.550537	-6.46973e-06
2299.84	-0.697113	-0.0102783
2300.72	0.549622	-2.96021e-06
2301.62	0.55072	-8.45337e-06
2302.5	0.00090332	0.0115509
2303.36	0.549225	-2.22778e-06
2304.26	0.549377	3.35693e-07
2305.14	0.000750732	0.00543701
2306	0.550476	-1.09253e-05
2306.9	0.550079	-5.40161e-06
2307.8	0.550385	0.00663116
2308.64	0.550507	-9.91821e-06
2309.54	0.550598	-1.22681e-05
2310.44	0.549622	8.48694e-05
2311.28	0.549408	-1.95313e-06
2312.18	0.550873	-1.02539e-05
2313.08	0.550262	2.57263e-05
2313.92	0.549988	-5.67627e-06
2314.82	0.549713	-2.68555e-06
2315.72	0.550354	1.36414e-05
2316.56	0.549927	-6.74438e-06
2317.46	0.549927	-2.86865e-06
2318.36	0.549805	6.2561e-06
2319.2	0.549316	-1.2207e-06
2320.1	0.550964	-1.22681e-05
2321	0.550903	-3.41797e-06
2321.84	0.551025	-1.44348e-05
2322.74	0.550323	-8.78906e-06
2323.64	0.550232	-3.41797e-06
2324.5	-0.696564	-0.0184052
2325.38	0.549316	-1.31226e-06
2326.28	0.549194	2.44141e-06
2327.14	-0.697571	-0.0103699
2328.02	0.549927	-3.26538e-06
2328.92	0.550323	-6.46973e-06
2329.8	-8.8501e-05	0.0115326
2330.66	0.54953	-3.63159e-06
2331.56	0.550446	-6.74438e-06
2332.44	0.00137024	0.00546539
2333.3	0.549835	-6.01196e-06
2334.2	0.550629	-9.8877e-06
2335.1	0.549347	0.00727753
2335.94	0.550079	-7.50732e-06
2336.84	0.550659	-1.02234e-05
2337.74	0.551147	7.48901e-05
2338.58	0.550751	-1.32446e-05
2339.48	0.549622	-4.11987e-06
2340.38	0.551178	1.99585e-05
2341.22	0.55014	-8.3313e-06
2342.12	0.549866	-5.31006e-06
2343.02	0.549133	1.90735e-05
2343.86	0.549377	-1.12915e-06
2344.76	0.550598	-1.11694e-05
2345.66	0.550934	-3.11279e-06
2346.5	0.551025	-1.40076e-05
2347.4	0.551086	-1.24817e-05
2348.3	0.549103	7.62939e-06
2349.14	0.551025	-1.41602e-05
2350.04	0.551025	-1.27869e-05
2350.94	0.549438	6.34766e-06
2351.8	-0.698181	-0.0184875
2352.68	0.550262	-7.23267e-06
2353.58	0.549316	-1.52588e-07
2354.44	-0.6987	-0.0104248
2355.32	0.551025	-1.35803e-05
2356.22	0.549591	2.16675e-06
2357.1	0.00172119	0.0115295
2357.96	0.549591	-5.24902e-06
2358.86	0.550568	-1.19629e-05
2359.74	0.00161743	0.00550415
2360.6	0.551025	-1.43127e-05
2361.5	0.549896	-3.50952e-06
2362.4	0.549652	0.00775452
2363.24	0.550659	-1.01013e-05
2364.14	0.550079	-6.31714e-06
2365.04	0.550873	8.03223e-05
2365.88	0.549286	-9.15527e-08
2366.78	0.550873	-1.08948e-05
2367.68	0.551117	2.28882e-05
2368.52	0.549347	-2.65503e-06
2369.42	0.55069	-1.15662e-05
2370.32	0.549408	1.77612e-05
2371.16	0.549988	-7.56836e-06
2372.06	0.550964	-1.35193e-05
2372.96	0.549377	1.04065e-05
2373.8	0.549225	-5.18799e-07
2374.7	0.549316	-2.0752e-06
2375.6	0.551056	-5.15747e-06
2376.44	0.550293	-8.39233e-06
2377.34	0.549988	-9.58252e-06
2378.24	0.550049	2.41089e-06
2379.1	-0.696472	-0.0185913
2379.98	0.551056	-1.43433e-05
2380.88	0.550049	-3.57056e-06
2381.74	-0.698822	-0.0105103
2382.62	0.550232	-1.09558e-05
2383.52	0.550659	-7.41577e-06
2384.4	0.00107422	0.0115417
2385.26	0.55014	-7.96509e-06
2386.16	0.549744	-1.89209e-06
2387.04	0.00113525	0.00553955
2387.9	0.549225	3.05176e-08
2388.8	0.550323	-5.21851e-06
2389.7	0.549042	0.008203125
2390.54	0.55011	-9.42993e-06
2391.44	0.550934	-1.16577e-05
2392.34	0.550354	8.57239e-05
2393.18	0.55011	-8.54492e-06
2394.08	0.550964	-1.17493e-05
2394.98	0.549774	3.25317e-05
2395.82	0.549347	-5.92041e-06
2396.72	0.549652	-1.12915e-06
2397.62	0.5495	1.55945e-05
2398.46	0.550903	-1.43738e-05
2399.36	0.549591	-2.28882e-06
2400.26	0.549469	1.07727e-05
2401.1	0.549744	-6.31714e-06
2402	0.550934	-1.26648e-05
2402.9	0.550232	2.28882e-06
2403.74	0.549561	-5.37109e-06
2404.64	0.550934	-1.27563e-05
2405.54	0.551025	-6.34766e-06
2406.4	-0.696655	-0.0186737
2407.28	0.549866	-5.92041e-06
2408.18	0.550873	-8.08716e-06
2409.04	-0.697449	-0.0105988
2409.92	0.550751	-1.36108e-05
2410.82	0.549347	1.49536e-06
2411.7	0.000393677	0.0115356
2412.56	0.549347	-1.7395e-06
2413.46	0.550781	-9.52148e-06
2414.34	0.00169373	0.00555908
2415.2	0.549988	-9.765625E-06
2416.1	0.549255	2.04468e-06
2417	0.550354	0.00857849
2417.84	0.549713	-5.37109e-06
2418.74	0.551025	-1.04065e-05
2419.64	0.5495	9.35669e-05
2420.48	0.550995	-1.25122e-05
2421.38	0.549286	-1.49536e-06
2422.28	0.551208	2.28882e-05
2423.12	0.549683	-5.31006e-06
2424.02	0.551086	-1.23901e-05
2424.92	0.550446	1.14136e-05
2425.76	0.551208	-1.4801e-05
2426.66	0.549957	-7.01904e-07
2427.56	0.549469	8.72803e-06
2428.4	0.550781	-1.33972e-05
2429.3	0.551025	-1.2085e-05
2430.2	0.550598	-3.05176e-06
2431.04	0.549469	-4.94385e-06
2431.94	0.549713	-3.75366e-06
2432.84	0.550568	-3.479e-06
2433.7	-0.698364	-0.0187408
2434.58	0.549225	-5.18799e-07
2435.48	0.550598	-2.50244e-06
2436.34	-0.69809	-0.0106842
2437.22	0.55072	-1.17493e-05
2438.12	0.550568	-6.50024e-06
2439	0.0016571	0.0115234
2439.86	0.549713	-3.93677e-06
2440.76	0.549316	2.22778e-06
2441.64	0.000634766	0.00559418
2442.5	0.550934	-1.23291e-05
2443.4	0.551086	-1.25427e-05
2444.3	0.550781	0.00881653
2445.14	0.550903	-1.37024e-05
2446.04	0.550964	-1.19324e-05
2446.94	0.550812	8.61816e-05
2447.78	0.551178	-1.45569e-05
2448.68	0.550598	-8.88062e-06
2449.58	0.55069	2.54822e-05
2450.42	0.551056	-1.36108e-05
2451.32	0.549469	-5.64575e-06
2452.22	0.550964	7.01904e-06
2453.06	0.550507	-1.00403e-05
2453.96	0.551086	-1.4679e-05
2454.86	0.549377	1.1261e-05
2455.7	0.549988	-8.60596e-06
2456.6	0.55011	-4.02832e-06
2457.5	0.550079	2.80762e-06
2458.34	0.551025	-1.28784e-05
2459.24	0.550262	-8.14819e-06
2460.14	0.550842	-9.52148e-06
2461	-0.697357	-0.0188232
2461.88	0.549164	1.46484e-06
2462.78	0.549286	2.28882e-06
2463.64	-0.697357	-0.0107544
2464.52	0.549103	1.00708e-06
2465.42	0.55072	-8.17871e-06
2466.3	0.00134583	0.0115234
2467.16	0.54953	-4.30298e-06
2468.06	0.549255	2.74658e-06
2468.94	0.000808716	0.00562805
2469.8	0.550507	-1.41296e-05
2470.7	0.550995	-1.11389e-05
2471.6	0.550873	0.00914001
2472.44	0.549896	-4.08936e-06
2473.34	0.550354	-6.28662e-06
2474.24	0.549713	9.44214e-05
2475.08	0.550751	-1.13831e-05
2475.98	0.55069	-1.04675e-05
2476.88	0.549561	3.51868e-05
2477.72	0.549408	-3.66211e-06
2478.62	0.550995	-1.37939e-05
2479.52	0.549469	1.70898e-05
2480.36	0.549713	-2.62451e-06
2481.26	0.550842	-1.27869e-05
2482.16	0.549683	5.58472e-06
2483	0.550903	-1.29089e-05
2483.9	0.549591	-1.7395e-06
2484.8	0.549133	8.27026e-06
2485.64	0.550537	-1.11389e-05
2486.54	0.551025	-1.50452e-05
2487.44	0.550995	-8.11768e-06
2488.3	-0.697906	-0.0189178
2489.18	0.550446	-1.01318e-05
2490.08	0.549286	1.86157e-06
2490.94	-0.697144	-0.0108337
2491.82	0.551056	-1.3916e-05
2492.72	0.54953	-1.19019e-06
2493.6	0.00114441	0.011496
2494.46	0.549438	-2.47192e-06
2495.36	0.5495	-3.66211e-07
2496.24	0.000784302	0.0056424
2497.1	0.549438	-3.69263e-06
2498	0.550751	-1.16272e-05
2498.9	0.550446	0.00943909
2499.74	0.549927	-5.15747e-06
2500.64	0.550812	-1.37329e-05
2501.54	0.549438	9.96399e-05
2502.38	0.549164	-1.2207e-06
2503.28	0.549377	3.66211e-07
2504.18	0.550446	2.85034e-05
2505.02	0.5495	-3.69263e-06
2505.92	0.549408	-1.37329e-06
2506.82	0.550964	6.98853e-06
2507.66	0.549805	-6.56128e-06
2508.56	0.550354	-8.23975e-06
2509.46	0.550568	4.36401e-06
2510.3	0.549591	-3.9978e-06
2511.2	0.550781	-1.29395e-05
2512.1	0.549683	7.35474e-06
2512.94	0.551117	-1.39771e-05
2513.84	0.550415	-1.27563e-05
2514.74	0.550568	-2.7771e-06
2515.6	-0.697876	-0.0189819
2516.48	0.550537	-1.14136e-05
2517.38	0.549225	4.60815e-06
2518.24	-0.698364	-0.0109009
2519.12	0.550262	-9.39941e-06
2520.02	0.549591	6.10352e-07
2520.9	0.00043335	0.0114929
2521.76	0.54953	-2.47192e-06
2522.66	0.549225	1.83105e-07
2523.54	0.000509644	0.00567505
2524.4	0.549255	-3.60107e-06
2525.3	0.550385	-5.7373e-06
2526.2	0.549072	0.00969849
2527.04	0.550415	-1.00708e-05
2527.94	0.550385	-6.86646e-06
2528.84	0.551056	9.05457e-05
2529.68	0.551056	-1.48315e-05
2530.58	0.550476	-9.27734e-06
2531.48	0.549164	3.8269e-05
2532.32	0.549347	-3.93677e-06
2533.22	0.551117	-1.51672e-05
2534.12	0.549316	2.02332e-05
2534.96	0.551178	-1.68457e-05
2535.86	0.549774	-4.63867e-06
2536.76	0.550232	7.87354e-06
2537.6	0.550323	-1.11389e-05
2538.5	0.551056	-1.25732e-05
2539.4	0.550812	-2.53296e-06
2540.24	0.550323	-9.18579e-06
2541.14	0.549347	-3.05176e-07
2542.04	0.54953	-3.05176e-08
2542.9	-0.696533	-0.0190765
2543.78	0.550446	-1.20544e-05
2544.68	0.549652	1.86157e-06
2545.54	-0.698181	-0.0109894
2546.42	0.550812	-1.24207e-05
2547.32	0.550079	-1.31226e-06
2548.2	0.00153809	0.0114807
2549.06	0.551025	-1.40381e-05
2549.96	0.549225	1.0376e-06
2550.84	0.00179443	0.00568512
2551.7	0.551208	-1.34888e-05
2552.6	0.550873	-1.15356e-05
2553.5	0.549042	0.00995178
2554.34	0.550385	-7.8125e-06
2555.24	0.550873	-1.19629e-05
2556.14	0.549255	0.000104248
2556.98	0.549377	-2.01416e-06
2557.88	0.55014	-9.21631e-06
2558.78	0.549408	3.66821e-05
2559.62	0.551178	-1.52283e-05
2560.52	0.551056	-1.33362e-05
2561.42	0.549652	1.59302e-05
2562.26	0.550507	-1.23901e-05
2563.16	0.55011	-5.92041e-06
2564.06	0.549957	2.50244e-06
2564.9	0.549347	-1.28174e-06
2565.8	0.5495	-6.01196e-06
2566.7	0.551025	-5.00488e-06
2567.54	0.550934	-1.39771e-05
2568.44	0.549347	-9.15527e-07
2569.34	0.549438	3.66211e-06
2570.2	-0.696594	-0.0191467
2571.08	0.549377	-1.31226e-06
2571.98	0.549286	3.60107e-06
2572.84	-0.69809	-0.0110809
2573.72	0.550812	-1.2085e-05
2574.62	0.551147	-8.72803e-06
2575.5	7.93457e-05	0.0114777
2576.36	0.549316	-7.32422e-07
2577.26	0.550751	-1.11694e-05
2578.14	0.0013092	0.00570709
2579	0.549133	-4.57764e-07
2579.9	0.551117	-1.25427e-05
2580.8	0.549011	0.0101746
2581.64	0.549286	-2.56348e-06
2582.54	0.550323	-8.02612e-06
2583.44	0.5495	0.000104828
2584.28	0.549347	6.10352e-08
2585.18	0.549438	-2.74658e-07
2586.08	0.550903	2.55737e-05
2586.92	0.550934	-1.32446e-05
2587.82	0.549927	-4.57764e-06
2588.72	0.551056	5.95093e-06
2589.56	0.55127	-1.45264e-05
2590.46	0.549316	7.01904e-07
2591.36	0.549622	1.00708e-05
2592.2	0.549255	-1.5564e-06
2593.1	0.549469	-1.70898e-06
2594	0.549286	8.23975e-06
2594.84	0.549774	-8.23975e-06
2595.74	0.549744	-3.66211e-06
2596.64	0.549866	3.66211e-07
2597.5	-0.698059	-0.0192413
2598.38	0.549255	-1.28174e-06
2599.28	0.551056	-8.81958e-06
2600.14	-0.697968	-0.0111542
2601.02	0.549774	-4.79126e-06
2601.92	0.549286	1.70898e-06
2602.8	0.00169373	0.0114594
2603.66	0.550354	-8.88062e-06
2604.56	0.550659	-9.82666e-06
2605.44	0.000125122	0.00573883
2606.3	0.550873	-1.16577e-05
2607.2	0.550964	-1.2207e-05
2608.1	0.550781	0.0103912
2608.94	0.550079	-1.08032e-05
2609.84	0.550568	-8.97217e-06
2610.74	0.550629	9.83887e-05
2611.58	0.549713	-5.95093e-06
2612.48	0.549622	-4.73022e-06
2613.38	0.550812	2.68555e-05
2614.22	0.549927	-6.46973e-06
2615.12	0.550201	-5.06592e-06
2616.02	0.549408	1.76697e-05
2616.86	0.550781	-1.28479e-05
2617.76	0.549469	-2.10571e-06
2618.66	0.549408	1.04065e-05
2619.5	0.550629	-1.26038e-05
2620.4	0.550812	-1.27869e-05
2621.3	0.550079	2.19727e-06
2622.14	0.550293	-1.23901e-05
2623.04	0.549774	-3.90625e-06
2623.94	0.550537	-3.75366e-06
2624.8	-0.696777	-0.0193359
2625.68	0.549774	-4.30298e-06
2626.58	0.550903	-8.60596e-06
2627.44	-0.698578	-0.0112274
2628.32	0.5495	-2.0752e-06
2629.22	0.550201	-3.8147e-06
2630.1	0.00105286	0.0114471
2630.96	0.550385	-9.33838e-06
2631.86	0.550049	-7.96509e-06
2632.74	0.00138245	0.00575531
2633.6	0.550659	-1.11084e-05
2634.5	0.549347	1.67847e-06
2635.4	0.549347	0.010611
2636.24	0.549255	-4.08936e-06
2637.14	0.549652	-2.59399e-06
2638.04	0.549469	0.000105347
2638.88	0.549774	-5.09644e-06
2639.78	0.550629	-1.06506e-05
2640.68	0.549286	3.99475e-05
2641.52	0.550873	-1.2207e-05
2642.42	0.550446	-9.82666e-06
2643.32	0.549438	1.8219e-05
2644.16	0.550385	-8.11768e-06
2645.06	0.550934	-9.552e-06
2645.96	0.551086	-5.18799e-07
2646.8	0.550873	-1.19019e-05
2647.7	0.550323	-6.10352e-06
2648.6	0.549622	4.79126e-06
2649.44	0.549622	-3.69263e-06
2650.34	0.549561	-3.32642e-06
2651.24	0.549561	3.14331e-06
2652.1	-0.697998	-0.0194
2652.98	0.550415	-1.10779e-05
2653.88	0.550781	-7.1106e-06
2654.74	-0.69809	-0.011319
2655.62	0.55072	-1.18713e-05
2656.52	0.549347	3.05176e-06
2657.4	0.00104675	0.0114502
2658.26	0.549408	-2.13623e-07
2659.16	0.550659	-9.8877e-06
2660.04	0.000244141	0.00578857
2660.9	0.549591	-4.36401e-06
2661.8	0.549347	-2.44141e-07
2662.7	0.550507	0.0107849
2663.54	0.550507	-1.08643e-05
2664.44	0.549713	-4.3335e-06
2665.34	0.549255	0.000112793
2666.18	0.549866	-8.72803e-06
2667.08	0.550751	-1.15967e-05
2667.98	0.549255	3.98865e-05
2668.82	0.549316	-1.61743e-06
2669.72	0.551025	-1.37634e-05
2670.62	0.549347	2.04468e-05
2671.46	0.551056	-1.25427e-05
2672.36	0.549652	-6.40869e-06
2673.26	0.550964	9.46045e-07
2674.1	0.549347	-1.67847e-06
2675	0.549896	-5.70679e-06
2675.9	0.550476	-2.10571e-06
2676.74	0.550018	-7.1106e-06
2677.64	0.550934	-1.42822e-05
2678.54	0.550446	-3.02124e-06
2679.4	-0.698029	-0.0194641
2680.28	0.549316	-6.10352e-08
2681.18	0.55072	-6.71387e-06
2682.04	-0.698425	-0.011377
2682.92	0.550537	-1.26953e-05
2683.82	0.549805	2.13623e-07
2684.7	0.00015564	0.0114349
2685.56	0.549805	-4.48608e-06
2686.46	0.55072	-1.02234e-05
2687.34	0.000653076	0.00580475
2688.2	0.549896	-7.32422e-06
2689.1	0.550995	-1.14441e-05
2690	0.548859	0.0109741
2690.84	0.551056	-1.21765e-05
2691.74	0.550446	-6.16455e-06
2692.64	0.5495	0.000111511
2693.48	0.550446	-9.12476e-06
2694.38	0.550751	-6.56128e-06
2695.28	0.550964	2.66418e-05
2696.12	0.549622	-5.09644e-06
2697.02	0.550934	-1.18713e-05
2697.92	0.549805	1.8219e-05
2698.76	0.549561	-4.66919e-06
2699.66	0.550873	-1.0498e-05
2700.56	0.550049	6.10352e-06
2701.4	0.54953	-2.83813e-06
2702.3	0.549469	-3.05176e-06
2703.2	0.550964	-4.21143e-06
2704.04	0.550415	-1.33972e-05
2704.94	0.550964	-1.28479e-05
2705.84	0.55072	-5.0354e-06
2706.7	-0.697632	-0.0195404
2707.58	0.550842	-1.3092e-05
2708.48	0.55011	-3.57056e-06
2709.34	-0.698425	-0.0114594
2710.22	0.551025	-1.37939e-05
2711.12	0.549835	-1.2207e-07
2712	0.000177002	0.0114075
2712.86	0.549744	-3.93677e-06
2713.76	0.550934	-9.765625E-06
2714.64	0.0018219	0.00581024
2715.5	0.55072	-1.28479e-05
2716.4	0.550568	-6.04248e-06
2717.3	0.549164	0.0111542
2718.14	0.55072	-1.04065e-05
2719.04	0.550659	-7.78198e-06
2719.94	0.550568	0.000103088
2720.78	0.551117	-1.52283e-05
2721.68	0.550476	-8.60596e-06
2722.58	0.550018	3.5553e-05
2723.42	0.549835	-7.20215e-06
2724.32	0.551178	-1.19629e-05
2725.22	0.55014	1.28784e-05
2726.06	0.549286	2.74658e-07
2726.96	0.549744	-1.86157e-06
2727.86	0.549286	1.2146e-05
2728.7	0.549927	-5.06592e-06
2729.6	0.550934	-9.58252e-06
2730.5	0.549347	8.5144e-06
2731.34	0.549316	-1.52588e-06
2732.24	0.549408	-5.49316e-07
2733.14	0.5495	1.06812e-06
2734	-0.697235	-0.0196167
2734.88	0.551025	-1.36414e-05
2735.78	0.550964	-8.57544e-06
2736.64	-0.698334	-0.0115479
2737.52	0.549591	-2.80762e-06
2738.42	0.55072	-9.39941e-06
2739.3	0.00174866	0.0113892
2740.16	0.5495	-1.40381e-06
2741.06	0.549683	-3.11279e-06
2741.94	0.00189514	0.00582733
2742.8	0.550751	-1.27869e-05
2743.7	0.550842	-1.19019e-05
2744.6	0.548859	0.0113068
2745.44	0.549835	-5.31006e-06
2746.34	0.549774	-1.83105e-06
2747.24	0.551178	0.000103851
2748.08	0.551056	-1.46179e-05
2748.98	0.549316	1.80054e-06
2749.88	0.55011	3.37219e-05
2750.72	0.550995	-1.33057e-05
2751.62	0.550476	-9.70459e-06
2752.52	0.551117	7.65991e-06
2753.36	0.549377	-2.16675e-06
2754.26	0.549683	-9.15527e-07
2755.16	0.550751	1.46484e-06
2756	0.550964	-1.29395e-05
2756.9	0.549896	-5.70679e-06
2757.8	0.549286	7.84302e-06
2758.64	0.549652	-3.63159e-06
2759.54	0.549133	2.74658e-07
2760.44	0.549866	1.2207e-06
2761.3	-0.696503	-0.019696
2762.18	0.549316	-2.22778e-06
2763.08	0.550995	-8.54492e-06
2763.94	-0.698303	-0.0116302
2764.82	0.549591	-3.72314e-06
2765.72	0.551086	-9.0332e-06
2766.6	0.000137329	0.0113525
2767.46	0.549927	-5.27954e-06
2768.36	0.551025	-1.15051e-05
2769.24	0.00194092	0.00583893
2770.1	0.549469	-1.61743e-06
2771	0.551086	-1.23901e-05
2771.9	0.55072	0.0114716
2772.74	0.549408	-3.96729e-06
2773.64	0.550964	-1.29395e-05
2774.54	0.550842	0.000105194
2775.38	0.549408	-2.62451e-06
2776.28	0.549469	-2.65503e-06
2777.18	0.549896	3.58887e-05
2778.02	0.551086	-1.45874e-05
2778.92	0.550354	-6.95801e-06
2779.82	0.54953	2.03857e-05
2780.66	0.549347	-1.61743e-06
2781.56	0.550262	-1.0376e-05
2782.46	0.550415	4.57764e-06
2783.3	0.549316	-1.31226e-06
2784.2	0.550873	-1.16577e-05
2785.1	0.550659	-3.479e-06
2785.94	0.549469	-1.40381e-06
2786.84	0.550873	-1.11694e-05
2787.74	0.550903	-6.98853e-06
2788.6	-0.697205	-0.019751
2789.48	0.549469	-3.479e-06
2790.38	0.54953	2.16675e-06
2791.24	-0.697174	-0.0117126
2792.12	0.550171	-8.48389e-06
2793.02	0.549286	1.95313e-06
2793.9	2.13623e-05	0.011319
2794.76	0.55014	-6.86646e-06
2795.66	0.550751	-9.97925e-06
2796.54	0.00151367	0.00584625
2797.4	0.550476	-1.09863e-05
2798.3	0.550507	-8.78906e-06
2799.2	0.548859	0.0116333
2800.04	0.550812	-1.40076e-05
2800.94	0.549683	-1.61743e-06
2801.84	0.551117	0.000110748
2802.68	0.550537	-1.08337e-05
2803.58	0.550629	-1.07727e-05
2804.48	0.549744	3.35083e-05
2805.32	0.549561	-4.11987e-06
2805.46	0.55011	-4.69971e-06