File: Edgar/20240517/20240517/electrodeposition_pulsed_potential_20240517_A/pulses_0_to_1000.txt
Time (s)	WE(1).Potential (V)	WE(1).Current (A)
182.062	-0.698425	-0.00346466
182.942	0.550171	-9.00269e-06
183.842	0.550232	-8.14819e-06
184.702	-0.698486	-0.00249512
185.582	0.550232	-8.45337e-06
186.482	0.550232	-8.39233e-06
187.362	0.00116882	0.000169525
188.222	0.550232	-8.3313e-06
189.122	0.550171	-8.72803e-06
190.002	0.00111389	3.76282e-05
190.862	0.550171	-8.66699e-06
191.762	0.550201	-7.8125e-06
192.662	0.550232	6.55212e-05
193.502	0.550201	-9.06372e-06
194.402	0.550171	-7.56836e-06
195.302	0.550171	1.19019e-05
196.142	0.550232	-8.78906e-06
197.042	0.550201	-8.36182e-06
197.942	0.550232	3.38745e-06
198.782	0.550232	-8.5144e-06
199.682	0.55014	-7.65991e-06
200.582	0.550232	6.10352e-07
201.422	0.550201	-8.20923e-06
202.322	0.550171	-7.78198e-06
203.222	0.550201	-1.15967e-06
204.062	0.550201	-8.42285e-06
204.962	0.550171	-7.35474e-06
205.862	0.550201	-2.28882e-06
206.702	0.550171	-8.11768e-06
207.602	0.550171	-7.65991e-06
208.502	0.550171	-3.44849e-06
209.362	-0.698425	-0.00334137
210.242	0.550232	-6.86646e-06
211.142	0.550201	-3.87573e-06
212.002	-0.698425	-0.0026001
212.882	0.550171	-7.04956e-06
213.782	0.550201	-3.69263e-06
214.662	0.00114441	0.000287415
215.522	0.550201	-6.43921e-06
216.422	0.550232	-3.72314e-06
217.302	0.00111389	5.66406e-05
218.162	0.550201	-5.92041e-06
219.062	0.550171	-4.91333e-06
219.962	0.550201	8.4137e-05
220.802	0.550201	-5.92041e-06
221.702	0.550171	-4.79126e-06
222.602	0.550171	2.07825e-05
223.442	0.550201	-6.5918e-06
224.342	0.550232	-4.85229e-06
225.242	0.550171	8.72803e-06
226.082	0.550201	-6.80542e-06
226.982	0.550201	-5.21851e-06
227.882	0.550171	3.66211e-06
228.722	0.550201	-7.1106e-06
229.622	0.550262	-5.43213e-06
230.522	0.550171	1.61743e-06
231.362	0.550171	-6.2561e-06
232.262	0.550262	-5.49316e-06
233.162	0.550201	3.66211e-07
234.002	0.550201	-5.67627e-06
234.902	0.550201	-5.61523e-06
235.802	0.550232	-1.58691e-06
236.662	-0.698425	-0.00383423
237.542	0.550171	-5.31006e-06
238.442	0.550232	-9.15527e-07
239.302	-0.698364	-0.0028421
240.182	0.550232	-5.76782e-06
241.082	0.550232	-2.50244e-06
241.962	0.00122375	0.00042746
242.822	0.550201	-6.13403e-06
243.722	0.550232	-3.14331e-06
244.602	0.00111084	6.96716e-05
245.462	0.550201	-5.98145e-06
246.362	0.550201	-2.53296e-06
247.262	0.550232	8.77991e-05
248.102	0.550201	-5.18799e-06
249.002	0.550232	-3.66211e-06
249.902	0.550171	2.65503e-05
250.742	0.55014	-5.64575e-06
251.642	0.550232	-3.17383e-06
252.542	0.550171	1.39771e-05
253.382	0.550201	-6.74438e-06
254.282	0.550171	-3.50952e-06
255.182	0.550171	9.21631e-06
256.022	0.550171	-6.74438e-06
256.922	0.550171	-3.8147e-06
257.822	0.550201	5.18799e-06
258.662	0.550232	-6.01196e-06
259.562	0.550232	-4.3335e-06
260.462	0.550201	3.20435e-06
261.302	0.550232	-6.65283e-06
262.202	0.550232	-4.60815e-06
263.102	0.550201	1.34277e-06
263.962	-0.698334	-0.00433472
264.842	0.550232	-3.72314e-06
265.742	0.550232	-9.15527e-08
266.602	-0.698425	-0.0030426
267.482	0.550232	-4.05884e-06
268.382	0.550201	-6.40869e-07
269.262	0.00126953	0.0006427
270.122	0.550171	-3.84521e-06
271.022	0.550171	-1.09863e-06
271.902	0.00108948	7.94983e-05
272.762	0.550171	-4.18091e-06
273.662	0.550232	-2.28882e-06
274.562	0.550262	9.18884e-05
275.402	0.550171	-5.0354e-06
276.302	0.550201	-2.16675e-06
277.202	0.550201	2.90527e-05
278.042	0.550201	-5.27954e-06
278.942	0.550232	-3.14331e-06
279.842	0.55011	1.59607e-05
280.682	0.550171	-4.27246e-06
281.582	0.55011	-3.66211e-06
282.482	0.550171	9.39941e-06
283.322	0.550232	-5.40161e-06
284.222	0.550201	-3.93677e-06
285.122	0.55014	5.76782e-06
285.962	0.550201	-5.5542e-06
286.862	0.55011	-3.63159e-06
287.762	0.550171	3.41797e-06
288.602	0.550171	-5.31006e-06
289.502	0.550201	-4.42505e-06
290.402	0.550171	2.16675e-06
291.262	-0.698334	-0.00474579
292.142	0.55014	-5.0354e-06
293.042	0.550201	6.71387e-07
293.902	-0.698364	-0.00316681
294.782	0.550201	-5.5542e-06
295.682	0.550171	-4.57764e-07
296.562	0.00126953	0.000958862
297.422	0.550171	-5.58472e-06
298.322	0.55014	-1.28174e-06
299.202	0.00110779	8.48999e-05
300.062	0.550232	-5.12695e-06
300.962	0.55014	-1.70898e-06
301.862	0.550262	9.45435e-05
302.702	0.550171	-5.27954e-06
303.602	0.550232	-2.16675e-06
304.502	0.55011	3.0304e-05
305.342	0.550201	-4.66919e-06
306.242	0.550201	-2.80762e-06
307.142	0.550232	1.58691e-05
307.982	0.550171	-5.79834e-06
308.882	0.550201	-3.66211e-06
309.782	0.550201	9.33838e-06
310.622	0.550232	-5.92041e-06
311.522	0.550171	-2.99072e-06
312.422	0.550171	6.19507e-06
313.262	0.550171	-6.22559e-06
314.162	0.550171	-4.5166e-06
315.062	0.55014	3.2959e-06
315.902	0.550201	-5.85937e-06
316.802	0.55014	-4.36401e-06
317.702	0.550171	1.7395e-06
318.562	-0.698303	-0.00507324
319.442	0.550201	-4.42505e-06
320.342	0.550171	-3.35693e-07
321.202	-0.698364	-0.00324646
322.082	0.550171	-4.42505e-06
322.982	0.550201	-4.57764e-07
323.862	0.00128784	0.00135742
324.722	0.550201	-4.60815e-06
325.622	0.550201	-1.64795e-06
326.502	0.00106812	8.92334e-05
327.362	0.550171	-4.66919e-06
328.262	0.550201	-2.22778e-06
329.162	0.550201	9.44824e-05
330.002	0.550171	-5.21851e-06
330.902	0.55014	-3.17383e-06
331.802	0.550201	2.92969e-05
332.642	0.550171	-4.3335e-06
333.542	0.550171	-3.72314e-06
334.442	0.550171	1.51367e-05
335.282	0.550201	-5.49316e-06
336.182	0.550201	-4.15039e-06
337.082	0.550171	8.48389e-06
337.922	0.550201	-5.21851e-06
338.822	0.550171	-4.63867e-06
339.722	0.550171	5.12695e-06
340.562	0.550171	-5.76782e-06
341.462	0.550171	-5.18799e-06
342.362	0.55014	2.47192e-06
343.202	0.550201	-6.89697e-06
344.102	0.550201	-5.24902e-06
345.002	0.55014	9.15527e-07
345.862	-0.698303	-0.00533722
346.742	0.550171	-5.0354e-06
347.642	0.55014	-3.05176e-07
348.502	-0.698364	-0.00330109
349.382	0.550171	-4.85229e-06
350.282	0.550171	-1.34277e-06
351.162	0.00126953	0.00180878
352.022	0.550201	-5.24902e-06
352.922	0.550171	-1.37329e-06
353.802	0.00111694	9.08813e-05
354.662	0.550171	-6.34766e-06
355.562	0.550201	-2.50244e-06
356.462	0.550232	9.36584e-05
357.302	0.550171	-5.88989e-06
358.202	0.550171	-2.53296e-06
359.102	0.550171	2.74963e-05
359.942	0.550201	-5.64575e-06
360.842	0.550171	-4.11987e-06
361.742	0.550201	1.42517e-05
362.582	0.550201	-6.37817e-06
363.482	0.55014	-3.87573e-06
364.382	0.550171	7.65991e-06
365.222	0.550201	-6.62231e-06
366.122	0.550171	-3.84521e-06
367.022	0.550201	4.27246e-06
367.862	0.550171	-6.04248e-06
368.762	0.550232	-4.60815e-06
369.662	0.55014	2.01416e-06
370.502	0.550201	-6.5918e-06
371.402	0.55014	-4.94385e-06
372.302	0.550171	3.66211e-07
373.162	-0.698303	-0.00557007
374.042	0.550171	-4.76074e-06
374.942	0.550201	-5.79834e-07
375.802	-0.698334	-0.0033432
376.682	0.550201	-5.85937e-06
377.582	0.550201	-2.16675e-06
378.462	0.00127563	0.00227448
379.322	0.55014	-5.61523e-06
380.222	0.550201	-3.05176e-06
381.102	0.00107727	9.56116e-05
381.962	0.550232	-4.85229e-06
382.862	0.550171	-3.14331e-06
383.762	0.550262	9.18579e-05
384.602	0.550232	-5.18799e-06
385.502	0.550079	-3.93677e-06
386.402	0.550171	2.62756e-05
387.242	0.550171	-6.92749e-06
388.142	0.55014	-3.78418e-06
389.042	0.55014	1.28784e-05
389.882	0.550201	-4.69971e-06
390.782	0.550171	-4.39453e-06
391.682	0.55014	6.95801e-06
392.522	0.550232	-5.64575e-06
393.422	0.55011	-5.12695e-06
394.322	0.550171	3.90625e-06
395.162	0.550171	-6.62231e-06
396.062	0.550171	-5.7373e-06
396.962	0.55014	1.40381e-06
397.802	0.550201	-6.34766e-06
398.702	0.55014	-6.5918e-06
399.602	0.550171	-4.57764e-07
400.462	-0.698273	-0.00577667
401.342	0.550171	-5.00488e-06
402.242	0.550232	-7.01904e-07
403.102	-0.698364	-0.00338318
403.982	0.55014	-6.28662e-06
404.882	0.55014	-1.7395e-06
405.762	0.00126953	0.00273743
406.622	0.550171	-6.83594e-06
407.522	0.550232	-2.47192e-06
408.402	0.00110474	9.82971e-05
409.262	0.550201	-5.67627e-06
410.162	0.550171	-3.02124e-06
411.062	0.550232	9.11865e-05
411.902	0.55014	-7.04956e-06
412.802	0.550171	-3.17383e-06
413.702	0.55014	2.64282e-05
414.542	0.55011	-6.65283e-06
415.442	0.550171	-3.84521e-06
416.342	0.550232	1.23291e-05
417.182	0.55014	-7.14111e-06
418.082	0.550232	-4.02832e-06
418.982	0.550171	7.01904e-06
419.822	0.550171	-7.23267e-06
420.722	0.550201	-4.27246e-06
421.622	0.550201	3.84521e-06
422.462	0.55014	-6.95801e-06
423.362	0.550201	-5.67627e-06
424.262	0.550171	7.32422e-07
425.102	0.55011	-7.17163e-06
426.002	0.550171	-4.91333e-06
426.902	0.55014	4.27246e-07
427.762	-0.698242	-0.00597595
428.642	0.550171	-5.21851e-06
429.542	0.550201	-8.54492e-07
430.402	-0.698303	-0.00342651
431.282	0.550201	-5.64575e-06
432.182	0.550201	-2.71606e-06
433.062	0.00128174	0.00318756
433.922	0.55014	-5.40161e-06
434.822	0.550232	-2.96021e-06
435.702	0.00110779	0.00010257
436.562	0.550171	-6.71387e-06
437.462	0.550201	-3.479e-06
438.362	0.550201	9.00574e-05
439.202	0.550171	-5.43213e-06
440.102	0.55014	-3.8147e-06
441.002	0.55011	2.5116e-05
441.842	0.55011	-6.10352e-06
442.742	0.550171	-4.60815e-06
443.642	0.55014	1.10474e-05
444.482	0.550201	-5.5542e-06
445.382	0.550171	-4.60815e-06
446.282	0.55014	6.04248e-06
447.122	0.550171	-6.10352e-06
448.022	0.55014	-5.61523e-06
448.922	0.55014	3.11279e-06
449.762	0.550171	-6.46973e-06
450.662	0.55014	-5.82886e-06
451.562	0.55014	4.27246e-07
452.402	0.550201	-6.13403e-06
453.302	0.550232	-5.46265e-06
454.202	0.550171	-4.57764e-07
455.062	-0.698181	-0.0061615
455.942	0.550201	-5.85937e-06
456.842	0.550201	-1.12915e-06
457.702	-0.698334	-0.00347076
458.582	0.550171	-6.22559e-06
459.482	0.550201	-2.83813e-06
460.362	0.00123291	0.00362122
461.222	0.55014	-6.40869e-06
462.122	0.55014	-2.89917e-06
463.002	0.00110779	0.000105988
463.862	0.55011	-7.14111e-06
464.762	0.550201	-3.66211e-06
465.662	0.550201	9.04846e-05
466.502	0.55014	-6.92749e-06
467.402	0.550171	-4.5166e-06
468.302	0.550171	2.48413e-05
469.142	0.550201	-6.50024e-06
470.042	0.550201	-4.66919e-06
470.942	0.550171	1.30615e-05
471.782	0.550171	-7.50732e-06
472.682	0.55014	-4.3335e-06
473.582	0.550171	6.65283e-06
474.422	0.550201	-7.38525e-06
475.322	0.550201	-5.12695e-06
476.222	0.55014	2.62451e-06
477.062	0.55011	-6.13403e-06
477.962	0.550171	-4.94385e-06
478.862	0.55014	7.01904e-07
479.702	0.55014	-8.08716e-06
480.602	0.550171	-4.82178e-06
481.502	0.55011	-7.62939e-07
482.362	-0.698242	-0.00634918
483.242	0.55011	-5.85937e-06
484.142	0.55014	-2.50244e-06
485.002	-0.698334	-0.00351898
485.882	0.550171	-5.40161e-06
486.782	0.550171	-2.96021e-06
487.662	0.00124817	0.00402313
488.522	0.550232	-6.28662e-06
489.422	0.550201	-3.75366e-06
490.302	0.00109863	0.000112915
491.162	0.55014	-6.40869e-06
492.062	0.55014	-3.60107e-06
492.962	0.550232	8.99048e-05
493.802	0.550171	-5.98145e-06
494.702	0.55014	-4.48608e-06
495.602	0.550201	2.4353e-05
496.442	0.550171	-6.073e-06
497.342	0.550262	-4.97437e-06
498.242	0.55014	1.07422e-05
499.082	0.550171	-6.71387e-06
499.982	0.550201	-4.36401e-06
500.882	0.550171	5.82886e-06
501.722	0.550079	-6.10352e-06
502.622	0.55014	-6.073e-06
503.522	0.55014	2.50244e-06
504.362	0.550201	-5.52368e-06
505.262	0.550171	-6.37817e-06
506.162	0.550201	6.10352e-08
507.002	0.55014	-6.40869e-06
507.902	0.550171	-6.40869e-06
508.802	0.55014	-1.5564e-06
509.662	-0.698181	-0.00652374
510.542	0.55011	-6.56128e-06
511.442	0.550171	-2.04468e-06
512.302	-0.698273	-0.00357239
513.182	0.550232	-6.34766e-06
514.082	0.55011	-3.35693e-06
514.962	0.00122681	0.00440399
515.822	0.550171	-5.79834e-06
516.722	0.55014	-3.75366e-06
517.602	0.00111084	0.000120056
518.462	0.550171	-6.5918e-06
519.362	0.550171	-3.78418e-06
520.262	0.550232	9.11255e-05
521.102	0.550201	-6.53076e-06
522.002	0.550171	-4.30298e-06
522.902	0.550201	2.46277e-05
523.742	0.55014	-6.83594e-06
524.642	0.550201	-5.12695e-06
525.542	0.55014	1.12305e-05
526.382	0.550171	-7.62939e-06
527.282	0.550201	-5.15747e-06
528.182	0.550201	6.43921e-06
529.022	0.55011	-7.50732e-06
529.922	0.55011	-5.49316e-06
530.822	0.550171	3.05176e-06
531.662	0.550201	-7.35474e-06
532.562	0.550171	-5.76782e-06
533.462	0.55014	3.35693e-07
534.302	0.55014	-7.2937e-06
535.202	0.55011	-4.73022e-06
536.102	0.55014	-3.66211e-07
536.962	-0.698181	-0.00670288
537.842	0.550171	-6.37817e-06
538.742	0.550171	-1.49536e-06
539.602	-0.698364	-0.00362701
540.482	0.550171	-6.62231e-06
541.382	0.550232	-3.38745e-06
542.262	0.00118408	0.0047406
543.122	0.550201	-6.92749e-06
544.022	0.550171	-3.44849e-06
544.902	0.00106812	0.000124084
545.762	0.55014	-5.95093e-06
546.662	0.550201	-3.54004e-06
547.562	0.550171	9.00269e-05
548.402	0.55014	-6.95801e-06
549.302	0.550201	-4.18091e-06
550.202	0.55011	2.36511e-05
551.042	0.55014	-6.19507e-06
551.942	0.55014	-4.63867e-06
552.842	0.55014	1.01929e-05
553.682	0.550171	-6.40869e-06
554.582	0.550201	-4.60815e-06
555.482	0.55011	4.88281e-06
556.322	0.550201	-6.98853e-06
557.222	0.55014	-5.52368e-06
558.122	0.55014	1.70898e-06
558.962	0.550201	-6.43921e-06
559.862	0.55014	-5.61523e-06
560.762	0.55014	7.62939e-07
561.602	0.55014	-7.26318e-06
562.502	0.550171	-6.22559e-06
563.402	0.550171	-1.43433e-06
564.262	-0.698212	-0.00687225
565.142	0.55014	-4.88281e-06
566.042	0.550201	-2.31934e-06
566.902	-0.698334	-0.00368835
567.782	0.550171	-6.2561e-06
568.682	0.550171	-3.60107e-06
569.562	0.00117493	0.00506226
570.422	0.550201	-6.43921e-06
571.322	0.55014	-4.24194e-06
572.202	0.0011261	0.000131409
573.062	0.550201	-6.2561e-06
573.962	0.550171	-4.45557e-06
574.862	0.550201	9.13696e-05
575.702	0.550171	-6.74438e-06
576.602	0.55011	-4.63867e-06
577.502	0.55011	2.34375e-05
578.342	0.55014	-6.65283e-06
579.242	0.550171	-5.24902e-06
580.142	0.55011	1.14136e-05
580.982	0.55014	-7.04956e-06
581.882	0.55011	-5.52368e-06
582.782	0.550232	5.24902e-06
583.622	0.550232	-6.95801e-06
584.522	0.55014	-5.64575e-06
585.422	0.550171	2.13623e-06
586.262	0.55014	-7.14111e-06
587.162	0.55011	-7.1106e-06
588.062	0.550171	1.0376e-06
588.902	0.550201	-7.04956e-06
589.802	0.55014	-6.53076e-06
590.702	0.550171	-7.01904e-07
591.562	-0.698151	-0.00705139
592.442	0.55014	-5.67627e-06
593.342	0.550201	-1.37329e-06
594.202	-0.698273	-0.00375
595.082	0.550201	-7.8125e-06
595.982	0.55014	-2.50244e-06
596.862	0.00119934	0.00535736
597.722	0.55014	-6.56128e-06
598.622	0.550201	-3.26538e-06
599.502	0.00109863	0.00013974
600.362	0.55011	-5.95093e-06
601.262	0.550171	-4.5166e-06
602.162	0.550232	9.05457e-05
603.002	0.55014	-7.26318e-06
603.902	0.550171	-4.48608e-06
604.802	0.55014	2.33154e-05
605.642	0.55014	-6.86646e-06
606.542	0.550201	-4.36401e-06
607.442	0.550171	1.09863e-05
608.282	0.55011	-6.92749e-06
609.182	0.550201	-4.18091e-06
610.082	0.550201	5.21851e-06
610.922	0.55014	-6.71387e-06
611.822	0.550171	-5.5542e-06
612.722	0.550171	2.13623e-06
613.562	0.550201	-6.89697e-06
614.462	0.550171	-5.52368e-06
615.362	0.55014	9.15527e-08
616.202	0.55011	-7.72095e-06
617.102	0.55014	-4.63867e-06
618.002	0.550171	-1.77002e-06
618.862	-0.698181	-0.00723114
619.742	0.550201	-5.21851e-06
620.642	0.55011	-2.41089e-06
621.502	-0.698303	-0.0038147
622.382	0.55014	-6.40869e-06
623.282	0.55011	-2.86865e-06
624.162	0.00117798	0.00563171
625.022	0.550171	-5.85937e-06
625.922	0.55011	-3.87573e-06
626.802	0.00111694	0.000150696
627.662	0.55014	-5.37109e-06
628.562	0.550171	-4.05884e-06
629.462	0.550232	9.1217e-05
630.302	0.55011	-6.13403e-06
631.202	0.550171	-4.79126e-06
632.102	0.55014	2.36511e-05
632.942	0.550171	-6.83594e-06
633.842	0.55011	-5.64575e-06
634.742	0.55011	1.06201e-05
635.582	0.550171	-6.31714e-06
636.482	0.550201	-5.61523e-06
637.382	0.55014	5.40161e-06
638.222	0.550201	-6.56128e-06
639.122	0.550201	-5.5542e-06
640.022	0.550171	1.95313e-06
640.862	0.550079	-6.5918e-06
641.762	0.550201	-6.46973e-06
642.662	0.55011	-2.44141e-07
643.502	0.550171	-6.19507e-06
644.402	0.550171	-5.40161e-06
645.302	0.55014	-1.28174e-06
646.162	-0.698151	-0.00741394
647.042	0.550079	-7.14111e-06
647.942	0.550171	-1.98364e-06
648.802	-0.698273	-0.00388672
649.682	0.550201	-6.71387e-06
650.582	0.55011	-3.41797e-06
651.462	0.0011261	0.00589996
652.322	0.55014	-6.31714e-06
653.222	0.550079	-3.78418e-06
654.102	0.00111389	0.000161804
654.962	0.550201	-7.96509e-06
655.862	0.55014	-4.24194e-06
656.762	0.550232	9.2926e-05
657.602	0.55014	-7.20215e-06
658.502	0.550201	-5.34058e-06
659.402	0.55014	2.39868e-05
660.242	0.55011	-6.28662e-06
661.142	0.550079	-4.97437e-06
662.042	0.550079	1.15356e-05
662.882	0.550171	-7.32422e-06
663.782	0.550201	-5.49316e-06
664.682	0.55014	5.24902e-06
665.522	0.550171	-7.26318e-06
666.422	0.55014	-5.27954e-06
667.322	0.550171	3.26538e-06
668.162	0.55014	-7.78198e-06
669.062	0.55014	-5.18799e-06
669.962	0.55011	1.0376e-06
670.802	0.55014	-8.36182e-06
671.702	0.550201	-6.04248e-06
672.602	0.55014	-6.71387e-07
673.462	-0.698212	-0.00760803
674.342	0.550201	-5.52368e-06
675.242	0.55014	-1.5564e-06
676.102	-0.698364	-0.00396515
676.982	0.55014	-6.40869e-06
677.882	0.55014	-2.44141e-06
678.762	0.00116882	0.00615417
679.622	0.550171	-6.71387e-06
680.522	0.550171	-3.84521e-06
681.402	0.00111694	0.000174683
682.262	0.55014	-6.98853e-06
683.162	0.55014	-4.15039e-06
684.062	0.55014	9.33533e-05
684.902	0.550171	-7.14111e-06
685.802	0.550171	-3.44849e-06
686.702	0.550201	2.32239e-05
687.542	0.550171	-6.43921e-06
688.442	0.550201	-4.82178e-06
689.342	0.550171	1.08032e-05
690.182	0.550171	-7.26318e-06
691.082	0.550201	-5.49316e-06
691.982	0.55011	4.85229e-06
692.822	0.550201	-6.56128e-06
693.722	0.55011	-6.56128e-06
694.622	0.55014	1.7395e-06
695.462	0.550934	-1.32141e-05
696.362	0.549347	-1.0376e-06
697.262	0.550995	-5.70679e-06
698.102	0.550598	-1.05591e-05
699.002	0.549377	-8.23975e-07
699.902	0.54953	3.26538e-06
700.762	-0.69754	-0.00780029
701.642	0.549805	-1.25122e-06
702.542	0.549622	-3.38745e-06
703.402	-0.699097	-0.00403442
704.282	0.549652	-3.08228e-06
705.182	0.550934	-7.47681e-06
706.062	0.00157471	0.0063916
706.922	0.550873	-1.08948e-05
707.822	0.5495	-3.05176e-07
708.702	0.000628662	0.000194611
709.562	0.551025	-1.29089e-05
710.462	0.550934	-7.99561e-06
711.362	0.549225	0.000100372
712.202	0.549744	-6.10352e-06
713.102	0.549225	1.89209e-06
714.002	0.5495	2.90222e-05
714.842	0.550201	-4.36401e-06
715.742	0.550446	-5.15747e-06
716.642	0.551086	4.42505e-06
717.482	0.549896	-6.56128e-06
718.382	0.549316	7.32422e-07
719.282	0.549896	5.70679e-06
720.122	0.550934	-1.33362e-05
721.022	0.549225	-1.15967e-06
721.922	0.550629	1.5564e-06
722.762	0.551056	-1.32446e-05
723.662	0.549347	1.2207e-06
724.562	0.550964	-6.34766e-06
725.402	0.54953	-3.78418e-06
726.302	0.549408	-3.11279e-06
727.202	0.551239	-7.69043e-06
728.062	-0.698059	-0.00800476
728.942	0.551086	-1.31531e-05
729.842	0.5495	4.21143e-06
730.702	-0.697357	-0.00413055
731.582	0.550537	-8.23975e-06
732.482	0.550659	-7.2937e-06
733.362	0.000570679	0.00663239
734.222	0.55011	-7.65991e-06
735.122	0.550568	-3.87573e-06
736.002	0.00112305	0.000208649
736.862	0.549713	-1.83105e-06
737.762	0.550598	-7.90405e-06
738.662	0.551147	9.01794e-05
739.502	0.55127	-1.44958e-05
740.402	0.549316	3.05176e-07
741.302	0.5495	2.97546e-05
742.142	0.550751	-1.18713e-05
743.042	0.551025	-1.0437e-05
743.942	0.551239	3.84521e-06
744.782	0.550293	-9.21631e-06
745.682	0.549774	-2.19727e-06
746.582	0.551086	-7.62939e-07
747.422	0.55069	-1.19934e-05
748.322	0.549835	-5.34058e-06
749.222	0.550171	-7.93457e-07
750.062	0.551147	-1.35498e-05
750.962	0.549194	-4.57764e-07
751.862	0.549683	4.5166e-06
752.702	0.549255	-8.54492e-07
753.602	0.551147	-1.28479e-05
754.502	0.550507	-5.37109e-06
755.362	-0.699066	-0.00819397
756.242	0.549469	2.44141e-07
757.142	0.55069	-6.71387e-06
758.002	-0.697571	-0.00421326
758.882	0.549408	1.46484e-06
759.782	0.549835	4.88281e-07
760.662	0.00022583	0.00685791
761.522	0.549164	-3.35693e-07
762.422	0.550873	-1.15051e-05
763.302	0.000616455	0.000226227
764.162	0.549866	-6.40869e-06
765.062	0.549316	1.58691e-06
765.962	0.55069	9.16138e-05
766.802	0.550873	-1.25427e-05
767.702	0.549957	-4.24194e-06
768.602	0.550629	2.26746e-05
769.442	0.549622	-4.24194e-06
770.342	0.550323	-3.54004e-06
771.242	0.549927	1.4679e-05
772.082	0.549591	-3.38745e-06
772.982	0.550537	-7.62939e-06
773.882	0.550201	7.04956e-06
774.722	0.549683	-4.5166e-06
775.622	0.549194	2.01416e-06
776.522	0.551025	-3.60107e-06
777.362	0.551117	-1.22681e-05
778.262	0.550293	-1.05286e-05
779.162	0.550293	-1.52588e-07
780.002	0.54953	3.05176e-07
780.902	0.550293	-3.87573e-06
781.802	0.549072	5.64575e-06
782.662	-0.697418	-0.00841064
783.542	0.549438	-2.10571e-06
784.442	0.549469	3.57056e-06
785.302	-0.698486	-0.00428284
786.182	0.549194	1.83105e-07
787.082	0.551117	-1.06201e-05
787.962	0.00204468	0.0070575
788.822	0.549774	-3.11279e-06
789.722	0.55014	-7.32422e-07
790.602	0.001297	0.000246521
791.462	0.550995	-1.06812e-05
792.362	0.550323	-7.08008e-06
793.262	0.549805	0.000103333
794.102	0.549286	9.15527e-08
795.003	0.550781	-8.20923e-06
795.903	0.550598	2.02026e-05
796.743	0.550995	-1.2207e-05
797.643	0.549622	-4.27246e-07
798.543	0.550659	7.53784e-06
799.383	0.550629	-1.19324e-05
800.283	0.549561	-1.31226e-06
801.183	0.549316	1.06201e-05
802.023	0.54953	-2.92969e-06
802.923	0.549286	7.01904e-07
803.823	0.549225	8.17871e-06
804.663	0.550323	-1.18408e-05
805.563	0.549225	8.54492e-07
806.463	0.549683	4.15039e-06
807.303	0.549408	-4.15039e-06
808.203	0.550018	-4.69971e-06
809.103	0.551178	-7.72095e-06
809.963	-0.698486	-0.00857849
810.843	0.550171	-6.62231e-06
811.743	0.549316	6.16455e-06
812.603	-0.698883	-0.00435455
813.483	0.549164	0
814.383	0.549591	-5.18799e-07
815.263	0.00176086	0.0072641
816.123	0.549347	9.15527e-08
817.023	0.551025	-1.01318e-05
817.903	0.000149536	0.000276031
818.763	0.549622	-4.05884e-06
819.663	0.549286	1.15967e-06
820.563	0.551117	8.95081e-05
821.403	0.550446	-7.50732e-06
822.303	0.550812	-8.91113e-06
823.203	0.549164	2.88391e-05
824.043	0.549164	6.40869e-07
824.943	0.550079	-5.34058e-06
825.843	0.550201	9.765625E-06
826.683	0.551117	-1.23596e-05
827.583	0.549408	9.15527e-07
828.483	0.549225	1.16577e-05
829.323	0.55014	-5.34058e-06
830.223	0.55072	-1.1322e-05
831.123	0.550873	-6.19507e-06
831.963	0.550659	-9.18579e-06
832.863	0.55072	-9.8877e-06
833.763	0.549103	8.27026e-06
834.603	0.549255	-4.27246e-07
835.503	0.551147	-1.37634e-05
836.403	0.550323	-1.25122e-06
837.263	-0.697205	-0.00879517
838.143	0.551147	-1.12305e-05
839.043	0.551117	-1.08643e-05
839.903	-0.697266	-0.00444672
840.783	0.549957	-5.52368e-06
841.683	0.549438	2.01416e-06
842.563	0.000463867	0.00748291
843.423	0.549225	-3.05176e-07
844.323	0.549561	3.96729e-07
845.203	0.000216675	0.000307068
846.063	0.550934	-1.08643e-05
846.963	0.550385	-8.17871e-06
847.863	0.549377	0.000104248
848.703	0.55011	-3.17383e-06
849.603	0.551086	-1.34277e-05
850.503	0.551025	1.72119e-05
851.343	0.549316	9.15527e-08
852.243	0.55127	-1.32141e-05
853.143	0.549683	1.2146e-05
853.983	0.550537	-6.31714e-06
854.883	0.550415	-6.073e-06
855.783	0.550201	7.93457e-07
856.623	0.5495	-9.46045e-07
857.523	0.549438	-1.83105e-07
858.423	0.549316	7.04956e-06
859.263	0.55127	-1.4801e-05
860.163	0.551086	-1.48315e-05
861.063	0.550934	-4.39453e-06
861.903	0.550507	-1.00403e-05
862.803	0.551239	-1.54419e-05
863.703	0.550018	-9.15527e-07
864.563	-0.697815	-0.00900269
865.443	0.549316	-1.64795e-06
866.343	0.549133	5.67627e-06
867.203	-0.697632	-0.00452606
868.083	0.549896	-8.48389e-06
868.983	0.549805	-1.92261e-06
869.863	0.00138855	0.00766602
870.723	0.549652	-2.28882e-06
871.623	0.549255	1.77002e-06
872.503	0.000942993	0.000331329
873.363	0.550171	-7.75146e-06
874.263	0.549744	-2.89917e-06
875.163	0.551178	9.07898e-05
876.003	0.550873	-1.50757e-05
876.903	0.550385	-6.86646e-06
877.803	0.550873	1.85242e-05
878.643	0.550323	-9.64355e-06
879.543	0.550598	-6.89697e-06
880.443	0.549438	1.78833e-05
881.283	0.550201	-6.89697e-06
882.183	0.550995	-9.27734e-06
883.083	0.550293	2.22778e-06
883.923	0.550293	-9.82666e-06
884.823	0.549316	5.79834e-07
885.723	0.549622	7.23267e-06
886.563	0.549438	-4.94385e-06
887.463	0.55011	-3.41797e-06
888.363	0.549316	5.27954e-06
889.203	0.549286	-3.17383e-06
890.103	0.550262	-5.06592e-06
891.003	0.550354	1.00708e-06
891.863	-0.69809	-0.009198
892.743	0.549194	1.0376e-06
893.643	0.549164	6.22559e-06
894.503	-0.69754	-0.00460205
895.383	0.549957	-4.63867e-06
896.283	0.549194	2.74658e-06
897.163	1.52588e-05	0.00784912
898.023	0.549194	-1.40381e-06
898.923	0.5495	1.09863e-06
899.803	0.000891113	0.000357605
900.663	0.551056	-1.07117e-05
901.563	0.550751	-1.01624e-05
902.463	0.55014	9.57642e-05
903.303	0.550995	-1.37939e-05
904.203	0.551178	-1.14136e-05
905.103	0.550964	1.54114e-05
905.943	0.549713	-7.2937e-06
906.843	0.550232	-4.97437e-06
907.743	0.550018	8.17871e-06
908.583	0.550842	-1.51978e-05
909.483	0.550842	-1.03149e-05
910.383	0.550354	9.76562e-07
911.223	0.549103	-1.83105e-07
912.123	0.550323	-5.37109e-06
913.023	0.550079	3.11279e-06
913.863	0.550323	-9.61304e-06
914.763	0.551056	-1.48621e-05
915.663	0.549835	9.15527e-07
916.503	0.549561	-1.06812e-06
917.403	0.549652	-5.40161e-06
918.303	0.549408	2.10571e-06
919.163	-0.698669	-0.0093811
920.043	0.549622	-6.89697e-06
920.943	0.5495	1.25122e-06
921.803	-0.699036	-0.00467133
922.683	0.55011	-7.50732e-06
923.583	0.551056	-1.24207e-05
924.463	0.00113831	0.00801392
925.323	0.549286	-9.15527e-08
926.223	0.549255	-1.31226e-06
927.103	0.00167847	0.000396881
927.963	0.550018	-6.04248e-06
928.863	0.551056	-1.32141e-05
929.763	0.551056	9.06067e-05
930.603	0.549896	-6.43921e-06
931.503	0.549225	2.80762e-06
932.403	0.551086	1.88904e-05
933.243	0.551086	-1.33972e-05
934.143	0.549866	-3.78418e-06
935.043	0.551239	3.8147e-06
935.883	0.550385	-1.0437e-05
936.783	0.549225	1.09863e-06
937.683	0.550629	2.74658e-07
938.523	0.549286	-2.65503e-06
939.423	0.551117	-1.28479e-05
940.323	0.550018	3.41797e-06
941.163	0.550964	-1.17798e-05
942.063	0.550323	-6.89697e-06
942.963	0.550232	9.15527e-07
943.803	0.550293	-6.89697e-06
944.703	0.551178	-1.28479e-05
945.603	0.549194	4.05884e-06
946.463	-0.698517	-0.00958862
947.343	0.549347	-2.50244e-06
948.243	0.550018	5.49316e-07
949.103	-0.699066	-0.00476379
949.983	0.549347	-2.65503e-06
950.883	0.549225	3.17383e-06
951.763	0.000204468	0.008203125
952.623	0.550507	-8.42285e-06
953.523	0.549622	-2.13623e-07
954.403	0.000317383	0.000449402
955.263	0.549591	-3.69263e-06
956.163	0.549377	1.64795e-06
957.063	0.550446	9.46045e-05
957.903	0.551056	-1.33972e-05
958.803	0.550598	-1.09558e-05
959.703	0.549133	2.94189e-05
960.543	0.549225	3.96729e-07
961.443	0.549835	-3.8147e-06
962.343	0.550232	9.97925e-06
963.183	0.549713	-7.96509e-06
964.083	0.550964	-1.36719e-05
964.983	0.551208	-1.70898e-06
965.823	0.549316	-7.01904e-07
966.723	0.549133	-2.16675e-06
967.623	0.549072	8.72803e-06
968.463	0.550354	-1.11694e-05
969.363	0.549377	1.5564e-06
970.263	0.550598	-1.83105e-07
971.103	0.549377	-2.10571e-06
972.003	0.549042	7.62939e-07
972.903	0.550018	2.41089e-06
973.763	-0.697174	-0.00981445
974.643	0.55072	-7.84302e-06
975.543	0.549133	4.48608e-06
976.403	-0.697327	-0.00485596
977.283	0.549072	-1.34277e-06
978.183	0.549164	1.52588e-06
979.063	0.00174866	0.00836487
979.923	0.550903	-1.43738e-05
980.823	0.549561	-4.08936e-06
981.703	0.00212708	0.000485229
982.563	0.549194	-3.17383e-06
983.463	0.551208	-1.41296e-05
984.363	0.55069	9.85718e-05
985.203	0.549103	5.49316e-07
986.103	0.550507	-3.11279e-06
987.003	0.549316	2.97546e-05
987.843	0.549133	-1.25122e-06
988.743	0.550842	-6.92749e-06
989.643	0.550446	2.80762e-06
990.483	0.550476	-1.07117e-05
991.383	0.549591	-4.39453e-06
992.283	0.550781	1.98364e-06
993.123	0.549255	7.32422e-07
994.023	0.551056	-1.22986e-05
994.923	0.549896	4.05884e-06
995.763	0.549316	-1.19019e-06
996.663	0.54953	-1.15967e-06
997.563	0.551208	-7.87354e-06
998.403	0.549805	-6.68335e-06
999.303	0.551025	-1.12305e-05
1000.2	0.55072	-1.01929e-05
1001.06	-0.697052	-0.0100311
1001.94	0.551147	-1.3031e-05
1002.84	0.551208	-1.23596e-05
1003.7	-0.698578	-0.00493652
1004.58	0.549255	-3.96729e-07
1005.48	0.551056	-1.05286e-05
1006.36	7.01904e-05	0.00855103
1007.22	0.55014	-6.62231e-06
1008.12	0.550903	-1.0437e-05
1009	0.00173645	0.000540771
1009.86	0.550964	-1.34888e-05
1010.76	0.549469	-1.67847e-06
1011.66	0.549408	0.000106537
1012.5	0.549866	-6.74438e-06
1013.4	0.549255	1.12915e-06
1014.3	0.549194	2.92969e-05
1015.14	0.550842	-1.40686e-05
1016.04	0.550201	-5.40161e-06
1016.94	0.549347	1.71509e-05
1017.78	0.550751	-1.36414e-05
1018.68	0.551117	-1.42517e-05
1019.58	0.549255	1.15051e-05
1020.42	0.549255	-3.05176e-07
1021.32	0.549286	8.8501e-07
1022.22	0.55072	-3.57056e-06
1023.06	0.549469	-2.7771e-06
1023.96	0.550934	-1.24512e-05
1024.86	0.549469	4.60815e-06
1025.7	0.550446	-9.85718e-06
1026.6	0.550598	-1.04065e-05
1027.5	0.550781	-6.71387e-06
1028.36	-0.697418	-0.0102631
1029.24	0.550659	-1.02234e-05
1030.14	0.551117	-9.12476e-06
1031	-0.698273	-0.00503052
1031.88	0.549438	-2.10571e-06
1032.78	0.550446	-6.5918e-06
1033.66	0.000128174	0.00871277
1034.52	0.549255	-1.95313e-06
1035.42	0.549744	-3.50952e-06
1036.3	0.000421143	0.000616455
1037.16	0.551086	-1.51672e-05
1038.06	0.549377	-6.10352e-08
1038.96	0.550873	9.57031e-05
1039.8	0.549805	-5.18799e-07
1040.7	0.549225	7.01904e-07
1041.6	0.549835	2.41394e-05
1042.44	0.549469	6.10352e-07
1043.34	0.549286	2.44141e-07
1044.24	0.550842	4.3335e-06
1045.08	0.549042	-2.19727e-06
1045.98	0.550385	-1.2146e-05
1046.88	0.551025	-3.23486e-06
1047.72	0.55069	-8.48389e-06
1048.62	0.550201	-2.01416e-06
1049.52	0.551056	-4.66919e-06
1050.36	0.549713	-7.17163e-06
1051.26	0.550079	-9.09424e-06
1052.16	0.549072	4.60815e-06
1053	0.550964	-1.5625e-05
1053.9	0.549072	-1.83105e-07
1054.8	0.549896	-1.19019e-06
1055.66	-0.697479	-0.0104736
1056.54	0.549927	-1.83105e-06
1057.44	0.550964	-1.24512e-05
1058.3	-0.697449	-0.00513
1059.18	0.549561	-6.10352e-08
1060.08	0.551056	-8.27026e-06
1060.96	0.000601196	0.00888062
1061.82	0.550537	-8.08716e-06
1062.72	0.549194	7.32422e-07
1063.6	0.00183105	0.000671082
1064.46	0.5495	-1.95313e-06
1065.36	0.549225	9.46045e-07
1066.26	0.551147	9.18274e-05
1067.1	0.551086	-1.35193e-05
1068	0.549194	2.38037e-06
1068.9	0.551025	1.57471e-05
1069.74	0.549377	-1.25122e-06
1070.64	0.549316	6.10352e-08
1071.54	0.549194	1.61438e-05
1072.38	0.550964	-1.35803e-05
1073.28	0.549377	-1.61743e-06
1074.18	0.549164	9.73511e-06
1075.02	0.549286	-1.19019e-06
1075.92	0.550995	-1.38245e-05
1076.82	0.550842	-1.5564e-06
1077.66	0.551147	-1.23291e-05
1078.56	0.549438	2.0752e-06
1079.46	0.551117	-8.8501e-06
1080.3	0.551147	-1.21155e-05
1081.2	0.549774	-4.30298e-06
1082.1	0.549957	-2.74658e-07
1082.96	-0.697144	-0.0107086
1083.84	0.550873	-1.13831e-05
1084.74	0.5495	5.49316e-07
1085.6	-0.698761	-0.00521912
1086.48	0.550262	-7.23267e-06
1087.38	0.550659	-7.20215e-06
1088.26	6.71387e-05	0.0090332
1089.12	0.550568	-9.3689e-06
1090.02	0.550262	-4.91333e-06
1090.9	0.000457764	0.000759277
1091.76	0.551056	-1.33972e-05
1092.66	0.5495	-4.18091e-06
1093.56	0.549377	0.000110687
1094.4	0.55127	-1.48926e-05
1095.3	0.550476	-1.22986e-05
1096.2	0.549225	2.90527e-05
1097.04	0.549255	-1.15967e-06
1097.94	0.549225	-6.10352e-08
1098.84	0.5495	1.34277e-05
1099.68	0.549805	-5.85937e-06
1100.58	0.549347	-1.0376e-06
1101.48	0.54953	7.96509e-06
1102.32	0.551056	-1.46179e-05
1103.22	0.55069	-1.0437e-05
1104.12	0.549988	-1.12915e-06
1104.96	0.549591	-7.50732e-06
1105.86	0.550537	-1.02234e-05
1106.76	0.549469	3.20435e-06
1107.6	0.549377	-1.83105e-06
1108.5	0.550842	-1.25427e-05
1109.4	0.549988	3.05176e-08
1110.26	-0.697113	-0.0109558
1111.14	0.549225	-1.52588e-07
1112.04	0.549072	3.87573e-06
1112.9	-0.697693	-0.00532806
1113.78	0.549713	-4.82178e-06
1114.68	0.549744	-1.89209e-06
1115.56	0.00149536	0.00919495
1116.42	0.549377	-2.56348e-06
1117.32	0.550385	-8.17871e-06
1118.2	0.00133972	0.000835266
1119.06	0.550629	-8.88062e-06
1119.96	0.55069	-9.15527e-06
1120.86	0.549408	0.000111145
1121.7	0.549438	-2.80762e-06
1122.6	0.549286	1.77002e-06
1123.5	0.549103	2.76489e-05
1124.34	0.549194	-2.22778e-06
1125.24	0.550232	-4.42505e-06
1126.14	0.549713	1.05591e-05
1126.98	0.551117	-1.42212e-05
1127.88	0.550018	-8.8501e-07
1128.78	0.551117	-4.57764e-06
1129.62	0.55069	-1.18408e-05
1130.52	0.549774	-2.86865e-06
1131.42	0.549438	4.94385e-06
1132.26	0.550018	-1.16272e-05
1133.16	0.549408	-3.66211e-07
1134.06	0.550232	-2.89917e-06
1134.9	0.550934	-1.30005e-05
1135.8	0.549164	8.8501e-07
1136.7	0.550476	-3.60107e-06
1137.56	-0.69873	-0.0111786
1138.44	0.549561	-2.56348e-06
1139.34	0.550262	-8.54492e-07
1140.2	-0.698425	-0.00543365
1141.08	0.550018	-6.80542e-06
1141.98	0.549225	3.96729e-07
1142.86	0.00153503	0.00934143
1143.72	0.549255	3.05176e-08
1144.62	0.549255	1.86157e-06
1145.5	0.00163269	0.000924988
1146.36	0.550964	-1.12e-05
1147.26	0.550415	-4.60815e-06
1148.16	0.549164	0.000112732
1149	0.550201	-6.22559e-06
1149.9	0.550476	-7.99561e-06
1150.8	0.549652	2.18201e-05
1151.64	0.551086	-1.05896e-05
1152.54	0.549225	1.7395e-06
1153.44	0.549347	1.37939e-05
1154.28	0.550812	-1.651e-05
1155.18	0.550873	-1.3031e-05
1156.08	0.5495	6.80542e-06
1156.92	0.549377	1.31226e-06
1157.82	0.549194	2.44141e-07
1158.72	0.549225	7.38525e-06
1159.56	0.551208	-1.36414e-05
1160.46	0.550232	-7.90405e-06
1161.36	0.551086	-9.00269e-06
1162.2	0.550537	-6.95801e-06
1163.1	0.550293	-7.90405e-06
1164	0.549805	-1.2207e-07
1164.86	-0.697296	-0.011441
1165.74	0.550842	-1.171875E-05
1166.64	0.551025	-6.92749e-06
1167.5	-0.697266	-0.00555054
1168.38	0.550476	-8.69751e-06
1169.28	0.550781	-1.22986e-05
1170.16	0.00132141	0.00951538
1171.02	0.549652	-4.08936e-06
1171.92	0.550293	-5.70679e-06
1172.8	0.00167542	0.0010318
1173.66	0.549164	-1.92261e-06
1174.56	0.550354	-6.68335e-06
1175.46	0.549225	0.000115234
1176.3	0.549377	-7.01904e-07
1177.2	0.5495	-1.12915e-06
1178.1	0.550568	1.77917e-05
1178.94	0.549774	-5.06592e-06
1179.84	0.549164	-7.93457e-07
1180.74	0.549866	7.35474e-06
1181.58	0.549377	-1.98364e-06
1182.48	0.550934	-1.15051e-05
1183.38	0.551086	-3.78418e-06
1184.22	0.549744	-5.95093e-06
1185.12	0.549255	-1.06812e-06
1186.02	0.549561	3.90625e-06
1186.86	0.551056	-1.31226e-05
1187.76	0.549683	-4.42505e-06
1188.66	0.549805	2.01416e-06
1189.5	0.551147	-1.49231e-05
1190.4	0.550049	-5.40161e-06
1191.3	0.551178	-9.765625E-06
1192.16	-0.698883	-0.0116821
1193.04	0.549835	-9.67407e-06
1193.94	0.549713	5.79834e-07
1194.8	-0.698181	-0.00565247
1195.68	0.550995	-1.44348e-05
1196.58	0.551147	-1.19324e-05
1197.46	0.000588989	0.00967102
1198.32	0.549713	-5.52368e-06
1199.22	0.55069	-7.35474e-06
1200.1	0.00130615	0.00114166
1200.96	0.551025	-1.51367e-05
1201.86	0.549988	-2.59399e-06
1202.76	0.551147	0.000106628
1203.6	0.549347	-3.35693e-06
1204.5	0.550018	-2.80762e-06
1205.4	0.550598	1.79749e-05
1206.24	0.550995	-1.40076e-05
1207.14	0.54953	-2.13623e-06
1208.04	0.549652	1.42212e-05
1208.88	0.5495	-3.54004e-06
1209.78	0.549866	-4.88281e-07
1210.68	0.550354	-3.05176e-07
1211.52	0.549805	-2.22778e-06
1212.42	0.549683	-3.41797e-06
1213.32	0.549286	6.31714e-06
1214.16	0.550812	-1.28174e-05
1215.06	0.549835	-5.31006e-06
1215.96	0.550232	-4.36401e-06
1216.8	0.54953	-3.69263e-06
1217.7	0.549286	6.10352e-08
1218.6	0.550812	-7.47681e-06
1219.46	-0.698822	-0.0119446
1220.34	0.55011	-5.15747e-06
1221.24	0.550659	-5.24902e-06
1222.1	-0.697937	-0.00576324
1222.98	0.551056	-1.33972e-05
1223.88	0.551117	-1.09253e-05
1224.76	0.000131226	0.00979614
1225.62	0.551056	-1.54419e-05
1226.52	0.549255	1.64795e-06
1227.4	0.00142517	0.00126129
1228.26	0.550903	-1.3031e-05
1229.16	0.549255	9.15527e-07
1230.06	0.55127	0.000109192
1230.9	0.55011	-8.78906e-06
1231.8	0.550415	-7.20215e-06
1232.7	0.549072	2.89001e-05
1233.54	0.550659	-1.08032e-05
1234.44	0.551239	-1.27563e-05
1235.34	0.550812	1.0376e-06
1236.18	0.551117	-1.46484e-05
1237.08	0.549255	-2.13623e-06
1237.98	0.550323	-1.64795e-06
1238.82	0.550171	-8.17871e-06
1239.72	0.55069	-1.02844e-05
1240.62	0.549194	6.22559e-06
1241.46	0.550781	-1.24817e-05
1242.36	0.550293	-5.64575e-06
1243.26	0.549316	-6.40869e-07
1244.1	0.549377	-2.22778e-06
1245	0.549988	-5.98145e-06
1245.9	0.550507	-5.79834e-06
1246.76	-0.696838	-0.0121887
1247.64	0.549469	-1.25122e-06
1248.54	0.550354	-3.9978e-06
1249.4	-0.699066	-0.00587891
1250.28	0.550598	-1.04065e-05
1251.18	0.550659	-7.32422e-06
1252.06	0.000268555	0.00993652
1252.92	0.549133	6.10352e-07
1253.82	0.550751	-9.06372e-06
1254.7	0.00126038	0.00139496
1255.56	0.549408	-2.7771e-06
1256.46	0.549103	1.80054e-06
1257.36	0.550995	0.000112854
1258.2	0.549927	-7.53784e-06
1259.1	0.549255	-3.66211e-07
1260	0.550568	2.03552e-05
1260.84	0.549744	-2.80762e-06
1261.74	0.549225	-3.05176e-08
1262.64	0.549286	1.38245e-05
1263.48	0.551086	-1.46179e-05
1264.38	0.549469	-1.58691e-06
1265.28	0.55127	-4.27246e-06
1266.12	0.549561	-4.60815e-06
1267.02	0.550995	-1.36108e-05
1267.92	0.549286	5.92041e-06
1268.76	0.55069	-1.41907e-05
1269.66	0.549133	-2.13623e-06
1270.56	0.551086	-7.53784e-06
1271.4	0.549774	-4.66919e-06
1272.3	0.550934	-1.18408e-05
1273.2	0.550873	-8.88062e-06
1274.06	-0.698792	-0.0124298
1274.94	0.549561	-4.91333e-06
1275.84	0.550964	-9.8877e-06
1276.7	-0.697876	-0.00600647
1277.58	0.5495	-3.87573e-06
1278.48	0.551056	-1.14136e-05
1279.36	0.000234985	0.0100739
1280.22	0.549194	-4.88281e-07
1281.12	0.550781	-7.87354e-06
1282	0.000527954	0.00153473
1282.86	0.551025	-1.45569e-05
1283.76	0.549652	-3.17383e-06
1284.66	0.549835	0.0001297
1285.5	0.549103	1.77002e-06
1286.4	0.551239	-1.3855e-05
1287.3	0.551178	1.92871e-05
1288.14	0.551086	-1.44043e-05
1289.04	0.5495	-4.27246e-07
1289.94	0.549652	1.297e-05
1290.78	0.549896	-5.40161e-06
1291.68	0.549347	-3.05176e-08
1292.58	0.551086	-3.8147e-06
1293.42	0.549103	-1.25122e-06
1294.32	0.549896	-9.79614e-06
1295.22	0.550995	-8.45337e-06
1296.06	0.550598	-1.25732e-05
1296.96	0.549622	-5.18799e-06
1297.86	0.550201	-2.86865e-06
1298.7	0.550232	-8.91113e-06
1299.6	0.551056	-1.33057e-05
1300.5	0.549408	1.25122e-06
1301.36	-0.698334	-0.0126648
1302.24	0.549713	-1.46484e-06
1303.14	0.551056	-1.05286e-05
1304	-0.698914	-0.00611877
1304.88	0.549377	-6.073e-06
1305.78	0.549896	-6.71387e-06
1306.66	0.00179443	0.0101929
1307.52	0.550476	-1.15051e-05
1308.42	0.550781	-1.22681e-05
1309.3	0.000344849	0.00167084
1310.16	0.551056	-1.3031e-05
1311.06	0.551117	-1.39465e-05
1311.96	0.549622	0.000139313
1312.8	0.549438	-2.31934e-06
1313.7	0.551208	-1.22681e-05
1314.6	0.550476	1.62964e-05
1315.44	0.549255	1.52588e-07
1316.34	0.551056	-1.28174e-05
1317.24	0.550049	4.02832e-06
1318.08	0.549286	-9.76562e-07
1318.98	0.551239	-1.34888e-05
1319.88	0.549438	6.10352e-06
1320.72	0.551178	-1.57776e-05
1321.62	0.5495	-9.15527e-08
1322.52	0.550476	-4.48608e-06
1323.36	0.549316	-4.45557e-06
1324.26	0.550598	-1.02844e-05
1325.16	0.549683	1.80054e-06
1326	0.549561	-3.50952e-06
1326.9	0.549896	-6.46973e-06
1327.8	0.549438	2.38037e-06
1328.66	-0.698456	-0.0129181
1329.54	0.55069	-1.1261e-05
1330.44	0.550964	-1.0437e-05
1331.3	-0.697083	-0.00625031
1332.18	0.549408	-6.40869e-07
1333.08	0.550476	-5.09644e-06
1333.96	0.00174255	0.0103027
1334.82	0.549469	2.74658e-07
1335.72	0.550934	-1.13525e-05
1336.6	0.000714111	0.00181
1337.46	0.55072	-1.27869e-05
1338.36	0.549744	-4.11987e-06
1339.26	0.550476	0.000137329
1340.1	0.549988	-4.73022e-06
1341	0.549438	1.49536e-06
1341.9	0.549652	2.71606e-05
1342.74	0.551208	-1.28784e-05
1343.64	0.551117	-1.37634e-05
1344.54	0.550232	8.20923e-06
1345.38	0.549561	-3.44849e-06
1346.28	0.549225	6.10352e-07
1347.18	0.549652	2.59399e-06
1348.02	0.550629	-1.16882e-05
1348.92	0.549255	-1.46484e-06
1349.82	0.550201	-3.05176e-07
1350.66	0.550842	-1.30615e-05
1351.56	0.549957	-5.95093e-06
1352.46	0.551208	-7.72095e-06
1353.3	0.550842	-1.33667e-05
1354.2	0.550995	-1.30005e-05
1355.1	0.550964	-1.15051e-05
1355.96	-0.696747	-0.0131653
1356.84	0.550659	-1.474e-05
1357.74	0.549835	-1.98364e-06
1358.6	-0.698242	-0.00636841
1359.48	0.549408	-1.80054e-06
1360.38	0.551056	-9.18579e-06
1361.26	0.00012207	0.0104279
1362.12	0.551056	-1.36719e-05
1363.02	0.549438	9.15527e-08
1363.9	0.00112305	0.0019635
1364.76	0.550842	-1.35498e-05
1365.66	0.550323	-3.9978e-06
1366.56	0.55011	0.000147705
1367.4	0.549652	-2.96021e-06
1368.3	0.550232	-8.88062e-06
1369.2	0.550201	2.55127e-05
1370.04	0.551086	-1.50146e-05
1370.94	0.550934	-1.36414e-05
1371.84	0.550842	3.69263e-06
1372.68	0.549377	-1.00708e-06
1373.58	0.549347	-4.27246e-07
1374.48	0.551086	-3.69263e-06
1375.32	0.549377	-2.68555e-06
1376.22	0.550781	-8.17871e-06
1377.12	0.549194	5.95093e-06
1377.96	0.549347	-1.5564e-06
1378.86	0.550201	-4.24194e-06
1379.76	0.549316	3.54004e-06
1380.6	0.550903	-1.28784e-05
1381.5	0.549866	-2.80762e-06
1382.4	0.549286	5.09644e-06
1383.26	-0.698639	-0.0133789
1384.14	0.549438	3.05176e-07
1385.04	0.549438	1.58691e-06
1385.9	-0.698517	-0.00650208
1386.78	0.550842	-1.45874e-05
1387.68	0.550079	-5.61523e-06
1388.56	0.00176697	0.0105164
1389.42	0.551056	-1.5564e-05
1390.32	0.550781	-1.12915e-05
1391.2	0.000601196	0.00212189
1392.06	0.550354	-7.84302e-06
1392.96	0.549347	1.0376e-06
1393.86	0.549347	0.000157562
1394.7	0.550568	-1.2146e-05
1395.6	0.549255	7.93457e-07
1396.5	0.54953	2.98157e-05
1397.34	0.550873	-1.40686e-05
1398.24	0.549561	-1.52588e-06
1399.14	0.55069	4.08936e-06
1399.98	0.550964	-1.38855e-05
1400.88	0.551086	-1.29395e-05
1401.78	0.550903	-4.57764e-06
1402.62	0.550476	-1.20239e-05
1403.52	0.549408	6.10352e-08
1404.42	0.54953	5.67627e-06
1405.26	0.549835	-5.7373e-06
1406.16	0.550415	-1.02234e-05
1407.06	0.550629	-5.37109e-06
1407.9	0.550232	-8.94165e-06
1408.8	0.549713	-4.85229e-06
1409.7	0.549316	8.54492e-07
1410.56	-0.69693	-0.0136322
1411.44	0.55011	-7.78198e-06
1412.34	0.550201	-4.94385e-06
1413.2	-0.697601	-0.006633
1414.08	0.550934	-1.28479e-05
1414.98	0.550903	-9.73511e-06
1415.86	8.54492e-05	0.010614
1416.72	0.549469	-1.67847e-06
1417.62	0.549469	-1.5564e-06
1418.5	0.00129395	0.00228027
1419.36	0.550446	-1.01013e-05
1420.26	0.549408	-5.18799e-07
1421.16	0.550507	0.000157288
1422	0.549652	-3.11279e-06
1422.9	0.549744	-2.50244e-06
1423.8	0.549438	2.70081e-05
1424.64	0.549683	-4.11987e-06
1425.54	0.549225	-6.40869e-07
1426.44	0.549286	1.5564e-05
1427.28	0.549774	-5.92041e-06
1428.18	0.549164	1.86157e-06
1429.08	0.55072	-2.2583e-06
1429.92	0.549286	-2.19727e-06
1430.82	0.550049	-9.552e-06
1431.72	0.549316	5.88989e-06
1432.56	0.551086	-1.50146e-05
1433.46	0.549774	-6.62231e-06
1434.36	0.5495	1.28174e-06
1435.2	0.549835	-8.97217e-06
1436.1	0.549774	-3.66211e-06
1437	0.550659	-7.99561e-06
1437.86	-0.696869	-0.0138702
1438.74	0.551056	-1.42212e-05
1439.64	0.551056	-1.19324e-05
1440.5	-0.698578	-0.00676514
1441.38	0.551056	-1.35803e-05
1442.28	0.550995	-1.1322e-05
1443.16	0.000689697	0.0106873
1444.02	0.549561	-2.50244e-06
1444.92	0.550018	-4.76074e-06
1445.8	0.000454712	0.00244354
1446.66	0.549255	-1.83105e-06
1447.56	0.549774	-2.62451e-06
1448.46	0.550934	0.000163635
1449.3	0.55072	-1.06201e-05
1450.2	0.550903	-1.30615e-05
1451.1	0.549225	3.34778e-05
1451.94	0.551208	-1.55334e-05
1452.84	0.550323	-9.61304e-06
1453.74	0.551056	3.63159e-06
1454.58	0.549744	-7.62939e-07
1455.48	0.549866	-5.34058e-06
1456.38	0.55069	-1.46484e-06
1457.22	0.550018	-5.52368e-06
1458.12	0.551086	-1.34277e-05
1459.02	0.549316	5.37109e-06
1459.86	0.550934	-1.31226e-05
1460.76	0.549133	-2.74658e-07
1461.66	0.550415	-3.32642e-06
1462.5	0.549255	-1.86157e-06
1463.4	0.551086	-1.31531e-05
1464.3	0.549408	4.05884e-06
1465.16	-0.698425	-0.0140778
1466.04	0.550964	-1.35803e-05
1466.94	0.549438	2.44141e-07
1467.8	-0.697754	-0.0069046
1468.68	0.550049	-6.80542e-06
1469.58	0.549438	7.62939e-07
1470.46	0.00020752	0.0107819
1471.32	0.551025	-1.44653e-05
1472.22	0.549347	2.74658e-07
1473.1	0.00105591	0.0026004
1473.96	0.549377	-2.44141e-06
1474.86	0.550323	-7.47681e-06
1475.76	0.550232	0.000179871
1476.6	0.55072	-1.29089e-05
1477.5	0.550568	-8.17871e-06
1478.4	0.54953	3.16467e-05
1479.24	0.55014	-8.20923e-06
1480.14	0.549896	-3.35693e-06
1481.04	0.549438	1.39465e-05
1481.88	0.549286	-9.76562e-07
1482.02	0.550537	-1.08643e-05