File: Edgar/20240517/20240517/electrodeposition_pulsed_potential_20240517_A/pulses_2000_to_3000.txt
Time (s)	WE(1).Potential (V)	WE(1).Current (A)
2828.74	-0.697632	-0.0199249
2829.62	0.549408	-2.0752e-06
2830.52	0.550201	-1.80054e-06
2831.38	-0.697662	-0.0118195
2832.26	0.549591	-3.78418e-06
2833.16	0.55011	-3.84521e-06
2834.04	0.000213623	0.0111847
2834.9	0.550751	-1.1261e-05
2835.8	0.549683	-3.05176e-08
2836.68	0.00169373	0.0057666
2837.54	0.55011	-7.96509e-06
2838.44	0.550232	-7.20215e-06
2839.34	0.549957	0.0116028
2840.18	0.550842	-1.19019e-05
2841.08	0.549622	-1.37329e-06
2841.98	0.549469	0.000120972
2842.82	0.54953	-2.71606e-06
2843.72	0.550873	-1.297e-05
2844.62	0.549377	3.84827e-05
2845.46	0.550171	-8.11768e-06
2846.36	0.549866	-3.75366e-06
2847.26	0.549896	1.84631e-05
2848.1	0.549652	-3.9978e-06
2849	0.550751	-1.12e-05
2849.9	0.54953	9.94873e-06
2850.74	0.550995	-1.53809e-05
2851.64	0.549438	-4.88281e-07
2852.54	0.551025	-3.57056e-06
2853.38	0.549347	-1.28174e-06
2854.28	0.549744	-5.21851e-06
2855.18	0.549652	3.57056e-06
2856.04	-0.698181	-0.01987
2856.92	0.549744	-1.89209e-06
2857.82	0.551147	-9.18579e-06
2858.68	-0.698364	-0.0118774
2859.56	0.550964	-1.44043e-05
2860.46	0.549469	2.13623e-06
2861.34	0.000140381	0.0112335
2862.2	0.549622	-3.50952e-06
2863.1	0.551056	-9.09424e-06
2863.98	0.000283813	0.00582428
2864.84	0.549591	-3.72314e-06
2865.74	0.550537	-8.14819e-06
2866.64	0.54895	0.0118103
2867.48	0.549866	-4.42505e-06
2868.38	0.55072	-1.04065e-05
2869.28	0.549225	0.000125244
2870.12	0.550018	-6.40869e-06
2871.02	0.55014	-7.50732e-06
2871.92	0.550293	3.66516e-05
2872.76	0.549194	-1.89209e-06
2873.66	0.549316	-2.74658e-06
2874.56	0.550293	1.46179e-05
2875.4	0.551025	-1.35803e-05
2876.3	0.550171	-7.69043e-06
2877.2	0.550629	2.86865e-06
2878.04	0.55069	-1.14746e-05
2878.94	0.549347	-9.15527e-07
2879.84	0.550934	-2.13623e-06
2880.68	0.550812	-1.50757e-05
2881.58	0.549561	-4.08936e-06
2882.48	0.550323	-1.25122e-06
2883.34	-0.69693	-0.0199463
2884.22	0.550751	-8.45337e-06
2885.12	0.550293	-5.46265e-06
2885.98	-0.696991	-0.0119507
2886.86	0.550995	-1.44653e-05
2887.76	0.550171	-2.89917e-06
2888.64	0.0013855	0.0112
2889.5	0.550323	-8.63647e-06
2890.4	0.549347	1.09863e-06
2891.28	0.00191345	0.00583374
2892.14	0.550049	-7.75146e-06
2893.04	0.550751	-1.07117e-05
2893.94	0.548889	0.0119537
2894.78	0.551056	-1.29089e-05
2895.68	0.550293	-8.54492e-06
2896.58	0.550934	0.000116699
2897.42	0.549683	-6.40869e-06
2898.32	0.549194	3.96729e-07
2899.22	0.549927	3.48511e-05
2900.06	0.549866	-5.49316e-06
2900.96	0.551086	-1.25122e-05
2901.86	0.550262	1.57776e-05
2902.7	0.549896	-4.48608e-06
2903.6	0.549988	-2.13623e-06
2904.5	0.550842	1.67847e-06
2905.34	0.5495	-2.71606e-06
2906.24	0.549957	-7.84302e-06
2907.14	0.549377	7.99561e-06
2907.98	0.551056	-1.47705e-05
2908.88	0.549622	-6.34766e-06
2909.78	0.551056	-7.20215e-06
2910.64	-0.696777	-0.0200226
2911.52	0.549194	1.83105e-07
2912.42	0.549225	5.88989e-06
2913.28	-0.698639	-0.012027
2914.16	0.551025	-1.47705e-05
2915.06	0.550385	-5.15747e-06
2915.94	0.00179749	0.0111938
2916.8	0.550964	-1.41296e-05
2917.7	0.550018	-1.89209e-06
2918.58	0.000949097	0.00584991
2919.44	0.549225	-5.79834e-07
2920.34	0.549683	-2.0752e-06
2921.24	0.549927	0.0121155
2922.08	0.549622	-4.57764e-06
2922.98	0.55014	-7.62939e-06
2923.88	0.550995	0.000119934
2924.72	0.551056	-1.37329e-05
2925.62	0.550049	-4.30298e-06
2926.52	0.550415	3.32947e-05
2927.36	0.549316	-2.0752e-06
2928.26	0.549622	-3.60107e-06
2929.16	0.549591	1.62048e-05
2930	0.549286	-1.92261e-06
2930.9	0.549683	-1.2207e-07
2931.8	0.549896	8.30078e-06
2932.64	0.549683	-5.09644e-06
2933.54	0.549408	-3.72314e-06
2934.44	0.550812	-1.67847e-06
2935.28	0.550873	-1.33972e-05
2936.18	0.550171	-7.14111e-06
2937.08	0.54953	1.80054e-06
2937.94	-0.697144	-0.0201111
2938.82	0.550293	-9.73511e-06
2939.72	0.550354	-4.15039e-06
2940.58	-0.698425	-0.0121277
2941.46	0.550781	-1.26343e-05
2942.36	0.549835	-1.49536e-06
2943.24	0.000894165	0.0111694
2944.1	0.55069	-9.765625E-06
2945	0.550842	-7.14111e-06
2945.88	0.00188293	0.00585663
2946.74	0.549835	-3.35693e-06
2947.64	0.549835	-2.83813e-06
2948.54	0.549988	0.012262
2949.38	0.550751	-1.11389e-05
2950.28	0.549622	-3.66211e-07
2951.18	0.550934	0.000122864
2952.02	0.549683	-3.54004e-06
2952.92	0.551086	-1.27869e-05
2953.82	0.549347	3.85742e-05
2954.66	0.550934	-1.3031e-05
2955.56	0.551086	-1.44043e-05
2956.46	0.549988	1.45569e-05
2957.3	0.549316	-1.15967e-06
2958.2	0.549255	-1.2207e-07
2959.1	0.551025	3.66211e-07
2959.94	0.551086	-1.53809e-05
2960.84	0.550781	-1.32751e-05
2961.74	0.54953	6.31714e-06
2962.58	0.550995	-1.37634e-05
2963.48	0.549408	-1.2207e-06
2964.38	0.551056	-5.88989e-06
2965.24	-0.697754	-0.0201965
2966.12	0.551178	-1.33362e-05
2967.02	0.549408	2.38037e-06
2967.88	-0.698578	-0.0122101
2968.76	0.549225	-1.83105e-07
2969.66	0.550934	-9.12476e-06
2970.54	0.000408936	0.0111176
2971.4	0.550964	-1.38855e-05
2972.3	0.549316	1.49536e-06
2973.18	0.00183716	0.00586609
2974.04	0.549805	-5.37109e-06
2974.94	0.549408	-7.01904e-07
2975.84	0.549561	0.0124176
2976.68	0.550323	-9.30786e-06
2977.58	0.550385	-6.80542e-06
2978.48	0.549561	0.000140686
2979.32	0.550385	-7.1106e-06
2980.22	0.549896	-5.98145e-06
2981.12	0.55014	3.4729e-05
2981.96	0.549744	-4.69971e-06
2982.86	0.54953	-2.65503e-06
2983.76	0.550018	1.53198e-05
2984.6	0.55069	-1.09558e-05
2985.5	0.549988	-5.00488e-06
2986.4	0.550201	4.27246e-06
2987.24	0.550781	-1.34583e-05
2988.14	0.550751	-1.297e-05
2989.04	0.550629	-1.00708e-06
2989.88	0.549744	-2.74658e-06
2990.78	0.550537	-9.39941e-06
2991.68	0.5495	3.20435e-06
2992.54	-0.697449	-0.0203003
2993.42	0.549438	-1.19019e-06
2994.32	0.549408	2.28882e-06
2995.18	-0.697083	-0.0123199
2996.06	0.549896	-4.79126e-06
2996.96	0.550842	-8.88062e-06
2997.84	0.000717163	0.0111053
2998.7	0.54953	-3.57056e-06
2999.6	0.549286	1.64795e-06
3000.48	0.00163879	0.00588257
3001.34	0.549805	-3.63159e-06
3002.24	0.550751	-9.3689e-06
3003.14	0.54892	0.0125763
3003.98	0.550934	-1.3092e-05
3004.88	0.549988	-4.73022e-06
3005.78	0.549377	0.000145447
3006.62	0.549377	-1.77002e-06
3007.52	0.550995	-1.19629e-05
3008.42	0.549622	4.04358e-05
3009.26	0.551056	-1.43127e-05
3010.16	0.550232	-7.84302e-06
3011.06	0.549683	1.69373e-05
3011.9	0.549927	-5.09644e-06
3012.8	0.55069	-1.12915e-05
3013.7	0.54953	1.18103e-05
3014.54	0.549805	-4.18091e-06
3015.44	0.550751	-1.20544e-05
3016.34	0.549622	6.80542e-06
3017.18	0.549622	-3.93677e-06
3018.08	0.549927	-7.01904e-06
3018.98	0.550598	-4.57764e-06
3019.84	-0.697205	-0.0203522
3020.72	0.549713	-4.15039e-06
3021.62	0.550659	-8.23975e-06
3022.48	-0.698364	-0.0124023
3023.36	0.550995	-1.32751e-05
3024.26	0.549561	2.47192e-06
3025.14	0.00173645	0.0110596
3026	0.55014	-9.15527e-06
3026.9	0.550446	-7.78198e-06
3027.78	0.000576782	0.00590698
3028.64	0.55069	-1.28174e-05
3029.54	0.551056	-1.33972e-05
3030.44	0.550598	0.0127045
3031.28	0.551056	-1.53809e-05
3032.18	0.550262	-7.78198e-06
3033.08	0.551117	0.000142426
3033.92	0.549347	-3.17383e-06
3034.82	0.551117	-1.26038e-05
3035.72	0.550476	3.59497e-05
3036.56	0.549316	-4.79126e-06
3037.46	0.549255	6.10352e-08
3038.36	0.549896	1.77002e-05
3039.2	0.549347	-1.77002e-06
3040.1	0.549316	9.46045e-07
3041	0.550049	6.74438e-06
3041.84	0.550995	-1.297e-05
3042.74	0.549591	-3.69263e-06
3043.64	0.550507	-9.15527e-08
3044.48	0.549347	-1.98364e-06
3045.38	0.5495	-2.92969e-06
3046.28	0.55014	-1.2207e-07
3047.14	-0.696686	-0.0204254
3048.02	0.54953	-6.43921e-06
3048.92	0.549316	4.97437e-06
3049.78	-0.698669	-0.0124817
3050.66	0.550018	-6.40869e-06
3051.56	0.551086	-1.15356e-05
3052.44	0.000735474	0.0110229
3053.3	0.549316	-2.01416e-06
3054.2	0.550079	-2.01416e-06
3055.08	0.00190735	0.00590302
3055.94	0.551025	-1.24512e-05
3056.84	0.5495	3.05176e-07
3057.74	0.549835	0.0128418
3058.58	0.549591	-3.63159e-06
3059.48	0.55072	-7.78198e-06
3060.38	0.549713	0.000159088
3061.22	0.550415	-1.11084e-05
3062.12	0.549255	-3.05176e-08
3063.02	0.551208	3.16467e-05
3063.86	0.551056	-1.57166e-05
3064.76	0.55072	-9.94873e-06
3065.66	0.550415	1.32446e-05
3066.5	0.550934	-1.41907e-05
3067.4	0.550323	-4.85229e-06
3068.3	0.549377	1.19934e-05
3069.14	0.550995	-1.37329e-05
3070.04	0.549866	-5.64575e-06
3070.94	0.549835	6.34766e-06
3071.78	0.549072	-1.70898e-06
3072.68	0.551025	-1.33362e-05
3073.58	0.549713	2.89917e-06
3074.44	-0.696503	-0.0205292
3075.32	0.550781	-1.26648e-05
3076.22	0.549591	1.31226e-06
3077.08	-0.697296	-0.0125946
3077.96	0.55011	-6.53076e-06
3078.86	0.549927	-2.53296e-06
3079.74	6.71387e-05	0.0110077
3080.6	0.551086	-1.23596e-05
3081.5	0.549225	3.8147e-06
3082.38	0.00183716	0.00592102
3083.24	0.549408	-2.19727e-06
3084.14	0.549988	-4.73022e-06
3085.04	0.550476	0.0129791
3085.88	0.549591	-6.83594e-06
3086.78	0.550201	-6.89697e-06
3087.68	0.550781	0.000161896
3088.52	0.549347	-2.0752e-06
3089.42	0.551056	-1.15051e-05
3090.32	0.550629	3.46069e-05
3091.16	0.549774	-4.88281e-06
3092.06	0.550262	-2.44141e-06
3092.96	0.550751	9.82666e-06
3093.8	0.550262	-8.48389e-06
3094.7	0.550598	-1.14136e-05
3095.6	0.550995	1.52588e-07
3096.44	0.550323	-1.26343e-05
3097.34	0.549316	3.05176e-07
3098.24	0.549561	9.06372e-06
3099.08	0.549255	-1.2207e-06
3099.98	0.549316	-8.8501e-07
3100.88	0.550903	-5.88989e-06
3101.74	-0.696472	-0.0205994
3102.62	0.551086	-1.37939e-05
3103.52	0.549469	2.59399e-06
3104.38	-0.696899	-0.012674
3105.26	0.549591	-7.32422e-06
3106.16	0.549286	3.75366e-06
3107.04	0.00163574	0.0109741
3107.9	0.551056	-1.44348e-05
3108.8	0.549347	1.31226e-06
3109.68	0.00195007	0.00592712
3110.54	0.551025	-1.3855e-05
3111.44	0.550232	-7.99561e-06
3112.34	0.550476	0.0131104
3113.18	0.549927	-6.92749e-06
3114.08	0.549805	-1.7395e-06
3114.98	0.549377	0.000180511
3115.82	0.550232	-7.99561e-06
3116.72	0.549866	-4.08936e-06
3117.62	0.549408	4.35486e-05
3118.46	0.549194	-6.40869e-07
3119.36	0.549774	-4.42505e-06
3120.26	0.550934	8.66699e-06
3121.1	0.549286	-2.68555e-06
3122	0.551086	-1.39771e-05
3122.9	0.55011	3.41797e-06
3123.74	0.550171	-6.5918e-06
3124.64	0.551056	-1.41602e-05
3125.54	0.551056	-6.16455e-06
3126.38	0.550537	-9.12476e-06
3127.28	0.551117	-1.2085e-05
3128.18	0.550995	-7.17163e-06
3129.04	-0.698181	-0.0206573
3129.92	0.550049	-5.95093e-06
3130.82	0.550537	-5.43213e-06
3131.68	-0.698517	-0.0127411
3132.56	0.549561	-3.05176e-06
3133.46	0.55069	-9.00269e-06
3134.34	0.00122681	0.0109375
3135.2	0.549774	-1.09863e-06
3136.1	0.550201	-5.58472e-06
3136.98	0.000628662	0.0059549
3137.84	0.550781	-1.45264e-05
3138.74	0.550903	-1.19324e-05
3139.64	0.550171	0.0132263
3140.48	0.550262	-9.49097e-06
3141.38	0.550812	-1.13525e-05
3142.28	0.549164	0.000192413
3143.12	0.549866	-5.24902e-06
3144.02	0.549255	7.93457e-07
3144.92	0.549225	4.59595e-05
3145.76	0.550995	-1.40686e-05
3146.66	0.550385	-7.69043e-06
3147.56	0.550415	1.4801e-05
3148.4	0.550751	-1.13831e-05
3149.3	0.550262	-6.073e-06
3150.2	0.550964	3.35693e-07
3151.04	0.549561	-4.39453e-06
3151.94	0.550995	-1.28174e-05
3152.84	0.549805	4.66919e-06
3153.68	0.549316	-1.2207e-06
3154.58	0.550537	-1.15967e-05
3155.48	0.550446	-2.01416e-06
3156.34	-0.69696	-0.0207611
3157.22	0.550598	-9.15527e-06
3158.12	0.549377	2.59399e-06
3158.98	-0.697388	-0.0128418
3159.86	0.55072	-1.13831e-05
3160.76	0.550476	-5.61523e-06
3161.64	0.00129395	0.01091
3162.5	0.550537	-9.8877e-06
3163.4	0.551178	-1.05591e-05
3164.28	0.00149536	0.00595154
3165.14	0.549744	-3.69263e-06
3166.04	0.549225	1.83105e-06
3166.94	0.550323	0.0133575
3167.78	0.549774	-4.27246e-06
3168.68	0.550812	-1.39771e-05
3169.58	0.550537	0.000192322
3170.42	0.550842	-1.39771e-05
3171.32	0.550903	-1.10474e-05
3172.22	0.549286	4.67224e-05
3173.06	0.550049	-8.3313e-06
3173.96	0.549408	-9.15527e-07
3174.86	0.551025	9.24683e-06
3175.7	0.550415	-8.45337e-06
3176.6	0.550262	-7.01904e-06
3177.5	0.549438	1.44043e-05
3178.34	0.549866	-8.20923e-06
3179.24	0.549255	-9.46045e-07
3180.14	0.550201	2.41089e-06
3180.98	0.550995	-1.35193e-05
3181.88	0.550385	-7.62939e-06
3182.78	0.550934	-4.94385e-06
3183.64	-0.696686	-0.0208191
3184.52	0.549347	-3.96729e-06
3185.42	0.551086	-8.45337e-06
3186.28	-0.698334	-0.0129211
3187.16	0.551086	-1.32141e-05
3188.06	0.549255	3.8147e-06
3188.94	1.2207e-05	0.0108887
3189.8	0.550507	-9.91821e-06
3190.7	0.550934	-8.20923e-06
3191.58	0.00105286	0.00597351
3192.44	0.549286	-1.67847e-06
3193.34	0.549377	-2.74658e-07
3194.24	0.54895	0.0134674
3195.08	0.551025	-1.51367e-05
3195.98	0.549225	2.74658e-07
3196.88	0.551056	0.000201538
3197.72	0.551056	-1.32446e-05
3198.62	0.549316	1.15967e-06
3199.52	0.550507	3.70483e-05
3200.36	0.549957	-8.30078e-06
3201.26	0.550659	-8.75854e-06
3202.16	0.549286	2.30408e-05
3203	0.550842	-1.20239e-05
3203.9	0.549347	-1.49536e-06
3204.8	0.551117	-3.66211e-07
3205.64	0.551178	-1.48926e-05
3206.54	0.549805	-3.63159e-06
3207.44	0.549927	4.15039e-06
3208.28	0.550507	-1.00098e-05
3209.18	0.550751	-1.15051e-05
3210.08	0.551086	-6.13403e-06
3210.94	-0.698029	-0.0208771
3211.82	0.550903	-1.42822e-05
3212.72	0.549255	3.08228e-06
3213.58	-0.697357	-0.0130096
3214.46	0.550934	-1.31531e-05
3215.36	0.550049	-2.92969e-06
3216.24	0.00161438	0.010849
3217.1	0.54953	-7.62939e-07
3218	0.549286	1.52588e-06
3218.88	0.00129395	0.00597168
3219.74	0.550201	-1.00403e-05
3220.64	0.549438	4.27246e-07
3221.54	0.549988	0.013559
3222.38	0.550323	-8.3313e-06
3223.28	0.5495	-1.25122e-06
3224.18	0.550964	0.000217163
3225.02	0.550964	-1.38245e-05
3225.92	0.550537	-8.72803e-06
3226.82	0.54953	4.50439e-05
3227.66	0.549438	-3.41797e-06
3228.56	0.550903	-1.15356e-05
3229.46	0.550446	1.25122e-05
3230.3	0.550842	-1.32446e-05
3231.2	0.550415	-8.91113e-06
3232.1	0.55011	7.41577e-06
3232.94	0.54953	-2.56348e-06
3233.84	0.549316	-1.15967e-06
3234.74	0.550812	-7.01904e-07
3235.58	0.549438	-1.92261e-06
3236.48	0.550781	-1.21155e-05
3237.38	0.550385	-1.15967e-06
3238.24	-0.69693	-0.0209442
3239.12	0.549805	-5.40161e-06
3240.02	0.55014	-1.19019e-06
3240.88	-0.698425	-0.013092
3241.76	0.549957	-7.2937e-06
3242.66	0.549561	-1.49536e-06
3243.54	0.000881958	0.0108246
3244.4	0.549835	-5.88989e-06
3245.3	0.550659	-8.11768e-06
3246.18	0.000982666	0.00597321
3247.04	0.549408	-3.32642e-06
3247.94	0.551178	-1.26038e-05
3248.84	0.548859	0.013681
3249.68	0.549774	-5.12695e-06
3250.58	0.549988	-4.27246e-06
3251.48	0.550995	0.000229614
3252.32	0.549896	-6.62231e-06
3253.22	0.55127	-1.21765e-05
3254.12	0.550446	3.86963e-05
3254.96	0.549377	-3.17383e-06
3255.86	0.551117	-1.17798e-05
3256.76	0.550049	1.5686e-05
3257.6	0.549225	-1.49536e-06
3258.5	0.550751	-9.30786e-06
3259.4	0.550079	6.68335e-06
3260.24	0.550079	-5.12695e-06
3261.14	0.549286	-7.32422e-07
3262.04	0.550781	-2.56348e-06
3262.88	0.549744	-6.5918e-06
3263.78	0.55072	-1.18713e-05
3264.68	0.549744	7.32422e-07
3265.54	-0.697601	-0.021048
3266.42	0.549683	-5.0354e-06
3267.32	0.549286	4.94385e-06
3268.18	-0.698425	-0.0131714
3269.06	0.550842	-1.12e-05
3269.96	0.550964	-7.90405e-06
3270.84	0.0013092	0.0107788
3271.7	0.55072	-8.57544e-06
3272.6	0.549255	1.77002e-06
3273.48	0.000384521	0.00598419
3274.34	0.54953	-1.83105e-06
3275.24	0.549255	1.09863e-06
3276.14	0.550568	0.0137756
3276.98	0.550995	-1.45264e-05
3277.88	0.55069	-6.71387e-06
3278.78	0.550751	0.000248901
3279.62	0.550323	-8.81958e-06
3280.52	0.550995	-1.09253e-05
3281.42	0.550964	3.68958e-05
3282.26	0.549988	-6.80542e-06
3283.16	0.551117	-1.34583e-05
3284.06	0.551086	9.06372e-06
3284.9	0.549316	-1.80054e-06
3285.8	0.550476	-5.92041e-06
3286.7	0.551086	-7.01904e-07
3287.54	0.551178	-1.59607e-05
3288.44	0.550934	-1.12e-05
3289.34	0.549255	8.42285e-06
3290.18	0.550873	-1.38245e-05
3291.08	0.550201	-7.62939e-06
3291.98	0.550507	-2.13623e-06
3292.84	-0.696564	-0.0211121
3293.72	0.550781	-1.06201e-05
3294.62	0.549377	5.0354e-06
3295.48	-0.698578	-0.013266
3296.36	0.550659	-1.19629e-05
3297.26	0.549377	1.83105e-06
3298.14	-0.00020752	0.0107422
3299	0.549896	-4.27246e-06
3299.9	0.550781	-9.765625E-06
3300.78	0.000442505	0.00598022
3301.64	0.549652	-3.50952e-06
3302.54	0.550873	-1.02539e-05
3303.44	0.55014	0.0138794
3304.28	0.550537	-1.02539e-05
3305.18	0.54953	-1.00708e-06
3306.08	0.549194	0.000275543
3306.92	0.549255	6.10352e-08
3307.82	0.551178	-1.40686e-05
3308.72	0.550995	3.68347e-05
3309.56	0.550415	-1.38245e-05
3310.46	0.551056	-1.33972e-05
3311.36	0.550476	1.40076e-05
3312.2	0.550873	-1.3092e-05
3313.1	0.55069	-1.05286e-05
3314	0.550995	8.23975e-07
3314.84	0.550629	-1.2146e-05
3315.74	0.550964	-1.27869e-05
3316.64	0.549591	6.83594e-06
3317.48	0.549469	-3.84521e-06
3318.38	0.550293	-7.84302e-06
3319.28	0.549957	-6.10352e-07
3320.14	-0.696381	-0.0211578
3321.02	0.550751	-1.16272e-05
3321.92	0.549377	2.0752e-06
3322.78	-0.697571	-0.013327
3323.66	0.549713	-3.63159e-06
3324.56	0.550354	-4.27246e-06
3325.44	0.00167542	0.0106934
3326.3	0.549255	7.01904e-07
3327.2	0.549774	-3.54004e-06
3328.08	0.0003479	0.00597473
3328.94	0.549805	-3.63159e-06
3329.84	0.549957	-4.91333e-06
3330.74	0.550232	0.0139648
3331.58	0.549683	-4.66919e-06
3332.48	0.550995	-1.15967e-05
3333.38	0.549957	0.000289093
3334.22	0.549652	-4.15039e-06
3335.12	0.551178	-1.27258e-05
3336.02	0.549286	4.91943e-05
3336.86	0.550385	-8.39233e-06
3337.76	0.551086	-1.35193e-05
3338.66	0.551025	1.16882e-05
3339.5	0.551025	-1.28784e-05
3340.4	0.551239	-1.34888e-05
3341.3	0.550079	4.88281e-06
3342.14	0.549561	-2.62451e-06
3343.04	0.551056	-1.27563e-05
3343.94	0.55014	-1.58691e-06
3344.78	0.549744	-5.67627e-06
3345.68	0.550903	-1.29089e-05
3346.58	0.549194	5.52368e-06
3347.44	-0.697021	-0.0212219
3348.32	0.549347	-1.98364e-06
3349.22	0.549469	1.0376e-06
3350.08	-0.697388	-0.0134338
3350.96	0.550903	-1.09253e-05
3351.86	0.549194	2.22778e-06
3352.74	0.000653076	0.0106445
3353.6	0.549683	-2.10571e-06
3354.5	0.549377	9.76562e-07
3355.38	0.000256348	0.00597107
3356.24	0.549652	-2.65503e-06
3357.14	0.549316	2.47192e-06
3358.04	0.54892	0.0140564
3358.88	0.549377	-7.01904e-07
3359.78	0.550049	-7.20215e-06
3360.68	0.550934	0.000305634
3361.52	0.549316	-5.49316e-07
3362.42	0.549316	6.10352e-07
3363.32	0.549225	5.31921e-05
3364.16	0.550537	-9.79614e-06
3365.06	0.550262	-6.68335e-06
3365.96	0.549988	1.84631e-05
3366.8	0.550903	-1.35193e-05
3367.7	0.550995	-1.28784e-05
3368.6	0.551056	4.88281e-07
3369.44	0.549561	-4.18091e-06
3370.34	0.54953	-3.54004e-06
3371.24	0.550079	2.65503e-06
3372.08	0.549286	-5.49316e-06
3372.98	0.549133	7.01904e-07
3373.88	0.551025	-5.61523e-06
3374.74	-0.696777	-0.0212769
3375.62	0.549255	6.10352e-08
3376.52	0.551208	-9.52148e-06
3377.38	-0.698151	-0.0134979
3378.26	0.550293	-9.06372e-06
3379.16	0.550995	-1.05591e-05
3380.04	0.000106812	0.0106018
3380.9	0.550751	-1.14746e-05
3381.8	0.549927	-3.11279e-06
3382.68	0.000787354	0.00596527
3383.54	0.549896	-4.82178e-06
3384.44	0.549225	1.12915e-06
3385.34	0.548645	0.0141357
3386.18	0.550293	-6.71387e-06
3387.08	0.550232	-5.7373e-06
3387.98	0.550476	0.000329468
3388.82	0.549164	-9.15527e-08
3389.72	0.550751	-1.3092e-05
3390.62	0.550323	4.66614e-05
3391.46	0.549866	-4.69971e-06
3392.36	0.549286	-6.40869e-07
3393.26	0.551117	1.15662e-05
3394.1	0.549408	-2.41089e-06
3395	0.549286	2.74658e-07
3395.9	0.549835	9.49097e-06
3396.74	0.551086	-1.38855e-05
3397.64	0.551025	-1.43433e-05
3398.54	0.550629	-1.92261e-06
3399.38	0.550568	-1.00708e-05
3400.28	0.549774	-6.40869e-06
3401.18	0.549438	4.97437e-06
3402.04	-0.696686	-0.0213318
3402.92	0.550873	-1.03149e-05
3403.82	0.550629	-3.9978e-06
3404.68	-0.697968	-0.0135742
3405.56	0.550232	-7.01904e-06
3406.46	0.550629	-6.89697e-06
3407.34	0.00133362	0.0105713
3408.2	0.549286	-1.09863e-06
3409.1	0.549408	1.15967e-06
3409.98	0.00117493	0.00596039
3410.84	0.549316	-4.88281e-07
3411.74	0.549896	-6.16455e-06
3412.64	0.550598	0.0142212
3413.48	0.549438	-1.28174e-06
3414.38	0.550659	-8.78906e-06
3415.28	0.551117	0.000348602
3416.12	0.549866	-4.60815e-06
3417.02	0.550629	-8.57544e-06
3417.92	0.550903	4.50745e-05
3418.76	0.551208	-1.474e-05
3419.66	0.550751	-8.75854e-06
3420.56	0.549957	2.38037e-05
3421.4	0.549255	-1.77002e-06
3422.3	0.549469	-2.31934e-06
3423.2	0.550507	7.26318e-06
3424.04	0.550293	-9.09424e-06
3424.94	0.549255	-2.0752e-06
3425.84	0.549561	7.26318e-06
3426.68	0.549194	1.83105e-07
3427.58	0.549194	1.2207e-06
3428.48	0.549164	7.04956e-06
3429.34	-0.697235	-0.0213928
3430.22	0.550751	-1.02539e-05
3431.12	0.550293	-3.87573e-06
3431.98	-0.698547	-0.0136658
3432.86	0.549896	-8.23975e-06
3433.76	0.549255	2.65503e-06
3434.64	0.000253296	0.0105042
3435.5	0.550079	-8.3313e-06
3436.4	0.549286	1.0376e-06
3437.28	0.00166626	0.00594208
3438.14	0.549225	-1.7395e-06
3439.04	0.5495	4.27246e-07
3439.94	0.549408	0.0142944
3440.78	0.551086	-1.35498e-05
3441.68	0.549683	-1.98364e-06
3442.58	0.549316	0.000384613
3443.42	0.550812	-1.19934e-05
3444.32	0.550629	-8.27026e-06
3445.22	0.549286	5.94177e-05
3446.06	0.549438	-2.13623e-06
3446.96	0.550446	-6.01196e-06
3447.86	0.549438	2.37122e-05
3448.7	0.551086	-1.55029e-05
3449.6	0.549652	-2.71606e-06
3450.5	0.549255	1.53809e-05
3451.34	0.549957	-9.27734e-06
3452.24	0.549286	1.00708e-06
3453.14	0.549896	7.53784e-06
3453.98	0.550537	-1.02234e-05
3454.88	0.550537	-9.70459e-06
3455.78	0.549347	7.01904e-06
3456.64	-0.696564	-0.0214508
3457.52	0.550476	-7.90405e-06
3458.42	0.549591	1.00708e-06
3459.28	-0.697388	-0.0137512
3460.16	0.550873	-1.26038e-05
3461.06	0.549347	2.80762e-06
3461.94	0.00156555	0.0104462
3462.8	0.550903	-1.01013e-05
3463.7	0.550262	-4.85229e-06
3464.58	0.00178528	0.00593628
3465.44	0.551025	-1.42822e-05
3466.34	0.549896	-3.41797e-06
3467.24	0.548706	0.0143829
3468.08	0.549591	-4.11987e-06
3468.98	0.550323	-4.57764e-06
3469.88	0.550476	0.000398041
3470.72	0.551056	-1.41602e-05
3471.62	0.550629	-9.12476e-06
3472.52	0.551025	5.09949e-05
3473.36	0.549347	-1.77002e-06
3474.26	0.550079	-5.06592e-06
3475.16	0.551086	1.11084e-05
3476	0.549316	-8.23975e-07
3476.9	0.551208	-1.36108e-05
3477.8	0.549225	1.58997e-05
3478.64	0.550995	-1.3855e-05
3479.54	0.549377	-2.19727e-06
3480.44	0.55069	-1.70898e-06
3481.28	0.550751	-1.297e-05
3482.18	0.549408	-9.46045e-07
3483.08	0.551056	-5.95093e-06
3483.94	-0.69809	-0.0215057
3484.82	0.550446	-6.46973e-06
3485.72	0.549438	5.52368e-06
3486.58	-0.697205	-0.0138214
3487.46	0.550232	-8.75854e-06
3488.36	0.549408	1.98364e-06
3489.24	3.66211e-05	0.0104126
3490.1	0.549866	-6.83594e-06
3491	0.550232	-5.0354e-06
3491.88	0.00171204	0.00593994
3492.74	0.550537	-1.21765e-05
3493.64	0.550903	-1.22986e-05
3494.54	0.548859	0.0144714
3495.38	0.55069	-9.82666e-06
3496.28	0.550018	-5.98145e-06
3497.18	0.549591	0.000432739
3498.02	0.549561	-3.35693e-06
3498.92	0.550995	-1.13525e-05
3499.82	0.549438	6.39038e-05
3500.66	0.549347	-5.85937e-06
3501.56	0.551056	-1.25427e-05
3502.46	0.549286	2.49939e-05
3503.3	0.549591	-4.39453e-06
3504.2	0.550232	-8.3313e-06
3505.1	0.551056	-1.0376e-06
3505.94	0.549469	-3.50952e-06
3506.84	0.550964	-1.27258e-05
3507.74	0.549316	8.54492e-06
3508.58	0.550201	-7.84302e-06
3509.48	0.549683	-4.39453e-06
3510.38	0.550018	1.12915e-06
3511.24	-0.697876	-0.0215698
3512.12	0.549866	-7.04956e-06
3513.02	0.550842	-8.11768e-06
3513.88	-0.698303	-0.0139038
3514.76	0.549377	-9.15527e-07
3515.66	0.549744	-4.91333e-06
3516.54	0.00164185	0.0103546
3517.4	0.549438	-1.83105e-06
3518.3	0.550934	-1.20239e-05
3519.18	0.00185852	0.00592987
3520.04	0.550262	-5.92041e-06
3520.94	0.549652	-2.44141e-06
3521.84	0.550415	0.0145447
3522.68	0.550507	-1.19019e-05
3523.58	0.550232	-5.88989e-06
3524.48	0.549591	0.000462097
3525.32	0.551025	-1.50146e-05
3526.22	0.551147	-1.30005e-05
3527.12	0.549255	6.75659e-05
3527.96	0.549316	-1.00708e-06
3528.86	0.549438	-2.80762e-06
3529.76	0.5495	2.23999e-05
3530.6	0.550934	-1.32141e-05
3531.5	0.550568	-8.60596e-06
3532.4	0.550446	3.41797e-06
3533.24	0.549377	-1.70898e-06
3534.14	0.551117	-1.37634e-05
3535.04	0.549377	8.23975e-06
3535.88	0.549866	-5.79834e-06
3536.78	0.550476	-9.27734e-06
3537.68	0.549438	5.12695e-06
3538.54	-0.696594	-0.0216431
3539.42	0.549255	-8.23975e-07
3540.32	0.550781	-5.88989e-06
3541.18	-0.69809	-0.0139893
3542.06	0.55069	-1.02234e-05
3542.96	0.550598	-7.96509e-06
3543.84	-0.000158691	0.0103302
3544.7	0.551178	-1.29089e-05
3545.6	0.549408	2.0752e-06
3546.48	0.00118408	0.00593719
3547.34	0.549286	-5.49316e-07
3548.24	0.551025	-1.01624e-05
3549.14	0.548798	0.0146423
3549.98	0.549622	-3.75366e-06
3550.88	0.551178	-1.07422e-05
3551.78	0.550659	0.000485779
3552.62	0.549835	-2.56348e-06
3553.52	0.550293	-9.52148e-06
3554.42	0.551086	5.57861e-05
3555.26	0.550232	-7.84302e-06
3556.16	0.549744	-4.15039e-06
3557.06	0.549805	2.44141e-05
3557.9	0.549988	-6.56128e-06
3558.8	0.551086	-1.32141e-05
3559.7	0.549347	1.37329e-05
3560.54	0.549377	-2.99072e-06
3561.44	0.551178	-1.28479e-05
3562.34	0.550293	3.23486e-06
3563.18	0.549561	-4.15039e-06
3564.08	0.55014	-8.20923e-06
3564.98	0.550415	-2.04468e-06
3565.84	-0.697601	-0.0217102
3566.72	0.549683	-4.36401e-06
3567.62	0.550537	-5.21851e-06
3568.48	-0.698486	-0.0140686
3569.36	0.549347	-2.53296e-06
3570.26	0.549713	-7.32422e-07
3571.14	-1.2207e-05	0.0103119
3572	0.549896	-5.76782e-06
3572.9	0.549377	5.79834e-07
3573.78	0.000848389	0.00594177
3574.64	0.550262	-7.75146e-06
3575.54	0.549438	-6.10352e-08
3576.44	0.550354	0.0146973
3577.28	0.550568	-1.01929e-05
3578.18	0.549286	8.54492e-07
3579.08	0.551025	0.000511475
3579.92	0.549866	-5.27954e-06
3580.82	0.550781	-1.15356e-05
3581.72	0.550568	6.59485e-05
3582.56	0.550018	-8.60596e-06
3583.46	0.550964	-1.37634e-05
3584.36	0.550201	2.0813e-05
3585.2	0.551117	-1.58691e-05
3586.1	0.550446	-9.12476e-06
3587	0.549713	1.18713e-05
3587.84	0.549774	-3.63159e-06
3588.74	0.551056	-1.27563e-05
3589.64	0.549591	5.88989e-06
3590.48	0.550415	-1.12915e-05
3591.38	0.550446	-1.01013e-05
3592.28	0.550568	-4.76074e-06
3593.14	-0.698029	-0.0217651
3594.02	0.550873	-1.30005e-05
3594.92	0.550446	-1.77002e-06
3595.78	-0.698547	-0.014151
3596.66	0.550385	-9.12476e-06
3597.56	0.550354	-4.15039e-06
3598.44	0.000579834	0.0102783
3599.3	0.550873	-1.29089e-05
3600.2	0.549377	1.2207e-06
3601.08	0.00201111	0.00592468
3601.94	0.5495	-1.64795e-06
3602.84	0.550476	-6.98853e-06
3603.74	0.549744	0.0147888
3604.58	0.549316	-2.22778e-06
3605.48	0.549377	-8.23975e-07
3606.38	0.550476	0.000550232
3607.22	0.549469	-2.99072e-06
3608.12	0.550873	-1.16272e-05
3609.02	0.549408	7.83081e-05
3609.86	0.550781	-1.28174e-05
3610.76	0.549835	-4.42505e-06
3611.66	0.551086	1.43738e-05
3612.5	0.549957	-7.14111e-06
3613.4	0.549561	-2.13623e-06
3614.3	0.549194	1.37329e-05
3615.14	0.550354	-9.06372e-06
3616.04	0.549469	-2.31934e-06
3616.94	0.54953	1.03149e-05
3617.78	0.549866	-7.93457e-06
3618.68	0.549225	-2.01416e-06
3619.58	0.549408	2.01416e-06
3620.44	-0.696533	-0.0218323
3621.32	0.549561	-3.54004e-06
3622.22	0.549286	2.13623e-06
3623.08	-0.697906	-0.0142181
3623.96	0.550446	-1.08948e-05
3624.86	0.550873	-1.03455e-05
3625.74	0.00141602	0.0102081
3626.6	0.55069	-1.37329e-05
3627.5	0.549225	2.50244e-06
3628.38	0.00187073	0.00591858
3629.24	0.55011	-5.31006e-06
3630.14	0.549835	-8.23975e-07
3631.04	0.549652	0.0148651
3631.88	0.549164	-1.61743e-06
3632.78	0.549622	-2.01416e-06
3633.68	0.550995	0.000581665
3634.52	0.551086	-1.35498e-05
3635.42	0.55069	-1.06201e-05
3636.32	0.549286	8.13293e-05
3637.16	0.551025	-1.42517e-05
3638.06	0.550934	-1.19934e-05
3638.96	0.550964	1.44348e-05
3639.8	0.549377	-2.99072e-06
3640.7	0.549286	-5.18799e-07
3641.6	0.550903	4.85229e-06
3642.44	0.549683	-4.60815e-06
3643.34	0.549652	-4.5166e-06
3644.24	0.551056	-1.5564e-06
3645.08	0.549713	-4.66919e-06
3645.98	0.549927	-5.79834e-06
3646.88	0.551147	-4.94385e-06
3647.74	-0.69809	-0.0218964
3648.62	0.550385	-7.84302e-06
3649.52	0.549347	6.10352e-06
3650.38	-0.698151	-0.0143005
3651.26	0.549957	-1.14746e-05
3652.16	0.549225	3.02124e-06
3653.04	-0.00020752	0.0101746
3653.9	0.550812	-1.08948e-05
3654.8	0.550842	-8.75854e-06
3655.68	0.001953125	0.00591431
3656.54	0.550873	-1.32446e-05
3657.44	0.550964	-1.08643e-05
3658.34	0.548462	0.0149323
3659.18	0.550385	-9.00269e-06
3660.08	0.549377	7.32422e-07
3660.98	0.55072	0.000625305
3661.82	0.55072	-1.12305e-05
3662.72	0.550201	-1.08643e-05
3663.62	0.550354	7.8125E-05
3664.46	0.549286	-7.01904e-07
3665.36	0.549683	-3.08228e-06
3666.26	0.55069	1.72119e-05
3667.1	0.549225	-1.28174e-06
3668	0.54953	-1.37329e-06
3668.9	0.549744	1.171875E-05
3669.74	0.550293	-9.30786e-06
3670.64	0.551056	-1.21765e-05
3671.54	0.549988	6.10352e-08
3672.38	0.549377	-1.98364e-06
3673.28	0.550781	-1.19324e-05
3674.18	0.549194	7.23267e-06
3675.04	-0.696899	-0.0219666
3675.92	0.549408	-4.57764e-06
3676.82	0.549622	1.98364e-06
3677.68	-0.697968	-0.0143921
3678.56	0.549591	-3.05176e-06
3679.46	0.550903	-8.45337e-06
3680.34	0.00114136	0.0101318
3681.2	0.550232	-7.53784e-06
3682.1	0.550018	-2.0752e-06
3682.98	0.00195923	0.00590668
3683.84	0.549622	-4.88281e-06
3684.74	0.549652	-5.37109e-06
3685.64	0.550385	0.0150024
3686.48	0.549347	-2.7771e-06
3687.38	0.550049	-5.06592e-06
3688.28	0.549744	0.00066803
3689.12	0.550385	-8.27026e-06
3690.02	0.55069	-1.02539e-05
3690.92	0.549194	9.12781e-05
3691.76	0.549835	-5.06592e-06
3692.66	0.549225	1.98364e-06
3693.56	0.550751	1.86768e-05
3694.4	0.549835	-5.27954e-06
3695.3	0.550018	-5.49316e-06
3696.2	0.549591	1.18408e-05
3697.04	0.550293	-1.20239e-05
3697.94	0.550446	-8.11768e-06
3698.84	0.550629	2.83813e-06
3699.68	0.55072	-1.30615e-05
3700.58	0.550812	-8.27026e-06
3701.48	0.550842	-4.97437e-06
3702.34	-0.696625	-0.0220123
3703.22	0.550751	-1.19934e-05
3704.12	0.550934	-7.62939e-06
3704.98	-0.698639	-0.0144562
3705.86	0.549652	-3.2959e-06
3706.76	0.550568	-9.8877e-06
3707.64	0.00121765	0.0101044
3708.5	0.549988	-4.36401e-06
3709.4	0.550293	-4.73022e-06
3710.28	0.00193481	0.00590546
3711.14	0.549622	-2.04468e-06
3712.04	0.550781	-9.46045e-06
3712.94	0.549988	0.0150665
3713.78	0.54953	-2.47192e-06
3714.68	0.549377	-4.88281e-07
3715.58	0.549408	0.000710144
3716.42	0.549652	-3.23486e-06
3717.32	0.550049	-3.90625e-06
3718.22	0.550232	9.14612e-05
3719.06	0.551056	-1.33972e-05
3719.96	0.549133	1.95313e-06
3720.86	0.550751	1.63269e-05
3721.7	0.550812	-1.44348e-05
3722.6	0.549316	5.79834e-07
3723.5	0.550079	7.90405e-06
3724.34	0.550781	-1.23291e-05
3725.24	0.550934	-1.38245e-05
3726.14	0.549744	7.08008e-06
3726.98	0.550934	-1.48621e-05
3727.88	0.549866	-2.99072e-06
3728.78	0.551025	-6.50024e-06
3729.64	-0.697693	-0.0220673
3730.52	0.550018	-6.16455e-06
3731.42	0.551056	-9.42993e-06
3732.28	-0.697449	-0.0145325
3733.16	0.5495	-1.77002e-06
3734.06	0.550812	-9.3689e-06
3734.94	0.0012146	0.0100525
3735.8	0.550293	-8.45337e-06
3736.7	0.549805	-5.00488e-06
3737.58	0.000341797	0.00590759
3738.44	0.549957	-5.37109e-06
3739.34	0.550537	-7.56836e-06
3740.24	0.550018	0.0151245
3741.08	0.550079	-8.45337e-06
3741.98	0.549194	2.22778e-06
3742.88	0.549988	0.000745544
3743.72	0.550598	-9.552e-06
3744.62	0.550903	-1.10779e-05
3745.52	0.550873	9.26208e-05
3746.36	0.550629	-8.91113e-06
3747.26	0.549347	-2.89917e-06
3748.16	0.549408	2.89001e-05
3749	0.551025	-1.31836e-05
3749.9	0.5495	-1.86157e-06
3750.8	0.549255	1.58081e-05
3751.64	0.549866	-7.14111e-06
3752.54	0.549286	-3.20435e-06
3753.44	0.551056	-2.59399e-06
3754.28	0.549377	-1.70898e-06
3755.18	0.550781	-1.15356e-05
3756.08	0.550171	1.28174e-06
3756.94	-0.697235	-0.0221466
3757.82	0.551025	-1.26343e-05
3758.72	0.549683	8.54492e-07
3759.58	-0.698242	-0.014624
3760.46	0.549347	-1.09863e-06
3761.36	0.549103	4.11987e-06
3762.24	-0.000183105	0.0100189
3763.1	0.550354	-9.30786e-06
3764	0.5495	-1.09863e-06
3764.88	0.000863647	0.00590302
3765.74	0.550293	-7.90405e-06
3766.64	0.550629	-9.15527e-06
3767.54	0.5495	0.0152008
3768.38	0.549377	-1.89209e-06
3769.28	0.549377	-2.44141e-07
3770.18	0.550598	0.000787964
3771.02	0.549194	-1.52588e-07
3771.92	0.550995	-1.2207e-05
3772.82	0.550812	9.71375e-05
3773.66	0.550537	-1.08337e-05
3774.56	0.550385	-4.76074e-06
3775.46	0.550812	2.13928e-05
3776.3	0.550781	-1.24207e-05
3777.2	0.549988	-7.20215e-06
3778.1	0.55014	1.08948e-05
3778.94	0.549316	3.05176e-08
3779.84	0.549408	-7.62939e-07
3780.74	0.549225	9.3689e-06
3781.58	0.551147	-1.31836e-05
3782.48	0.549835	-2.53296e-06
3783.38	0.55072	-4.88281e-06
3784.24	-0.697998	-0.0221924
3785.12	0.549591	-3.78418e-06
3786.02	0.549744	-1.77002e-06
3786.88	-0.698029	-0.0146942
3787.76	0.549408	-4.21143e-06
3788.66	0.549866	-1.12915e-06
3789.54	0.000131226	0.0099823
3790.4	0.551056	-1.40991e-05
3791.3	0.549286	2.10571e-06
3792.18	0.00205994	0.00588898
3793.04	0.551025	-1.43738e-05
3793.94	0.550995	-1.13525e-05
3794.84	0.550293	0.0152557
3795.68	0.549408	-4.15039e-06
3796.58	0.549896	-6.83594e-06
3797.48	0.550781	0.000829163
3798.32	0.550537	-9.09424e-06
3799.22	0.550201	-4.60815e-06
3800.12	0.551056	0.000102112
3800.96	0.550018	-6.56128e-06
3801.86	0.549774	-2.50244e-06
3802.76	0.550781	2.11182e-05
3803.6	0.5495	-5.79834e-07
3804.5	0.550629	-1.21765e-05
3805.4	0.549255	1.66626e-05
3806.24	0.550995	-1.35498e-05
3807.14	0.549561	-3.41797e-06
3808.04	0.550903	-2.10571e-06
3808.88	0.550995	-1.43738e-05
3809.78	0.550751	-1.12305e-05
3810.68	0.549591	3.96729e-06
3811.54	-0.69693	-0.0222321
3812.42	0.550079	-5.76782e-06
3813.32	0.5495	-6.10352e-07
3814.18	-0.698517	-0.0147522
3815.06	0.550568	-1.01929e-05
3815.96	0.550018	-3.02124e-06
3816.84	0.00166321	0.00992737
3817.7	0.550385	-1.09558e-05
3818.6	0.549255	1.5564e-06
3819.48	0.00199585	0.0058783
3820.34	0.550659	-1.2085e-05
3821.24	0.549805	-4.79126e-06
3822.14	0.548676	0.0153259
3822.98	0.549408	-2.96021e-06
3823.88	0.55069	-9.24683e-06
3824.78	0.55011	0.000882874
3825.62	0.549927	-3.54004e-06
3826.52	0.549805	-4.11987e-06
3827.42	0.55011	0.000118958
3828.26	0.550293	-1.09863e-05
3829.16	0.550018	-4.24194e-06
3830.06	0.551056	2.21558e-05
3830.9	0.5495	-2.22778e-06
3831.8	0.551239	-1.24207e-05
3832.7	0.550934	5.46265e-06
3833.54	0.5495	-4.05884e-06
3834.44	0.549255	-9.15527e-07
3835.34	0.551025	-2.22778e-06
3836.18	0.54953	-7.20215e-06
3837.08	0.551086	-1.45569e-05
3837.98	0.551025	-6.22559e-06
3838.84	-0.697998	-0.02229
3839.72	0.549408	-3.11279e-06
3840.62	0.549438	2.2583e-06
3841.48	-0.698395	-0.0148224
3842.36	0.549286	-1.83105e-07
3843.26	0.55072	-8.60596e-06
3844.14	0.000720215	0.00990295
3845	0.551086	-1.39465e-05
3845.9	0.549316	5.18799e-07
3846.78	0.00215454	0.005867
3847.64	0.549805	-5.70679e-06
3848.54	0.549194	2.19727e-06
3849.44	0.550385	0.0153778
3850.28	0.549408	-3.32642e-06
3851.18	0.550598	-7.41577e-06
3852.08	0.549438	0.000939331
3852.92	0.549347	-1.09863e-06
3853.82	0.549347	-9.76562e-07
3854.72	0.550262	0.000124542
3855.56	0.549347	-1.09863e-06
3856.46	0.550079	-6.5918e-06
3857.36	0.550476	2.45056e-05
3858.2	0.55011	-7.65991e-06
3859.1	0.549835	-1.61743e-06
3860	0.549377	1.84326e-05
3860.84	0.550598	-1.17798e-05
3861.74	0.549286	-6.10352e-07
3862.64	0.551086	-2.47192e-06
3863.48	0.549652	-1.49536e-06
3864.38	0.550598	-1.12e-05
3865.28	0.550293	1.58691e-06
3866.14	-0.697296	-0.022348
3867.02	0.549316	-1.98364e-06
3867.92	0.550171	-1.06812e-06
3868.78	-0.698456	-0.0148926
3869.66	0.550049	-1.08948e-05
3870.56	0.550537	-5.52368e-06
3871.44	0.00141296	0.00984192
3872.3	0.549347	-1.37329e-06
3873.2	0.549561	1.46484e-06
3874.08	0.00156555	0.00586243
3874.94	0.549622	-2.86865e-06
3875.84	0.5495	-6.10352e-08
3876.74	0.549438	0.0154602
3877.58	0.550995	-1.40991e-05
3878.48	0.551117	-1.3855e-05
3879.38	0.549194	0.000991516
3880.22	0.550781	-1.37329e-05
3881.12	0.549286	1.89209e-06
3882.02	0.550659	0.000126282
3882.86	0.551086	-1.60828e-05
3883.76	0.551025	-1.13831e-05
3884.66	0.549225	3.92761e-05
3885.5	0.551117	-1.5625e-05
3886.4	0.55072	-1.0376e-05
3887.3	0.550964	4.45557e-06
3888.14	0.549469	-4.21143e-06
3889.04	0.549683	-4.21143e-06
3889.94	0.550964	-1.92261e-06
3890.78	0.549591	-5.21851e-06
3891.68	0.551147	-1.48926e-05
3892.58	0.549683	4.08936e-06
3893.44	-0.696472	-0.0224213
3894.32	0.549683	-4.54712e-06
3895.22	0.549927	1.80054e-06
3896.08	-0.697113	-0.0149841
3896.96	0.550873	-1.22681e-05
3897.86	0.550751	-8.78906e-06
3898.74	0.00177612	0.00980835
3899.6	0.55011	-6.68335e-06
3900.5	0.550385	-3.20435e-06
3901.38	0.0019104	0.00584656
3902.24	0.549286	-7.62939e-07
3903.14	0.550446	-6.34766e-06
3904.04	0.548584	0.0155121
3904.88	0.550018	-3.11279e-06
3905.78	0.550995	-1.02539e-05
3906.68	0.549286	0.00104401
3907.52	0.549469	-4.30298e-06
3908.42	0.550903	-1.04675e-05
3909.32	0.549194	0.000142761
3910.16	0.549927	-5.43213e-06
3911.06	0.550476	-9.73511e-06
3911.96	0.549408	3.72314e-05
3912.8	0.549286	-2.86865e-06
3913.7	0.549316	1.7395e-06
3914.6	0.550232	1.25427e-05
3915.44	0.550629	-1.18103e-05
3916.34	0.551239	-1.30615e-05
3917.24	0.550934	-7.62939e-07
3918.08	0.550354	-9.30786e-06
3918.98	0.549438	-1.25122e-06
3919.88	0.549438	5.21851e-06
3920.74	-0.696594	-0.0224731
3921.62	0.550079	-7.84302e-06
3922.52	0.550995	-8.42285e-06
3923.38	-0.69693	-0.0150726
3924.26	0.550995	-1.30005e-05
3925.16	0.551025	-9.46045e-06
3926.04	0.00161133	0.00975952
3926.9	0.550903	-1.24207e-05
3927.8	0.550079	-1.2207e-06
3928.68	0.000213623	0.00584869
3929.54	0.550201	-5.98145e-06
3930.44	0.550964	-9.91821e-06
3931.34	0.549713	0.0155457
3932.18	0.551056	-1.36108e-05
3933.08	0.550537	-9.21631e-06
3933.98	0.550568	0.00109375
3934.82	0.550201	-7.26318e-06
3935.72	0.549377	-9.76562e-07
3936.62	0.550262	0.000144196
3937.46	0.551086	-1.61743e-05
3938.36	0.549683	-3.32642e-06
3939.26	0.550629	2.88696e-05
3940.1	0.549438	-4.18091e-06
3941	0.549774	-2.74658e-06
3941.9	0.551208	1.52588e-06
3942.74	0.549255	-7.32422e-07
3943.64	0.549896	-4.42505e-06
3944.54	0.549103	1.15662e-05
3945.38	0.549377	-1.83105e-06
3946.28	0.550568	-9.30786e-06
3947.18	0.5495	6.71387e-06
3948.04	-0.69754	-0.0225311
3948.92	0.549347	-1.12915e-06
3949.82	0.551025	-8.78906e-06
3950.68	-0.697479	-0.0151428
3951.56	0.549286	-2.13623e-07
3952.46	0.551025	-9.82666e-06
3953.34	0.000973511	0.00971375
3954.2	0.549286	6.71387e-07
3955.1	0.551117	-1.0498e-05
3955.98	0.000982666	0.00582977
3956.84	0.549713	-2.41089e-06
3957.74	0.550781	-1.06506e-05
3958.64	0.549988	0.0156036
3959.48	0.550446	-8.05664e-06
3960.38	0.549744	-2.83813e-06
3961.28	0.551056	0.00114502
3962.12	0.549591	-2.19727e-06
3963.02	0.549957	-3.87573e-06
3963.92	0.549683	0.000157227
3964.76	0.549866	-1.92261e-06
3965.66	0.550781	-9.3689e-06
3966.56	0.549347	4.13818e-05
3967.4	0.551239	-1.25427e-05
3968.3	0.550262	-6.68335e-06
3969.2	0.549255	1.58386e-05
3970.04	0.550629	-9.12476e-06
3970.94	0.549805	-4.27246e-06
3971.84	0.549438	8.05664e-06
3972.68	0.549133	-1.52588e-06
3973.58	0.550659	-1.04675e-05
3974.48	0.550232	-8.23975e-07
3975.34	-0.696228	-0.0225861
3976.22	0.550964	-1.26343e-05
3977.12	0.551025	-8.08716e-06
3977.98	-0.69696	-0.0152039
3978.86	0.549561	-4.24194e-06
3979.76	0.549896	-8.54492e-07
3980.64	0.00166016	0.00967102
3981.5	0.549347	-2.01416e-06
3982.4	0.549683	-1.67847e-06
3983.28	0.00196533	0.00581329
3984.14	0.550049	-5.67627e-06
3985.04	0.551025	-1.12305e-05
3985.94	0.550323	0.0156586
3986.78	0.551086	-1.34888e-05
3987.68	0.550598	-8.42285e-06
3988.58	0.550476	0.00120697
3989.42	0.55069	-1.06812e-05
3990.32	0.549469	-5.79834e-07
3991.22	0.550507	0.000161407
3992.06	0.550385	-8.78906e-06
3992.96	0.549255	-4.88281e-07
3993.86	0.549255	4.35181e-05
3994.7	0.549347	-3.05176e-07
3995.6	0.550812	-1.21765e-05
3996.5	0.551056	5.21851e-06
3997.34	0.549652	-2.10571e-06
3998.24	0.549896	-6.56128e-06
3999.14	0.550964	1.89209e-06
3999.98	0.550873	-1.03455e-05
4000.88	0.549377	-2.01416e-06
4001.78	0.55072	-6.073e-06
4002.64	-0.696655	-0.0226196
4003.52	0.550049	-6.073e-06
4004.42	0.549652	3.05176e-08
4005.28	-0.696777	-0.015274
4006.16	0.550781	-1.37329e-05
4007.06	0.550934	-9.49097e-06
4007.94	0.00062561	0.00963135
4008.8	0.551056	-1.49841e-05
4009.7	0.550354	-6.28662e-06
4010.58	0.000872803	0.00580597
4011.44	0.551056	-1.33057e-05
4012.34	0.549988	-6.37817e-06
4013.24	0.550415	0.0157043
4014.08	0.549225	7.01904e-07
4014.98	0.550171	-7.62939e-06
4015.88	0.550018	0.00127625
4016.72	0.549408	-5.85937e-06
4017.62	0.551086	-1.22375e-05
4018.52	0.551025	0.000164337
4019.36	0.5495	-3.84521e-06
4020.26	0.550293	-6.62231e-06
4021.16	0.550415	3.80249e-05
4022	0.55069	-1.06812e-05
4022.9	0.549286	9.15527e-08
4023.8	0.549438	1.83105e-05
4024.64	0.550354	-7.90405e-06
4025.54	0.549377	1.09863e-06
4026.44	0.550964	-4.57764e-07
4027.28	0.550262	-8.94165e-06
4028.18	0.550781	-1.36108e-05
4029.08	0.550568	-2.68555e-06
4029.94	-0.69754	-0.0226685
4030.82	0.54953	-1.70898e-06
4031.72	0.551086	-7.32422e-06
4032.58	-0.697235	-0.0153595
4033.46	0.55011	-7.01904e-06
4034.36	0.551117	-1.09253e-05
4035.24	0.000231934	0.00959167
4036.1	0.549255	-1.0376e-06
4037	0.549286	7.62939e-07
4037.88	0.000543213	0.00579376
4038.74	0.550873	-1.19934e-05
4039.64	0.549286	2.47192e-06
4040.54	0.548676	0.0157593
4041.38	0.54953	-3.23486e-06
4042.28	0.549652	-2.31934e-06
4043.18	0.549286	0.00135132
4044.02	0.551147	-1.48926e-05
4044.92	0.550812	-9.82666e-06
4045.82	0.549835	0.000183624
4046.66	0.550842	-1.12e-05
4047.56	0.549744	-3.479e-06
4048.46	0.549316	5.00488e-05
4049.3	0.549927	-5.09644e-06
4050.2	0.551086	-1.32446e-05
4051.1	0.550903	7.41577e-06
4051.94	0.551086	-1.36108e-05
4052.84	0.551117	-1.4679e-05
4053.74	0.549561	8.97217e-06
4054.58	0.549347	-1.00708e-06
4055.48	0.549255	-1.28174e-06
4056.38	0.549194	5.12695e-06
4057.24	-0.696564	-0.0227234
4058.12	0.549316	-1.09863e-06
4059.02	0.551117	-7.65991e-06
4059.88	-0.69812	-0.0154175
4060.76	0.550171	-8.60596e-06
4061.66	0.550903	-8.63647e-06
4062.54	0.00121765	0.00955505
4063.4	0.550629	-9.33838e-06
4064.3	0.549438	1.28174e-06
4065.18	0.000311279	0.00578674
4066.04	0.549225	-2.13623e-06
4066.94	0.551025	-1.0437e-05
4067.84	0.549957	0.0158081
4068.68	0.54953	-2.2583e-06
4069.58	0.550659	-1.13525e-05
4070.48	0.551056	0.00141052
4071.32	0.549805	-5.34058e-06
4072.22	0.550964	-1.19019e-05
4073.12	0.551056	0.000184753
4073.96	0.550903	-1.33972e-05
4074.86	0.54953	-2.80762e-06
4075.76	0.550476	4.67224e-05
4076.6	0.549561	-6.16455e-06
4077.5	0.549652	-4.24194e-06
4078.4	0.551117	7.23267e-06
4079.24	0.55072	-1.29089e-05
4080.14	0.55069	-1.11694e-05
4081.04	0.551086	-1.52588e-07
4081.88	0.549469	-3.38745e-06
4082.78	0.551025	-1.2085e-05
4083.68	0.550659	-1.61743e-06
4084.54	-0.697052	-0.0227753
4085.42	0.549316	-1.31226e-06
4086.32	0.549255	7.50732e-06
4087.18	-0.696808	-0.0154938
4088.06	0.54953	-2.50244e-06
4088.96	0.550934	-7.69043e-06
4089.84	0.000442505	0.00951233
4090.7	0.549255	-1.52588e-06
4091.6	0.549652	4.88281e-07
4092.48	0.00142822	0.00576202
4093.34	0.551147	-1.58997e-05
4094.24	0.549316	2.83813e-06
4095.14	0.55011	0.0158569
4095.98	0.550995	-1.37329e-05
4096.88	0.551178	-1.18103e-05
4097.78	0.549835	0.00149933
4098.62	0.550995	-1.44958e-05
4099.52	0.549438	-2.44141e-07
4100.42	0.549164	0.00020816
4101.26	0.549744	-4.5166e-06
4102.16	0.550934	-1.18713e-05
4103.06	0.549316	5.4718e-05
4103.9	0.549561	-1.5564e-06
4104.8	0.550232	-9.27734e-06
4105.7	0.550171	1.45874e-05
4106.54	0.550201	-9.21631e-06
4107.44	0.549683	-2.13623e-06
4108.34	0.551056	-1.49536e-06
4109.18	0.549316	-1.98364e-06
4110.08	0.549927	-6.5918e-06
4110.98	0.550415	3.38745e-06
4111.84	-0.696228	-0.0228302
4112.72	0.550934	-1.3031e-05
4113.62	0.549286	4.57764e-06
4114.48	-0.696838	-0.015564
4115.36	0.550476	-1.30005e-05
4116.26	0.551086	-7.84302e-06
4117.14	0.00158386	0.0094574
4118	0.549316	-6.71387e-07
4118.9	0.549652	-2.04468e-06
4119.78	0.00196533	0.00574768
4120.64	0.55014	-6.10352e-06
4121.54	0.550385	-5.7373e-06
4122.44	0.548798	0.0159119
4123.28	0.55069	-1.17493e-05
4124.18	0.549347	2.74658e-07
4125.08	0.551025	0.00157349
4125.92	0.551178	-1.42212e-05
4126.82	0.549347	5.18799e-07
4127.72	0.550995	0.000205688
4128.56	0.549377	-1.70898e-06
4128.7	0.550751	-1.38245e-05