File: Edgar/20240517/20240517/electrodeposition_pulsed_potential_20240517_A/pulses_5000_to_6000.txt
Time (s)	WE(1).Potential (V)	WE(1).Current (A)
6799.47	-0.697754	-0.0248291
6800.35	0.549988	-4.18091e-06
6801.25	0.550446	4.93469e-05
6802.11	-0.698151	-0.0190643
6802.99	0.549713	-3.75366e-06
6803.89	0.551208	2.16675e-05
6804.77	0.000628662	0.00635864
6805.63	0.549683	-5.18799e-06
6806.53	0.549774	1.5564e-05
6807.41	0.00212402	0.00414612
6808.27	0.550903	-1.15051e-05
6809.17	0.550934	4.88281e-07
6810.07	0.548645	0.0172333
6810.91	0.550964	-1.23596e-05
6811.81	0.550232	6.40869e-07
6812.71	0.550598	0.0110474
6813.55	0.550568	-9.67407e-06
6814.45	0.549683	1.09863e-06
6815.35	0.550659	0.00188324
6816.19	0.550934	-1.25427e-05
6817.09	0.550079	-3.60107e-06
6817.99	0.549255	0.000675049
6818.83	0.551208	-1.39465e-05
6819.73	0.550751	-8.30078e-06
6820.63	0.549744	0.000322357
6821.47	0.550995	-1.25122e-05
6822.37	0.549774	-1.12915e-06
6823.27	0.550293	0.000167206
6824.11	0.550964	-1.38245e-05
6825.01	0.550842	-1.08948e-05
6825.91	0.550598	9.04846e-05
6826.77	-0.697845	-0.0248169
6827.65	0.549255	-6.40869e-07
6828.55	0.550659	4.74548e-05
6829.41	-0.698151	-0.0190521
6830.29	0.55069	-9.64355e-06
6831.19	0.550293	2.65503e-05
6832.07	0.00130615	0.00636017
6832.93	0.549866	-2.68555e-06
6833.83	0.550262	1.37939e-05
6834.71	0.00104065	0.00417267
6835.57	0.549377	-4.57764e-07
6836.47	0.55014	4.57764e-06
6837.37	0.549835	0.0172577
6838.21	0.550079	-9.85718e-06
6839.11	0.550751	-1.0376e-06
6840.01	0.550323	0.0111145
6840.85	0.54953	-2.80762e-06
6841.75	0.551086	-6.7749e-06
6842.65	0.549866	0.00192871
6843.49	0.549377	-1.61743e-06
6844.39	0.549957	-1.83105e-07
6845.29	0.549652	0.000682068
6846.13	0.550354	-1.02844e-05
6847.03	0.549896	-4.60815e-06
6847.93	0.550903	0.000318848
6848.77	0.549194	-2.34985e-06
6849.67	0.549408	8.8501e-07
6850.57	0.54953	0.000177307
6851.41	0.550659	-1.10168e-05
6852.31	0.550262	-4.76074e-06
6853.21	0.550934	9.05457e-05
6854.07	-0.697632	-0.0248413
6854.95	0.549469	2.13623e-07
6855.85	0.549225	5.87463e-05
6856.71	-0.697296	-0.0190704
6857.59	0.549194	1.83105e-07
6858.49	0.550842	2.37427e-05
6859.37	0.00149536	0.00635529
6860.23	0.551056	-1.35193e-05
6861.13	0.551056	8.69751e-06
6862.01	0.00108032	0.00417206
6862.87	0.551025	-1.35803e-05
6863.77	0.550812	2.47192e-06
6864.67	0.549103	0.017276
6865.51	0.549469	-1.5564e-06
6866.41	0.549286	9.12476e-06
6867.31	0.549103	0.0111481
6868.15	0.550079	-2.99072e-06
6869.05	0.549377	3.60107e-06
6869.95	0.550964	0.00194763
6870.79	0.549835	-5.76782e-06
6871.69	0.551025	-9.3689e-06
6872.59	0.549194	0.000691833
6873.43	0.550354	-8.72803e-06
6874.33	0.550873	-8.36182e-06
6875.23	0.5495	0.000333618
6876.07	0.550171	-6.7749e-06
6876.97	0.549255	6.10352e-07
6877.87	0.549805	0.000177582
6878.71	0.549744	-2.89917e-06
6879.61	0.550018	-5.18799e-06
6880.51	0.550171	9.42383e-05
6881.37	-0.696136	-0.0248474
6882.25	0.550293	-6.19507e-06
6883.15	0.550781	5.07202e-05
6884.01	-0.69632	-0.0190918
6884.89	0.549408	-1.12915e-06
6885.79	0.549316	3.51562e-05
6886.67	0.00172729	0.00633301
6887.53	0.550934	-8.97217e-06
6888.43	0.549377	1.96533e-05
6889.31	0.00169678	0.00416168
6890.17	0.550201	-8.72803e-06
6891.07	0.549286	1.16272e-05
6891.97	0.55011	0.0172913
6892.81	0.549347	-5.79834e-07
6893.71	0.550964	-3.479e-06
6894.61	0.550537	0.0111664
6895.45	0.550659	-1.06812e-05
6896.35	0.551025	-7.59888e-06
6897.25	0.549286	0.00198151
6898.09	0.549683	-7.32422e-06
6898.99	0.549713	7.01904e-07
6899.89	0.549652	0.000697632
6900.73	0.55069	-1.06201e-05
6901.63	0.550507	-7.17163e-06
6902.53	0.549896	0.000337585
6903.37	0.549683	-4.73022e-06
6904.27	0.549316	-3.05176e-08
6905.17	0.550842	0.000172058
6906.01	0.550049	-5.21851e-06
6906.91	0.550842	-9.61304e-06
6907.81	0.549561	0.00010141
6908.67	-0.697266	-0.0248444
6909.55	0.550751	-9.91821e-06
6910.45	0.549988	5.36499e-05
6911.31	-0.696472	-0.0191071
6912.19	0.549316	-1.2207e-07
6913.09	0.550873	2.74658e-05
6913.97	0.0003479	0.00632294
6914.83	0.550934	-9.552e-06
6915.73	0.549896	1.58691e-05
6916.61	0.000268555	0.00416016
6917.47	0.549713	-4.57764e-06
6918.37	0.550171	6.40869e-06
6919.27	0.548492	0.0172913
6920.11	0.550415	-8.11768e-06
6921.01	0.550751	-3.35693e-06
6921.91	0.548767	0.0112061
6922.75	0.549377	-9.15527e-07
6923.65	0.550262	-3.05176e-08
6924.55	0.549286	0.0020047
6925.39	0.549408	-3.35693e-06
6926.29	0.550293	-3.72314e-06
6927.19	0.55069	0.000696106
6928.03	0.550842	-1.00708e-05
6928.93	0.550385	-5.31006e-06
6929.83	0.550781	0.000330811
6930.67	0.549805	-6.04248e-06
6931.57	0.551056	-1.10168e-05
6932.47	0.549683	0.000183075
6933.31	0.549377	-1.00708e-06
6934.21	0.551025	-9.49097e-06
6935.11	0.549316	0.000105438
6935.97	-0.69751	-0.0248444
6936.85	0.549408	9.15527e-08
6937.75	0.551056	5.02319e-05
6938.61	-0.696625	-0.0191162
6939.49	0.551056	-1.297e-05
6940.39	0.551147	2.45056e-05
6941.27	0.000375366	0.00630432
6942.13	0.549927	-4.08936e-06
6943.03	0.549652	1.98059e-05
6943.91	0.000262451	0.00414764
6944.77	0.550385	-7.59888e-06
6945.67	0.549316	1.3092e-05
6946.57	0.548523	0.0172943
6947.41	0.549347	-9.46045e-07
6948.31	0.550537	3.66211e-07
6949.21	0.54892	0.0112335
6950.05	0.550812	-1.01013e-05
6950.95	0.549957	-2.38037e-06
6951.85	0.549255	0.00202911
6952.69	0.550476	-8.57544e-06
6953.59	0.549316	3.05176e-06
6954.49	0.549957	0.000709534
6955.33	0.550934	-1.17493e-05
6956.23	0.549377	1.89209e-06
6957.13	0.550995	0.000334259
6957.97	0.550934	-1.29089e-05
6958.87	0.549866	-1.52588e-06
6959.77	0.549713	0.000187897
6960.61	0.550964	-1.26648e-05
6961.51	0.5495	1.19019e-06
6962.41	0.550934	9.50623e-05
6963.27	-0.696594	-0.0248474
6964.15	0.550842	-1.12e-05
6965.05	0.550262	5.51147e-05
6965.91	-0.697723	-0.0191193
6966.79	0.549438	2.74658e-07
6967.69	0.551025	2.53601e-05
6968.57	0.000527954	0.00627655
6969.43	0.54953	-9.15527e-07
6970.33	0.550751	1.1261e-05
6971.21	0.000204468	0.00413177
6972.07	0.549347	-3.14331e-06
6972.97	0.549561	1.01929e-05
6973.87	0.549805	0.0172882
6974.71	0.551086	-1.19019e-05
6975.61	0.549316	8.14819e-06
6976.51	0.550171	0.0112549
6977.35	0.549377	-6.40869e-07
6978.25	0.549194	6.65283e-06
6979.15	0.550995	0.00204132
6979.99	0.550537	-1.10474e-05
6980.89	0.550934	-8.45337e-06
6981.79	0.550964	0.000709534
6982.63	0.550232	-6.62231e-06
6983.53	0.549835	-1.7395e-06
6984.43	0.549316	0.000349884
6985.27	0.549805	-5.52368e-06
6986.17	0.549835	-3.38745e-06
6987.07	0.550415	0.000183533
6987.91	0.549469	-2.04468e-06
6988.81	0.549286	-6.10352e-08
6989.71	0.550629	9.8053e-05
6990.57	-0.697449	-0.0248474
6991.45	0.551086	-1.19019e-05
6992.35	0.550354	5.53284e-05
6993.21	-0.696686	-0.0191498
6994.09	0.549744	-2.86865e-06
6994.99	0.550537	3.11279e-05
6995.87	0.00103149	0.00625702
6996.73	0.550934	-1.19324e-05
6997.63	0.549377	2.22168e-05
6998.51	0.000491333	0.0041217
6999.37	0.549377	-9.46045e-07
7000.27	0.549683	1.1322e-05
7001.17	0.549835	0.0172852
7002.01	0.550262	-7.56836e-06
7002.91	0.549835	4.15039e-06
7003.81	0.550354	0.0112732
7004.65	0.550964	-1.29089e-05
7005.55	0.550873	-8.20923e-06
7006.45	0.549286	0.0020755
7007.29	0.550934	-1.32446e-05
7008.19	0.550903	-7.84302e-06
7009.09	0.550659	0.000718994
7009.93	0.550598	-1.02844e-05
7010.83	0.549377	1.2207e-06
7011.73	0.549194	0.000352783
7012.57	0.550995	-1.33667e-05
7013.47	0.550995	-1.1261e-05
7014.37	0.551056	0.000180054
7015.21	0.5495	-2.83813e-06
7016.11	0.549622	-1.0376e-06
7017.01	0.550537	0.000100677
7017.87	-0.69754	-0.0248138
7018.75	0.549896	-2.71606e-06
7019.65	0.549286	6.40259e-05
7020.51	-0.697479	-0.0191376
7021.39	0.549286	1.83105e-07
7022.29	0.55014	3.00293e-05
7023.17	0.000186157	0.00626709
7024.03	0.551147	-1.1322e-05
7024.93	0.551025	1.05591e-05
7025.81	0.00101929	0.00411713
7026.67	0.55072	-1.14441e-05
7027.57	0.549774	1.03455e-05
7028.47	0.550262	0.0173096
7029.31	0.550201	-5.40161e-06
7030.21	0.551056	-2.41089e-06
7031.11	0.54892	0.0112579
7031.95	0.549316	-8.8501e-07
7032.85	0.549286	4.54712e-06
7033.75	0.54953	0.00202667
7034.59	0.551086	-1.30005e-05
7035.49	0.550018	-2.50244e-06
7036.39	0.550323	0.000715027
7037.23	0.549744	-5.15747e-06
7038.13	0.550568	-7.08008e-06
7039.03	0.55072	0.000342712
7039.87	0.54953	-3.66211e-06
7040.77	0.551117	-1.22375e-05
7041.67	0.549988	0.000186829
7042.51	0.550171	-3.479e-06
7043.41	0.549866	-2.65503e-06
7044.31	0.54953	0.000107727
7045.17	-0.697845	-0.0247864
7046.05	0.549438	-9.15527e-07
7046.95	0.551025	5.23682e-05
7047.81	-0.697693	-0.0191193
7048.69	0.550568	-7.26318e-06
7049.59	0.550415	3.15857e-05
7050.47	0.000106812	0.00627716
7051.33	0.550659	-9.0332e-06
7052.23	0.549347	2.30713e-05
7053.11	0.000357056	0.00412872
7053.97	0.549774	-3.63159e-06
7054.87	0.550018	9.73511e-06
7055.77	0.549927	0.0173065
7056.61	0.550659	-1.02234e-05
7057.51	0.551056	-4.30298e-06
7058.41	0.549744	0.0112671
7059.25	0.550995	-1.08643e-05
7060.15	0.550934	-7.01904e-06
7061.05	0.55014	0.00204529
7061.89	0.549408	-1.5564e-06
7062.79	0.550812	-8.11768e-06
7063.69	0.549194	0.00072998
7064.53	0.550903	-1.33362e-05
7065.43	0.549866	-4.85229e-06
7066.33	0.55011	0.000351807
7067.17	0.550873	-1.37939e-05
7068.07	0.550049	-5.34058e-06
7068.97	0.549927	0.000188812
7069.81	0.549957	-6.13403e-06
7070.71	0.55069	-9.52148e-06
7071.61	0.549561	0.000111359
7072.47	-0.697205	-0.024826
7073.35	0.549408	-1.12915e-06
7074.25	0.54953	6.44836e-05
7075.11	-0.697449	-0.0191528
7075.99	0.549438	-2.28882e-06
7076.89	0.550903	2.86865e-05
7077.77	0.000747681	0.00624817
7078.63	0.550537	-9.49097e-06
7079.53	0.550049	1.74561e-05
7080.41	0.000570679	0.00411133
7081.27	0.550751	-1.09558e-05
7082.17	0.549225	1.35803e-05
7083.07	0.549042	0.0173218
7083.91	0.550995	-1.52283e-05
7084.81	0.549713	5.46265e-06
7085.71	0.550323	0.0112793
7086.55	0.549835	-4.02832e-06
7087.45	0.550537	-4.45557e-06
7088.35	0.54953	0.00208496
7089.19	0.550537	-1.00708e-05
7090.09	0.549713	6.10352e-08
7090.99	0.549835	0.000736694
7091.83	0.54953	-2.28882e-06
7092.73	0.550385	-6.19507e-06
7093.63	0.549469	0.000361053
7094.47	0.549316	1.83105e-07
7095.37	0.549866	-2.71606e-06
7096.27	0.550934	0.000186432
7097.11	0.550385	-7.84302e-06
7098.01	0.550629	-1.03455e-05
7098.91	0.549286	0.000115265
7099.77	-0.697113	-0.0248291
7100.65	0.550629	-7.47681e-06
7101.55	0.550964	5.58777e-05
7102.41	-0.696472	-0.0191772
7103.29	0.549377	-1.7395e-06
7104.19	0.551056	2.81982e-05
7105.07	0.00151672	0.00621826
7105.93	0.550049	-6.46973e-06
7106.83	0.551025	1.06812e-05
7107.71	0.000408936	0.00409668
7108.57	0.549988	-7.01904e-06
7109.47	0.5495	1.34583e-05
7110.37	0.548859	0.0173218
7111.21	0.549835	-3.57056e-06
7112.11	0.549652	6.16455e-06
7113.01	0.55011	0.0113129
7113.85	0.549896	-6.37817e-06
7114.75	0.550934	-6.5918e-06
7115.65	0.550446	0.00209778
7116.49	0.550323	-9.15527e-06
7117.39	0.551178	-9.73511e-06
7118.29	0.549561	0.000746155
7119.13	0.54953	-5.40161e-06
7120.03	0.550476	-6.7749e-06
7120.93	0.549438	0.000365051
7121.77	0.550232	-8.54492e-06
7122.67	0.55011	-5.37109e-06
7123.57	0.550049	0.000197174
7124.41	0.549438	-1.86157e-06
7125.31	0.550964	-1.07117e-05
7126.21	0.551025	0.000104431
7127.07	-0.69693	-0.0248505
7127.95	0.551025	-1.22375e-05
7128.85	0.550659	5.82886e-05
7129.71	-0.696442	-0.0191986
7130.59	0.549896	-6.19507e-06
7131.49	0.549561	3.9856e-05
7132.37	0.00172729	0.00619995
7133.23	0.549622	-4.54712e-06
7134.13	0.549622	2.32849e-05
7135.01	0.00200806	0.0040741
7135.87	0.549622	-3.57056e-06
7136.77	0.549683	1.2146e-05
7137.67	0.549683	0.0173126
7138.51	0.55072	-1.17493e-05
7139.41	0.550323	3.05176e-06
7140.31	0.550476	0.0113281
7141.15	0.549408	-1.83105e-06
7142.05	0.551056	-5.31006e-06
7142.95	0.549377	0.00213501
7143.79	0.549927	-8.63647e-06
7144.69	0.549377	2.92969e-06
7145.59	0.550598	0.000745239
7146.43	0.549683	-3.23486e-06
7147.33	0.550934	-1.00098e-05
7148.23	0.549286	0.000370056
7149.07	0.550873	-1.28479e-05
7149.97	0.550537	-6.53076e-06
7150.87	0.550964	0.000191193
7151.71	0.550018	-5.0354e-06
7152.61	0.549469	-8.54492e-07
7153.51	0.550018	0.000111664
7154.37	-0.697662	-0.0248657
7155.25	0.550964	-1.23901e-05
7156.15	0.551056	5.66711e-05
7157.01	-0.697815	-0.0192047
7157.89	0.549835	-6.46973e-06
7158.79	0.550323	3.42102e-05
7159.67	0.000247192	0.00618805
7160.53	0.550842	-1.28784e-05
7161.43	0.549347	2.54517e-05
7162.31	0.00188904	0.00405823
7163.17	0.550598	-9.61304e-06
7164.07	0.550293	8.39233e-06
7164.97	0.549072	0.0173279
7165.81	0.550201	-6.53076e-06
7166.71	0.550323	2.92969e-06
7167.61	0.549347	0.0113495
7168.45	0.551056	-1.39771e-05
7169.35	0.550629	-5.34058e-06
7170.25	0.550873	0.00215271
7171.09	0.549744	-5.06592e-06
7171.99	0.55069	-7.59888e-06
7172.89	0.550171	0.000755005
7173.73	0.549561	-2.99072e-06
7174.63	0.549286	1.83105e-07
7175.53	0.549438	0.000373993
7176.37	0.550171	-9.3689e-06
7177.27	0.550751	-9.12476e-06
7178.17	0.549713	0.000203033
7179.01	0.550415	-7.87354e-06
7179.91	0.549591	-2.28882e-06
7180.81	0.549469	0.000115723
7181.67	-0.696381	-0.0248993
7182.55	0.550201	-4.39453e-06
7183.45	0.550629	6.41479e-05
7184.31	-0.698029	-0.0192352
7185.19	0.549347	-1.49536e-06
7186.09	0.549561	4.04968e-05
7186.97	0.00176697	0.00615295
7187.83	0.549591	-2.38037e-06
7188.73	0.550049	1.83105e-05
7189.61	0.00062561	0.00405151
7190.47	0.549683	-5.18799e-06
7191.37	0.550018	1.12305e-05
7192.27	0.54895	0.0173126
7193.11	0.549438	-1.64795e-06
7194.01	0.550995	-1.28174e-06
7194.91	0.548889	0.01138
7195.75	0.549927	-5.0354e-06
7196.65	0.55072	-2.92969e-06
7197.55	0.550873	0.00218658
7198.39	0.550751	-1.15662e-05
7199.29	0.551025	-7.47681e-06
7200.19	0.55014	0.000767517
7201.03	0.55011	-8.5144e-06
7201.93	0.551025	-9.3689e-06
7202.83	0.550568	0.000369446
7203.67	0.551025	-1.39771e-05
7204.57	0.550385	-4.88281e-06
7205.47	0.550812	0.000198212
7206.31	0.549652	-3.50952e-06
7207.21	0.550476	-8.94165e-06
7208.11	0.550629	0.000110718
7208.97	-0.696381	-0.0249146
7209.85	0.550598	-9.21631e-06
7210.75	0.54953	7.15637e-05
7211.61	-0.69812	-0.019281
7212.49	0.549561	-3.05176e-06
7213.39	0.549896	4.30908e-05
7214.27	0.00150146	0.00613251
7215.13	0.55072	-7.26318e-06
7216.03	0.549561	2.44141e-05
7216.91	0.000494385	0.00403778
7217.77	0.549957	-4.45557e-06
7218.67	0.550171	9.42993e-06
7219.57	0.548462	0.0173126
7220.41	0.549835	-4.85229e-06
7221.31	0.549377	8.91113e-06
7222.21	0.549164	0.0114014
7223.05	0.54953	-5.15747e-06
7223.95	0.550354	-1.15967e-06
7224.85	0.55072	0.00221802
7225.69	0.549591	-3.14331e-06
7226.59	0.549805	1.19019e-06
7227.49	0.549316	0.000783081
7228.33	0.549805	-6.22559e-06
7229.23	0.549347	1.89209e-06
7230.13	0.550964	0.00037204
7230.97	0.55072	-9.24683e-06
7231.87	0.549377	1.2207e-06
7232.77	0.549438	0.000209564
7233.61	0.550079	-6.89697e-06
7234.51	0.549561	-2.83813e-06
7235.41	0.549438	0.000119354
7236.27	-0.697601	-0.0249084
7237.15	0.551117	-1.22681e-05
7238.05	0.54953	7.25403e-05
7238.91	-0.69809	-0.0192841
7239.79	0.550049	-5.70679e-06
7240.69	0.549561	4.34875e-05
7241.57	0.00136414	0.00611176
7242.43	0.55011	-5.82886e-06
7243.33	0.550751	1.37939e-05
7244.21	0.00130005	0.00401917
7245.07	0.550018	-4.76074e-06
7245.97	0.550446	9.3689e-06
7246.87	0.549438	0.0173126
7247.71	0.549347	-1.95313e-06
7248.61	0.549377	1.02234e-05
7249.51	0.550537	0.0114136
7250.35	0.549408	-1.58691e-06
7251.25	0.550842	-2.83813e-06
7252.15	0.549683	0.00224457
7252.99	0.550659	-1.23291e-05
7253.89	0.55014	-2.92969e-06
7254.79	0.549835	0.000783997
7255.63	0.550812	-1.25427e-05
7256.53	0.549835	-1.77002e-06
7257.43	0.550262	0.000379272
7258.27	0.550537	-1.05591e-05
7259.17	0.550964	-1.02539e-05
7260.07	0.549347	0.000213715
7260.91	0.550568	-9.79614e-06
7261.81	0.549866	-2.62451e-06
7262.71	0.549744	0.000122009
7263.57	-0.697296	-0.0249268
7264.45	0.550323	-7.72095e-06
7265.35	0.549835	7.00684e-05
7266.21	-0.696533	-0.0192993
7267.09	0.549927	-5.34058e-06
7267.99	0.550537	3.61633e-05
7268.87	0.000216675	0.00609161
7269.73	0.549683	-3.72314e-06
7270.63	0.550323	2.16064e-05
7271.51	0.00155334	0.00399963
7272.37	0.550659	-1.13525e-05
7273.27	0.550629	7.56836e-06
7274.17	0.548523	0.0173309
7275.01	0.550873	-1.21155e-05
7275.91	0.549561	9.33838e-06
7276.81	0.549072	0.0114349
7277.65	0.550812	-1.27258e-05
7278.55	0.550934	-5.18799e-06
7279.45	0.550446	0.00226318
7280.29	0.551025	-1.32446e-05
7281.19	0.551025	-6.92749e-06
7282.09	0.549347	0.000795593
7282.93	0.550659	-1.16577e-05
7283.83	0.550964	-9.73511e-06
7284.73	0.550995	0.000379913
7285.57	0.54953	-2.0752e-06
7286.47	0.551025	-1.11389e-05
7287.37	0.550262	0.000210419
7288.21	0.550903	-1.26343e-05
7289.11	0.550964	-1.11084e-05
7290.01	0.5495	0.000124146
7290.87	-0.697388	-0.0249298
7291.75	0.549683	-2.01416e-06
7292.65	0.550751	6.57654e-05
7293.51	-0.69754	-0.0193115
7294.39	0.549866	-3.20435e-06
7295.29	0.550079	4.20227e-05
7296.17	0.00167236	0.00607056
7297.03	0.549377	-7.93457e-07
7297.93	0.550201	2.24609e-05
7298.81	0.00164795	0.00399078
7299.67	0.551086	-1.297e-05
7300.57	0.550903	6.80542e-06
7301.47	0.548492	0.0173157
7302.31	0.551056	-1.35193e-05
7303.21	0.550995	-7.01904e-07
7304.11	0.548889	0.0114563
7304.95	0.551086	-1.27869e-05
7305.85	0.55072	-2.65503e-06
7306.75	0.550812	0.00227875
7307.59	0.549896	-5.12695e-06
7308.49	0.549774	2.62451e-06
7309.39	0.549347	0.000801392
7310.23	0.549591	-3.8147e-06
7311.13	0.549408	2.34985e-06
7312.03	0.550995	0.000382965
7312.87	0.549774	-3.23486e-06
7313.77	0.550629	-7.56836e-06
7314.67	0.550507	0.000209106
7315.51	0.551086	-1.45874e-05
7316.41	0.550934	-1.01318e-05
7317.31	0.549316	0.000126068
7318.17	-0.697266	-0.0249268
7319.05	0.550476	-6.04248e-06
7319.95	0.550812	6.49414e-05
7320.81	-0.697418	-0.0193268
7321.69	0.55069	-9.70459e-06
7322.59	0.550629	3.70483e-05
7323.47	0.00176697	0.00605072
7324.33	0.550354	-7.53784e-06
7325.23	0.549347	2.98157e-05
7326.11	0.00185547	0.00397247
7326.97	0.549622	-3.02124e-06
7327.87	0.55072	7.32422e-06
7328.77	0.549896	0.0173096
7329.61	0.550781	-1.18713e-05
7330.51	0.550323	4.05884e-06
7331.41	0.549561	0.0114716
7332.25	0.549347	-1.19019e-06
7333.15	0.549469	5.79834e-06
7334.05	0.550873	0.00229919
7334.89	0.550995	-1.22681e-05
7335.79	0.549347	3.50952e-06
7336.69	0.549316	0.000808411
7337.53	0.550598	-1.02234e-05
7338.43	0.549408	2.96021e-06
7339.33	0.550781	0.000385834
7340.17	0.5495	-4.63867e-06
7341.07	0.551056	-8.72803e-06
7341.97	0.550201	0.000212982
7342.81	0.550049	-6.89697e-06
7343.71	0.55072	-8.20923e-06
7344.61	0.550476	0.000120636
7345.47	-0.696716	-0.0249359
7346.35	0.550964	-1.12305e-05
7347.25	0.549835	7.03125E-05
7348.11	-0.696411	-0.0193542
7348.99	0.549957	-3.08228e-06
7349.89	0.550995	3.51868e-05
7350.77	0.000790405	0.00604462
7351.63	0.549377	-2.13623e-07
7352.53	0.550934	1.80054e-05
7353.41	0.001953125	0.00395996
7354.27	0.550598	-8.94165e-06
7355.17	0.549255	1.87073e-05
7356.07	0.549469	0.0173096
7356.91	0.549622	-4.11987e-06
7357.81	0.549652	9.46045e-06
7358.71	0.54895	0.0114899
7359.55	0.549774	-3.90625e-06
7360.45	0.551086	-3.72314e-06
7361.35	0.551025	0.00232513
7362.19	0.550781	-1.15356e-05
7363.09	0.550201	-5.79834e-06
7363.99	0.550446	0.000809326
7364.83	0.550781	-9.49097e-06
7365.73	0.549805	-1.70898e-06
7366.63	0.550446	0.000393646
7367.47	0.549683	-4.63867e-06
7368.37	0.549896	-1.09863e-06
7369.27	0.549347	0.0002211
7370.11	0.55069	-1.16272e-05
7371.01	0.551086	-8.94165e-06
7371.91	0.550659	0.000121643
7372.77	-0.696106	-0.0249603
7373.65	0.549469	-1.83105e-07
7374.55	0.550629	7.07703e-05
7375.41	-0.697693	-0.0193756
7376.29	0.549438	-1.34277e-06
7377.19	0.550201	4.3457e-05
7378.07	0.000698853	0.00601929
7378.93	0.550842	-8.97217e-06
7379.83	0.550751	1.98669e-05
7380.71	0.00189514	0.00394653
7381.57	0.550934	-1.2207e-05
7382.47	0.550507	8.81958e-06
7383.37	0.548462	0.0173157
7384.21	0.550934	-1.11694e-05
7385.11	0.549255	1.20544e-05
7386.01	0.550232	0.011499
7386.85	0.550598	-1.26648e-05
7387.75	0.549896	1.83105e-06
7388.65	0.550629	0.00235321
7389.49	0.550629	-9.79614e-06
7390.39	0.550385	-4.02832e-06
7391.29	0.549652	0.000821533
7392.13	0.549377	-7.32422e-07
7393.03	0.550446	-5.88989e-06
7393.93	0.549469	0.000404266
7394.77	0.550385	-9.70459e-06
7395.67	0.550354	-5.82886e-06
7396.57	0.549316	0.000223602
7397.41	0.5495	-3.14331e-06
7398.31	0.549438	1.5564e-06
7399.21	0.550903	0.00012085
7400.07	-0.697571	-0.0249634
7400.95	0.549652	-3.05176e-06
7401.85	0.549805	7.55005e-05
7402.71	-0.696411	-0.0194031
7403.59	0.550079	-3.02124e-06
7404.49	0.549652	4.43115e-05
7405.37	0.000363159	0.00599976
7406.23	0.551086	-1.18103e-05
7407.13	0.551086	1.7334e-05
7408.01	0.00147705	0.00394287
7408.87	0.549469	-8.8501e-07
7409.77	0.549927	1.42212e-05
7410.67	0.549744	0.0173004
7411.51	0.549927	-5.21851e-06
7412.41	0.551086	7.01904e-07
7413.31	0.550049	0.0115173
7414.15	0.549927	-7.47681e-06
7415.05	0.550018	8.8501e-07
7415.95	0.549286	0.00238281
7416.79	0.549347	-1.64795e-06
7417.69	0.549805	6.71387e-07
7418.59	0.550018	0.000820923
7419.43	0.550659	-1.15051e-05
7420.33	0.549316	4.27246e-06
7421.23	0.550903	0.000399902
7422.07	0.550934	-1.46484e-05
7422.97	0.550537	-8.30078e-06
7423.87	0.549652	0.000223053
7424.71	0.54953	-3.44849e-06
7425.61	0.549438	-4.27246e-07
7426.51	0.55072	0.000123291
7427.37	-0.696838	-0.0249664
7428.25	0.551025	-1.2207e-05
7429.15	0.550873	6.87866e-05
7430.01	-0.697754	-0.0193939
7430.89	0.549774	-3.9978e-06
7431.79	0.550476	4.13513e-05
7432.67	0.000622559	0.00598389
7433.53	0.550751	-1.08948e-05
7434.43	0.54953	2.89307e-05
7435.31	0.000531006	0.00393188
7436.17	0.55069	-8.39233e-06
7437.07	0.549957	1.48315e-05
7437.97	0.548767	0.0173248
7438.81	0.550842	-1.15967e-05
7439.71	0.551086	-1.83105e-07
7440.61	0.550079	0.0115265
7441.45	0.550476	-7.44629e-06
7442.35	0.550079	8.8501e-07
7443.25	0.549774	0.00239899
7444.09	0.549683	-3.75366e-06
7444.99	0.550262	-1.12915e-06
7445.89	0.549988	0.000834351
7446.73	0.550598	-9.94873e-06
7447.63	0.549774	-2.65503e-06
7448.53	0.54953	0.000410919
7449.37	0.550873	-1.00403e-05
7450.27	0.549652	-5.79834e-07
7451.17	0.549377	0.000228241
7452.01	0.550995	-1.35803e-05
7452.91	0.550781	-1.02844e-05
7453.81	0.549347	0.000135468
7454.67	-0.697723	-0.0249512
7455.55	0.549469	3.05176e-07
7456.45	0.549408	8.12988e-05
7457.31	-0.697632	-0.0194061
7458.19	0.550201	-4.85229e-06
7459.09	0.550415	4.11682e-05
7459.97	0.00170593	0.00595428
7460.83	0.549652	-1.7395e-06
7461.73	0.549683	3.01514e-05
7462.61	0.000958252	0.0039151
7463.47	0.551147	-1.2207e-05
7464.37	0.549377	1.74561e-05
7465.27	0.549469	0.0173065
7466.11	0.55069	-9.94873e-06
7467.01	0.55014	4.97437e-06
7467.91	0.548828	0.0115479
7468.75	0.550781	-1.18408e-05
7469.65	0.550537	-4.24194e-06
7470.55	0.549377	0.0024295
7471.39	0.55014	-9.61304e-06
7472.29	0.549561	2.59399e-06
7473.19	0.550842	0.000834656
7474.03	0.550629	-9.18579e-06
7474.93	0.551025	-9.33838e-06
7475.83	0.550873	0.000405212
7476.67	0.549652	-2.74658e-06
7477.57	0.549255	2.22778e-06
7478.47	0.550598	0.000223724
7479.31	0.55069	-8.45337e-06
7480.21	0.550964	-1.0376e-05
7481.11	0.550934	0.000124939
7481.97	-0.697754	-0.0249695
7482.85	0.55069	-8.27026e-06
7483.75	0.55072	7.18994e-05
7484.61	-0.697723	-0.0194214
7485.49	0.551025	-1.29395e-05
7486.39	0.550659	4.12903e-05
7487.27	0.00149536	0.00593842
7488.13	0.550018	-5.06592e-06
7489.03	0.549591	2.6825e-05
7489.91	0.00162964	0.00389404
7490.77	0.550598	-7.93457e-06
7491.67	0.550568	1.00403e-05
7492.57	0.55011	0.0173004
7493.41	0.549652	-2.50244e-06
7494.31	0.549835	8.5144e-06
7495.21	0.550323	0.011554
7496.05	0.550751	-1.11694e-05
7496.95	0.549561	7.44629e-06
7497.85	0.549927	0.00244537
7498.69	0.549408	-4.02832e-06
7499.59	0.550812	-6.86646e-06
7500.49	0.549438	0.00085144
7501.33	0.549866	-4.30298e-06
7502.23	0.550018	-2.59399e-06
7503.13	0.550415	0.000414398
7503.97	0.550537	-1.0498e-05
7504.87	0.550842	-1.0437e-05
7505.77	0.550537	0.000224762
7506.61	0.550659	-9.09424e-06
7507.51	0.550812	-9.46045e-06
7508.41	0.549683	0.000135681
7509.27	-0.697388	-0.0249817
7510.15	0.549774	-3.87573e-06
7511.05	0.55072	7.33337e-05
7511.91	-0.696716	-0.0194489
7512.79	0.549774	-3.75366e-06
7513.69	0.550537	4.24194e-05
7514.57	0.000967407	0.00592407
7515.43	0.550568	-8.72803e-06
7516.33	0.549652	2.93579e-05
7517.21	0.00157471	0.00388397
7518.07	0.550507	-9.0332e-06
7518.97	0.549774	1.66016e-05
7519.87	0.549347	0.0173187
7520.71	0.549561	-2.22778e-06
7521.61	0.550232	5.46265e-06
7522.51	0.548981	0.0115784
7523.35	0.550049	-7.04956e-06
7524.25	0.55072	-1.95313e-06
7525.15	0.550385	0.00246643
7525.99	0.550476	-7.23267e-06
7526.89	0.549713	2.47192e-06
7527.79	0.550507	0.000849609
7528.63	0.550537	-8.78906e-06
7529.53	0.549927	-8.8501e-07
7530.43	0.550323	0.000414948
7531.27	0.54953	-1.31226e-06
7532.17	0.551025	-1.171875E-05
7533.07	0.550598	0.000226013
7533.91	0.549744	-7.62939e-07
7534.81	0.549347	7.62939e-07
7535.71	0.549774	0.000136047
7536.57	-0.697601	-0.0249756
7537.45	0.550842	-1.12915e-05
7538.35	0.551025	7.20825e-05
7539.21	-0.697815	-0.0194611
7540.09	0.55072	-1.04065e-05
7540.99	0.550964	4.10767e-05
7541.87	0.000338745	0.0059021
7542.73	0.550995	-1.29089e-05
7543.63	0.551056	2.04773e-05
7544.51	0.0019928	0.00386322
7545.37	0.549438	-2.62451e-06
7546.27	0.549561	1.69067e-05
7547.17	0.550049	0.0173035
7548.01	0.550232	-6.74438e-06
7548.91	0.550323	3.72314e-06
7549.81	0.550049	0.0115936
7550.65	0.550079	-6.68335e-06
7551.55	0.55014	5.24902e-06
7552.45	0.5495	0.00249573
7553.29	0.549316	-1.09863e-06
7554.19	0.549469	3.90625e-06
7555.09	0.550446	0.000857239
7555.93	0.549347	-8.23975e-07
7556.83	0.550537	-6.89697e-06
7557.73	0.550568	0.000419098
7558.57	0.550903	-1.26038e-05
7559.47	0.550903	-1.0437e-05
7560.37	0.549744	0.000236084
7561.21	0.550995	-1.25732e-05
7562.11	0.550415	-7.04956e-06
7563.01	0.549438	0.00014035
7563.87	-0.697784	-0.0249695
7564.75	0.551056	-1.21765e-05
7565.65	0.550995	7.34253e-05
7566.51	-0.696869	-0.0194824
7567.39	0.550995	-1.12305e-05
7568.29	0.549622	4.92249e-05
7569.17	0.00109253	0.00587921
7570.03	0.549438	-1.83105e-06
7570.93	0.549377	3.2135e-05
7571.81	0.0013092	0.00385223
7572.67	0.550446	-6.34766e-06
7573.57	0.549408	1.87988e-05
7574.47	0.549805	0.0173035
7575.31	0.549561	-1.70898e-06
7576.21	0.55069	2.89917e-06
7577.11	0.5495	0.0115936
7577.95	0.550629	-1.02844e-05
7578.85	0.551056	-3.8147e-06
7579.75	0.55072	0.00250916
7580.59	0.549408	-2.10571e-06
7581.49	0.549408	3.02124e-06
7582.39	0.550354	0.000863647
7583.23	0.5495	-3.60107e-06
7584.13	0.549927	-1.06812e-06
7585.03	0.549652	0.0004296875
7585.87	0.550873	-1.11084e-05
7586.77	0.551025	-1.04065e-05
7587.67	0.549927	0.000236176
7588.51	0.550201	-6.28662e-06
7589.41	0.55011	-5.46265e-06
7590.31	0.550446	0.000134857
7591.17	-0.697845	-0.0249695
7592.05	0.549377	-1.31226e-06
7592.95	0.549896	8.10547e-05
7593.81	-0.697662	-0.0194733
7594.69	0.550507	-8.75854e-06
7595.59	0.549866	4.84009e-05
7596.47	0.000463867	0.0058609
7597.33	0.550842	-1.10474e-05
7598.23	0.550995	2.36206e-05
7599.11	0.00038147	0.00384277
7599.97	0.549561	-2.44141e-07
7600.87	0.549988	1.41296e-05
7601.77	0.548706	0.0173035
7602.61	0.549591	-2.28882e-06
7603.51	0.550812	1.95313e-06
7604.41	0.549744	0.0116241
7605.25	0.549347	-1.98364e-06
7606.15	0.550812	-4.18091e-06
7607.05	0.550171	0.00253571
7607.89	0.54953	-1.46484e-06
7608.79	0.550659	-5.49316e-06
7609.69	0.549438	0.00087616
7610.53	0.550293	-7.1106e-06
7611.43	0.550873	-7.87354e-06
7612.33	0.549316	0.000435089
7613.17	0.550171	-7.26318e-06
7614.07	0.551056	-9.64355e-06
7614.97	0.550507	0.000235016
7615.81	0.549988	-5.67627e-06
7616.71	0.549347	5.49316e-07
7617.61	0.550598	0.000137177
7618.47	-0.696167	-0.0249847
7619.35	0.549194	4.27246e-07
7620.25	0.549316	8.8623e-05
7621.11	-0.698059	-0.0194885
7621.99	0.550507	-8.45337e-06
7622.89	0.549408	5.48706e-05
7623.77	0.00132141	0.00583618
7624.63	0.551086	-1.29089e-05
7625.53	0.549225	3.36609e-05
7626.41	0.00166016	0.00382141
7627.27	0.551086	-1.3916e-05
7628.17	0.549347	2.0874e-05
7629.07	0.550201	0.0173004
7629.91	0.549927	-5.18799e-06
7630.81	0.550049	7.1106e-06
7631.71	0.548859	0.0116364
7632.55	0.551025	-1.29089e-05
7633.45	0.55069	-1.70898e-06
7634.35	0.549713	0.00256073
7635.19	0.550995	-1.26648e-05
7636.09	0.549377	5.27954e-06
7636.99	0.550934	0.000873413
7637.83	0.549561	-3.38745e-06
7638.73	0.550323	-7.44629e-06
7639.63	0.550232	0.000432465
7640.47	0.5495	-8.54492e-07
7641.37	0.551025	-9.8877e-06
7642.27	0.549622	0.000244629
7643.11	0.550964	-1.32751e-05
7644.01	0.550598	-6.86646e-06
7644.91	0.549316	0.000146118
7645.77	-0.696716	-0.0249969
7646.65	0.549347	5.18799e-07
7647.55	0.550537	7.97119e-05
7648.41	-0.697449	-0.0195099
7649.29	0.55072	-1.08948e-05
7650.19	0.551025	4.29993e-05
7651.07	0.00122681	0.00582092
7651.93	0.550629	-1.29089e-05
7652.83	0.54953	3.32336e-05
7653.71	0.000640869	0.00382416
7654.57	0.550964	-1.25427e-05
7655.47	0.55072	1.11389e-05
7656.37	0.549713	0.0173096
7657.21	0.550781	-9.79614e-06
7658.11	0.551056	4.27246e-07
7659.01	0.549652	0.0116516
7659.85	0.551056	-1.39465e-05
7660.75	0.550934	-4.66919e-06
7661.65	0.550781	0.00257019
7662.49	0.550385	-8.20923e-06
7663.39	0.550903	-6.28662e-06
7664.29	0.550964	0.000881348
7665.13	0.549774	-4.66919e-06
7666.03	0.549438	3.17383e-06
7666.93	0.5495	0.000443695
7667.77	0.549957	-5.21851e-06
7668.67	0.54953	4.57764e-07
7669.57	0.549835	0.000241638
7670.41	0.549438	-3.14331e-06
7671.31	0.549957	-2.16675e-06
7672.21	0.5495	0.000146515
7673.07	-0.696838	-0.0249878
7673.95	0.549408	-4.27246e-07
7674.85	0.550293	8.25806e-05
7675.71	-0.697998	-0.019519
7676.59	0.550507	-9.67407e-06
7677.49	0.549316	5.51147e-05
7678.37	0.000720215	0.00581116
7679.23	0.551056	-1.31836e-05
7680.13	0.550446	2.71912e-05
7681.01	0.00151062	0.00379669
7681.87	0.549683	-2.80762e-06
7682.77	0.550201	1.78528e-05
7683.67	0.549957	0.0172882
7684.51	0.550659	-9.8877e-06
7685.41	0.550323	7.99561e-06
7686.31	0.549377	0.0116547
7687.15	0.550018	-4.85229e-06
7688.05	0.549622	6.04248e-06
7688.95	0.550476	0.00259705
7689.79	0.549683	-4.08936e-06
7690.69	0.549408	3.08228e-06
7691.59	0.549347	0.000900574
7692.43	0.550323	-4.54712e-06
7693.33	0.549286	3.38745e-06
7694.23	0.549866	0.000443237
7695.07	0.549377	-8.54492e-07
7695.97	0.550446	-6.89697e-06
7696.87	0.55072	0.000240021
7697.71	0.550781	-1.18713e-05
7698.61	0.549652	-1.37329e-06
7699.51	0.549652	0.000147675
7700.37	-0.696106	-0.0249969
7701.25	0.549438	2.13623e-07
7702.15	0.550537	8.35266e-05
7703.01	-0.69812	-0.0195374
7703.89	0.550018	-3.54004e-06
7704.79	0.550201	5.10864e-05
7705.67	0.00171204	0.00577515
7706.53	0.550415	-9.85718e-06
7707.43	0.550812	2.44446e-05
7708.31	0.000469971	0.00379333
7709.17	0.550934	-1.20239e-05
7710.07	0.549438	2.36206e-05
7710.97	0.548645	0.0172974
7711.81	0.549622	-2.44141e-06
7712.71	0.549377	1.43127e-05
7713.61	0.54892	0.0116699
7714.45	0.550262	-9.21631e-06
7715.35	0.549377	8.23975e-06
7716.25	0.549652	0.0026355
7717.09	0.550201	-8.97217e-06
7717.99	0.549408	5.46265e-06
7718.89	0.550232	0.000901184
7719.73	0.5495	-2.65503e-06
7720.63	0.550629	-5.15747e-06
7721.53	0.55069	0.000439423
7722.37	0.549683	-4.91333e-06
7723.27	0.549286	3.35693e-07
7724.17	0.550659	0.000244995
7725.01	0.551025	-1.33972e-05
7725.91	0.550171	-4.76074e-06
7726.81	0.550354	0.000144867
7727.67	-0.697723	-0.025
7728.55	0.549377	7.32422e-07
7729.45	0.550262	8.71887e-05
7730.31	-0.697906	-0.0195465
7731.19	0.550659	-9.09424e-06
7732.09	0.550812	4.73022e-05
7732.97	0.000192261	0.00576355
7733.83	0.550507	-9.15527e-06
7734.73	0.550079	3.48816e-05
7735.61	0.000479126	0.0037796
7736.47	0.551117	-1.27869e-05
7737.37	0.550171	1.57776e-05
7738.27	0.55011	0.0172882
7739.11	0.549652	-3.90625e-06
7740.01	0.550659	4.63867e-06
7740.91	0.549927	0.0116821
7741.75	0.549438	-2.68555e-06
7742.65	0.551025	-3.63159e-06
7743.55	0.550659	0.00265198
7744.39	0.551025	-1.33667e-05
7745.29	0.55069	-3.54004e-06
7746.19	0.550812	0.0009021
7747.03	0.550842	-1.31226e-05
7747.93	0.5495	-8.23975e-07
7748.83	0.551025	0.000442413
7749.67	0.550995	-1.03455e-05
7750.57	0.550079	-2.38037e-06
7751.47	0.550903	0.000245056
7752.31	0.549347	-2.41089e-06
7753.21	0.549347	1.2207e-06
7754.11	0.549652	0.000150208
7754.97	-0.696472	-0.0250031
7755.85	0.549438	-4.88281e-07
7756.75	0.549347	9.52454e-05
7757.61	-0.697083	-0.0195618
7758.49	0.550751	-1.12305e-05
7759.39	0.551025	4.64172e-05
7760.27	0.00131226	0.00574188
7761.13	0.551117	-1.35193e-05
7762.03	0.551086	2.4292e-05
7762.91	0.000860596	0.00376404
7763.77	0.549377	4.57764e-07
7764.67	0.550964	1.09558e-05
7765.57	0.548492	0.0172974
7766.41	0.549683	-4.21143e-06
7767.31	0.549774	1.20544e-05
7768.21	0.549438	0.0117035
7769.05	0.550964	-1.30005e-05
7769.95	0.550171	3.35693e-06
7770.85	0.549255	0.00268097
7771.69	0.551086	-1.31226e-05
7772.59	0.549683	5.31006e-06
7773.49	0.550751	0.000910645
7774.33	0.550385	-1.17798e-05
7775.23	0.549408	3.02124e-06
7776.13	0.550964	0.000446564
7776.97	0.550323	-9.94873e-06
7777.87	0.550995	-8.88062e-06
7778.77	0.550995	0.000246887
7779.61	0.549744	-5.5542e-06
7780.51	0.549347	9.46045e-07
7781.41	0.549652	0.000151489
7782.27	-0.696503	-0.0250031
7783.15	0.549347	3.35693e-07
7784.05	0.551147	8.30078e-05
7784.91	-0.696411	-0.0195801
7785.79	0.551056	-1.33057e-05
7786.69	0.549255	6.01807e-05
7787.57	0.00181885	0.00572052
7788.43	0.551025	-1.09863e-05
7789.33	0.549652	3.49121e-05
7790.21	0.00141602	0.00374756
7791.07	0.549286	4.27246e-07
7791.97	0.551025	1.15967e-05
7792.87	0.550079	0.0172852
7793.71	0.549622	-2.74658e-06
7794.61	0.549713	1.25427e-05
7795.51	0.549347	0.01171875
7796.35	0.55072	-1.02234e-05
7797.25	0.550995	-1.31226e-06
7798.15	0.550385	0.00269684
7798.99	0.550323	-9.24683e-06
7799.89	0.550751	-3.41797e-06
7800.79	0.550476	0.000918884
7801.63	0.550842	-1.24512e-05
7802.53	0.550964	-7.41577e-06
7803.43	0.551178	0.000450256
7804.27	0.549316	-2.0752e-06
7805.17	0.550018	-7.32422e-07
7806.07	0.550232	0.000253174
7806.91	0.549774	-2.80762e-06
7807.81	0.550354	-5.15747e-06
7808.71	0.551056	0.000143524
7809.57	-0.697266	-0.0249969
7810.45	0.549347	-3.05176e-08
7811.35	0.549408	9.55811e-05
7812.21	-0.697723	-0.0195801
7813.09	0.549591	-3.41797e-06
7813.99	0.549347	6.06995e-05
7814.87	0.0018158	0.00570801
7815.73	0.549408	-6.71387e-07
7816.63	0.549774	3.7262e-05
7817.51	0.000466919	0.0037439
7818.37	0.550995	-1.3031e-05
7819.27	0.550659	1.47705e-05
7820.17	0.549774	0.0172882
7821.01	0.551056	-1.29089e-05
7821.91	0.549957	1.08643e-05
7822.81	0.548737	0.0117279
7823.65	0.550629	-1.15356e-05
7824.55	0.54953	7.99561e-06
7825.45	0.550079	0.00271698
7826.29	0.550446	-9.46045e-06
7827.19	0.550812	-4.30298e-06
7828.09	0.551086	0.000921326
7828.93	0.549347	-2.19727e-06
7829.83	0.55072	-7.99561e-06
7830.73	0.550873	0.000454407
7831.57	0.549316	-1.92261e-06
7832.47	0.550812	-8.39233e-06
7833.37	0.550964	0.000252502
7834.21	0.549774	-5.46265e-06
7835.11	0.549927	-3.38745e-06
7836.01	0.550903	0.000145782
7836.87	-0.697784	-0.0250061
7837.75	0.549469	-1.15967e-06
7838.65	0.549347	9.65576e-05
7839.51	-0.697205	-0.0195892
7840.39	0.550842	-1.00708e-05
7841.29	0.549347	6.21948e-05
7842.17	0.0015625	0.00569
7843.03	0.549408	-3.96729e-07
7843.93	0.5495	3.78113e-05
7844.81	0.000515747	0.00373322
7845.67	0.550293	-8.23975e-06
7846.57	0.550903	1.45569e-05
7847.47	0.549866	0.0172974
7848.31	0.551086	-1.25427e-05
7849.21	0.549713	1.34583e-05
7850.11	0.550293	0.0117249
7850.95	0.550964	-1.33972e-05
7851.85	0.55014	3.78418e-06
7852.75	0.550476	0.00272766
7853.59	0.549622	-3.66211e-06
7854.49	0.549744	5.64575e-06
7855.39	0.549347	0.000934143
7856.23	0.549469	-1.83105e-06
7857.13	0.550995	-7.72095e-06
7858.03	0.549744	0.000463715
7858.87	0.549438	-2.68555e-06
7859.77	0.549988	-3.38745e-06
7860.67	0.549561	0.000262421
7861.51	0.549591	-6.65283e-06
7862.41	0.551025	-1.09558e-05
7863.31	0.550079	0.000150909
7864.17	-0.697601	-0.0249603
7865.05	0.550751	-9.67407e-06
7865.95	0.550385	8.94165e-05
7866.81	-0.696503	-0.0195709
7867.69	0.549316	-3.96729e-07
7868.59	0.550568	5.2887e-05
7869.47	0.000466919	0.00571899
7870.33	0.550995	-1.14746e-05
7871.23	0.549286	3.97339e-05
7872.11	0.000549316	0.00375153
7872.97	0.55069	-7.32422e-06
7873.87	0.550568	1.63879e-05
7874.77	0.55014	0.0173065
7875.61	0.551117	-1.297e-05
7876.51	0.550354	8.05664e-06
7877.41	0.549622	0.0117157
7878.25	0.5495	-3.38745e-06
7879.15	0.550995	-6.40869e-07
7880.05	0.5495	0.0026828
7880.89	0.549774	-4.5166e-06
7881.79	0.55069	-2.44141e-06
7882.69	0.551056	0.000924072
7883.53	0.549347	-1.98364e-06
7884.43	0.549316	1.83105e-06
7885.33	0.549591	0.000464264
7886.17	0.550049	-8.91113e-06
7887.07	0.550903	-8.75854e-06
7887.97	0.549408	0.000265381
7888.81	0.549408	-2.44141e-06
7889.71	0.550323	-4.15039e-06
7890.61	0.5495	0.000159302
7891.47	-0.697693	-0.0249634
7892.35	0.550995	-1.09558e-05
7893.25	0.55011	9.10034e-05
7894.11	-0.697083	-0.0195892
7894.99	0.549896	-3.02124e-06
7895.89	0.551056	5.02319e-05
7896.77	0.0013916	0.00568848
7897.63	0.549316	-2.44141e-07
7898.53	0.550537	3.06396e-05
7899.41	0.00126038	0.00372314
7900.27	0.549744	-3.38745e-06
7901.17	0.550659	1.77917e-05
7902.07	0.548553	0.0173065
7902.91	0.549408	-5.49316e-07
7903.81	0.549561	1.42212e-05
7904.71	0.54892	0.0117493
7905.55	0.549774	-3.63159e-06
7906.45	0.550751	8.23975e-07
7907.35	0.549286	0.00273193
7908.19	0.550507	-8.78906e-06
7909.09	0.550385	-1.34277e-06
7909.99	0.550507	0.000935669
7910.83	0.549988	-5.40161e-06
7911.73	0.549622	2.59399e-06
7912.63	0.549988	0.000466187
7913.47	0.549683	-4.02832e-06
7914.37	0.550934	-9.12476e-06
7915.27	0.549683	0.000256317
7916.11	0.549561	-2.38037e-06
7917.01	0.549835	-2.50244e-06
7917.91	0.549866	0.000151367
7918.77	-0.69751	-0.0247498
7919.65	0.549713	-2.41089e-06
7920.55	0.5495	9.48181e-05
7921.41	-0.697937	-0.0194153
7922.29	0.550568	-7.56836e-06
7923.19	0.550812	5.06897e-05
7924.07	0.000289917	0.00581146
7924.93	0.55069	-9.91821e-06
7925.83	0.550903	2.79236e-05
7926.71	0.00132751	0.00380005
7927.57	0.550842	-1.11389e-05
7928.47	0.549469	2.34375e-05
7929.37	0.548676	0.0173492
7930.21	0.550018	-6.40869e-06
7931.11	0.549957	1.25427e-05
7932.01	0.54953	0.0116547
7932.85	0.550934	-1.26648e-05
7933.75	0.549805	5.95093e-06
7934.65	0.550751	0.00246765
7935.49	0.549591	-3.87573e-06
7936.39	0.549744	3.14331e-06
7937.29	0.550781	0.000890808
7938.13	0.549652	-2.74658e-06
7939.03	0.549988	-6.71387e-07
7939.93	0.5495	0.000456055
7940.77	0.550568	-1.08032e-05
7941.67	0.549713	-6.10352e-07
7942.57	0.549591	0.00026004
7943.41	0.5495	-2.68555e-06
7944.31	0.550964	-8.36182e-06
7945.21	0.549835	0.000153015
7946.07	-0.697571	-0.0247467
7946.95	0.549744	-1.92261e-06
7947.85	0.550873	8.71887e-05
7948.71	-0.69809	-0.0194305
7949.59	0.549438	-6.71387e-07
7950.49	0.549469	5.97839e-05
7951.37	0.000256348	0.00579437
7952.23	0.55011	-6.37817e-06
7953.13	0.550781	2.90833e-05
7954.01	0.00162964	0.00378815
7954.87	0.550934	-1.22681e-05
7955.77	0.550995	1.19019e-05
7956.67	0.548676	0.0173553
7957.51	0.549347	-3.38745e-06
7958.41	0.550476	7.41577e-06
7959.31	0.550232	0.0116547
7960.15	0.550323	-7.50732e-06
7961.05	0.54953	8.94165e-06
7961.95	0.549408	0.00250244
7962.79	0.549957	-3.93677e-06
7963.69	0.549652	4.73022e-06
7964.59	0.550079	0.000905151
7965.43	0.550812	-1.171875E-05
7966.33	0.549774	8.54492e-07
7967.23	0.549347	0.000462219
7968.07	0.549377	-1.19019e-06
7968.97	0.549408	2.65503e-06
7969.87	0.550385	0.000256927
7970.71	0.549805	-5.7373e-06
7971.61	0.550415	-4.15039e-06
7972.51	0.549408	0.000156952
7973.37	-0.696655	-0.024765
7974.25	0.550446	-4.24194e-06
7975.15	0.54953	9.765625E-05
7976.01	-0.697388	-0.0194519
7976.89	0.55011	-5.76782e-06
7977.79	0.549774	5.82886e-05
7978.67	0.000357056	0.00577271
7979.53	0.550323	-7.53784e-06
7980.43	0.550415	3.18298e-05
7981.31	0.00176392	0.00377502
7982.17	0.550018	-4.36401e-06
7983.07	0.550171	1.84631e-05
7983.97	0.549042	0.017334
7984.81	0.549805	-4.69971e-06
7985.71	0.549774	1.42822e-05
7986.61	0.549683	0.011673
7987.45	0.549713	-2.47192e-06
7988.35	0.549866	7.41577e-06
7989.25	0.550629	0.00251892
7990.09	0.55011	-5.7373e-06
7990.99	0.550354	-1.95313e-06
7991.89	0.550842	0.000906982
7992.73	0.549866	-7.87354e-06
7993.63	0.550812	-5.09644e-06
7994.53	0.549316	0.00046521
7995.37	0.550476	-8.08716e-06
7996.27	0.549622	5.79834e-07
7997.17	0.550232	0.000258759
7998.01	0.550537	-1.03149e-05
7998.91	0.550598	-6.83594e-06
7999.81	0.55072	0.000151093
8000.67	-0.696442	-0.0247833
8001.55	0.550476	-7.23267e-06
8002.45	0.549957	9.69238e-05
8003.31	-0.697845	-0.0194611
8004.19	0.549896	-2.59399e-06
8005.09	0.550323	5.51147e-05
8005.97	0.00161438	0.00574249
8006.83	0.550568	-9.21631e-06
8007.73	0.55069	3.05481e-05
8008.61	0.000909424	0.00376465
8009.47	0.549713	-2.47192e-06
8010.37	0.5495	2.41089e-05
8011.27	0.55011	0.0173431
8012.11	0.549377	-5.49316e-07
8013.01	0.549927	1.37024e-05
8013.91	0.549591	0.0117035
8014.75	0.55011	-4.94385e-06
8015.65	0.549408	8.3313e-06
8016.55	0.550568	0.00254272
8017.39	0.550934	-1.38855e-05
8018.29	0.550507	-9.15527e-07
8019.19	0.550598	0.000915833
8020.03	0.549408	-1.83105e-06
8020.93	0.549866	-9.76562e-07
8021.83	0.550873	0.000457794
8022.67	0.550964	-1.27563e-05
8023.57	0.550903	-9.0332e-06
8024.47	0.550079	0.000263458
8025.31	0.549438	-3.11279e-06
8026.21	0.55069	-8.5144e-06
8027.11	0.549866	0.00015451
8027.97	-0.696228	-0.0247925
8028.85	0.551056	-1.00708e-05
8029.75	0.549957	9.4635e-05
8030.61	-0.696808	-0.0194885
8031.49	0.550293	-5.52368e-06
8032.39	0.549805	5.78613e-05
8033.27	0.000576782	0.00572876
8034.13	0.550568	-7.1106e-06
8035.03	0.550781	3.07617e-05
8035.91	0.000662231	0.00375336
8036.77	0.550446	-6.10352e-06
8037.67	0.549469	2.58179e-05
8038.57	0.548706	0.0173584
8039.41	0.549652	-3.66211e-06
8040.31	0.550995	5.46265e-06
8041.21	0.549103	0.0117157
8042.05	0.55069	-1.13831e-05
8042.95	0.5495	9.06372e-06
8043.85	0.550598	0.00256836
8044.69	0.549988	-6.2561e-06
8045.59	0.550964	-2.56348e-06
8046.49	0.549377	0.000930786
8047.33	0.550354	-5.46265e-06
8048.23	0.550903	-6.68335e-06
8049.13	0.549957	0.000467926
8049.97	0.550446	-7.99561e-06
8050.87	0.549286	2.2583e-06
8051.77	0.55011	0.000263092
8052.61	0.551025	-1.28174e-05
8053.51	0.550751	-7.56836e-06
8054.41	0.549469	0.000162476
8055.27	-0.697479	-0.0247864
8056.15	0.549408	7.62939e-07
8057.05	0.549438	0.000102875
8057.91	-0.697815	-0.0194916
8058.79	0.549347	1.06812e-06
8059.69	0.551056	5.19714e-05
8060.57	0.000201416	0.00571228
8061.43	0.549927	-5.37109e-06
8062.33	0.549316	4.19617e-05
8063.21	0.0006073	0.00373779
8064.07	0.549957	-5.34058e-06
8064.97	0.5495	2.70081e-05
8065.87	0.549957	0.0173401
8066.71	0.549835	-4.18091e-06
8067.61	0.550354	9.64355e-06
8068.51	0.550049	0.0117249
8069.35	0.550568	-8.48389e-06
8070.25	0.549652	8.81958e-06
8071.15	0.550446	0.00260071
8071.99	0.550201	-6.5918e-06
8072.89	0.549927	1.95313e-06
8073.79	0.549652	0.000933838
8074.63	0.549652	-3.26538e-06
8075.53	0.550995	-7.96509e-06
8076.43	0.549622	0.000474792
8077.27	0.549988	-8.20923e-06
8078.17	0.549652	7.93457e-07
8079.07	0.549805	0.000269196
8079.91	0.549622	-3.84521e-06
8080.81	0.549713	-2.04468e-06
8081.71	0.549408	0.000164124
8082.57	-0.696686	-0.0248047
8083.45	0.549561	-3.05176e-08
8084.35	0.549347	0.00010202
8085.21	-0.696808	-0.019516
8086.09	0.549316	-9.15527e-08
8086.99	0.550232	5.66406e-05
8087.87	0.00055542	0.00569641
8088.73	0.551056	-1.26953e-05
8089.63	0.549316	4.18091e-05
8090.51	0.00161743	0.00372101
8091.37	0.5495	-1.06812e-06
8092.27	0.550537	1.48926e-05
8093.17	0.55011	0.017337
8094.01	0.549377	3.35693e-07
8094.91	0.549957	1.1261e-05
8095.81	0.550446	0.011731
8096.65	0.550995	-1.10779e-05
8097.55	0.550903	-3.05176e-08
8098.45	0.549316	0.00263306
8099.29	0.549774	-2.53296e-06
8099.43	0.549316	-5.18799e-07