File: Edgar/20240517/20240517/electrodeposition_pulsed_potential_20240517_A/pulses_3000_to_4000.txt
Time (s)	WE(1).Potential (V)	WE(1).Current (A)
4152.05	-0.696289	-0.0229156
4152.93	0.549255	-5.79834e-07
4153.83	0.550964	-8.11768e-06
4154.69	-0.696655	-0.0156403
4155.57	0.549561	-3.44849e-06
4156.47	0.550995	-9.765625E-06
4157.35	0.001171875	0.00933228
4158.21	0.550018	-5.76782e-06
4159.11	0.5495	1.67847e-06
4159.99	0.00132141	0.00566284
4160.85	0.549988	-6.68335e-06
4161.75	0.549927	-3.44849e-06
4162.65	0.548859	0.0158691
4163.49	0.54953	-2.41089e-06
4164.39	0.549377	-9.76562e-07
4165.29	0.550323	0.00158203
4166.13	0.550629	-1.13831e-05
4167.03	0.549469	-8.23975e-07
4167.93	0.549347	0.000222809
4168.77	0.549561	-3.44849e-06
4169.67	0.5495	-1.2207e-06
4170.57	0.5495	5.80444e-05
4171.41	0.549438	-1.83105e-06
4172.31	0.549316	1.2207e-07
4173.21	0.549438	2.20642e-05
4174.05	0.549805	-5.24902e-06
4174.95	0.549377	-1.52588e-06
4175.85	0.5495	1.11694e-05
4176.69	0.549835	-4.45557e-06
4177.59	0.549377	-3.02124e-06
4178.49	0.550751	-2.44141e-06
4179.35	-0.696564	-0.0228943
4180.23	0.550171	-7.44629e-06
4181.13	0.549377	4.27246e-06
4181.99	-0.698212	-0.0156647
4182.87	0.549377	-2.44141e-06
4183.77	0.549377	3.11279e-06
4184.65	0.000915527	0.00936584
4185.51	0.549255	-2.59399e-06
4186.41	0.550232	-3.8147e-06
4187.29	0.000546265	0.00569733
4188.15	0.549377	-1.89209e-06
4189.05	0.550018	-5.40161e-06
4189.95	0.549438	0.0159302
4190.79	0.549988	-6.04248e-06
4191.69	0.549347	2.44141e-07
4192.59	0.549316	0.00170258
4193.43	0.549377	-4.11987e-06
4194.33	0.550964	-1.15662e-05
4195.23	0.550751	0.000224243
4196.07	0.550385	-1.01624e-05
4196.97	0.550446	-1.19629e-05
4197.87	0.549347	6.1676e-05
4198.71	0.549408	-1.5564e-06
4199.61	0.549805	-2.99072e-06
4200.51	0.550903	1.06201e-05
4201.35	0.550598	-9.0332e-06
4202.25	0.550446	-8.02612e-06
4203.15	0.549591	1.0376e-05
4203.99	0.550049	-6.7749e-06
4204.89	0.550842	-9.85718e-06
4205.79	0.551086	-4.91333e-06
4206.65	-0.697754	-0.0229401
4207.53	0.550842	-1.171875E-05
4208.43	0.550964	-6.37817e-06
4209.29	-0.697357	-0.0157196
4210.17	0.549408	-1.98364e-06
4211.07	0.549377	3.44849e-06
4211.95	-6.10352e-05	0.00933838
4212.81	0.550629	-1.20239e-05
4213.71	0.551178	-1.01929e-05
4214.59	0.0019989	0.00569366
4215.45	0.550873	-1.43433e-05
4216.35	0.550903	-1.03149e-05
4217.25	0.549225	0.0160004
4218.09	0.549713	-7.84302e-06
4218.99	0.550018	-3.2959e-06
4219.89	0.549408	0.0017981
4220.73	0.549377	-1.83105e-06
4221.63	0.5495	2.13623e-07
4222.53	0.550751	0.000235016
4223.37	0.551025	-1.44348e-05
4224.27	0.551117	-1.22681e-05
4225.17	0.550995	5.31616e-05
4226.01	0.550079	-7.20215e-06
4226.91	0.549896	-2.83813e-06
4227.81	0.549347	2.3468e-05
4228.65	0.549957	-7.23267e-06
4229.55	0.549408	-1.64795e-06
4230.45	0.550842	3.72314e-06
4231.29	0.549683	-7.65991e-06
4232.19	0.549927	-5.21851e-06
4233.09	0.549683	4.91333e-06
4233.95	-0.696716	-0.0229919
4234.83	0.550415	-8.17871e-06
4235.73	0.549957	-2.44141e-07
4236.59	-0.696686	-0.0157928
4237.47	0.549866	-4.36401e-06
4238.37	0.549805	-1.15967e-06
4239.25	-1.83105e-05	0.00930481
4240.11	0.549377	-6.10352e-07
4241.01	0.549652	1.52588e-06
4241.89	0.000314331	0.0056955
4242.75	0.549408	-2.10571e-06
4243.65	0.551147	-1.05591e-05
4244.55	0.548798	0.0160522
4245.39	0.549408	-2.04468e-06
4246.29	0.5495	-6.10352e-07
4247.19	0.550629	0.00188995
4248.03	0.55014	-9.27734e-06
4248.93	0.550812	-8.94165e-06
4249.83	0.550171	0.00024884
4250.67	0.550232	-7.59888e-06
4251.57	0.550385	-8.69751e-06
4252.47	0.55069	5.88074e-05
4253.31	0.549683	-6.56128e-06
4254.21	0.549377	4.57764e-07
4255.11	0.550751	1.49841e-05
4255.95	0.550507	-1.16577e-05
4256.85	0.549194	2.44141e-07
4257.75	0.55072	2.65503e-06
4258.59	0.549652	-4.27246e-06
4259.49	0.550232	-7.23267e-06
4260.39	0.549591	5.49316e-06
4261.25	-0.696503	-0.0230499
4262.13	0.550629	-7.2937e-06
4263.03	0.550568	-5.46265e-06
4263.89	-0.696899	-0.0158539
4264.77	0.550659	-1.11084e-05
4265.67	0.55011	-3.08228e-06
4266.55	0.000994873	0.00926208
4267.41	0.550385	-9.33838e-06
4268.31	0.549835	-8.54492e-07
4269.19	0.00159302	0.00568237
4270.05	0.550476	-9.94873e-06
4270.95	0.549194	1.95313e-06
4271.85	0.548859	0.0161011
4272.69	0.550171	-7.59888e-06
4273.59	0.55069	-8.08716e-06
4274.49	0.550049	0.00200958
4275.33	0.55011	-6.7749e-06
4276.23	0.549408	4.27246e-07
4277.13	0.550232	0.000259521
4277.97	0.549377	-1.77002e-06
4278.87	0.549469	-1.25122e-06
4279.77	0.550079	6.71082e-05
4280.61	0.550293	-9.73511e-06
4281.51	0.549225	9.46045e-07
4282.41	0.549866	2.24304e-05
4283.25	0.550873	-1.38245e-05
4284.15	0.55069	-1.09253e-05
4285.05	0.549408	1.37329e-05
4285.89	0.549286	-1.98364e-06
4286.79	0.550262	-7.59888e-06
4287.69	0.549774	2.19727e-06
4288.55	-0.697815	-0.0230774
4289.43	0.549438	-1.83105e-07
4290.33	0.551056	-6.95801e-06
4291.19	-0.697113	-0.0159058
4292.07	0.549316	-1.12915e-06
4292.97	0.549561	1.61743e-06
4293.85	-8.23975e-05	0.00923462
4294.71	0.55011	-5.24902e-06
4295.61	0.550415	-4.94385e-06
4296.49	0.000332642	0.0056842
4297.35	0.550995	-1.19629e-05
4298.25	0.550079	-5.61523e-06
4299.15	0.548676	0.0161407
4299.99	0.550781	-1.19629e-05
4300.89	0.550354	-7.59888e-06
4301.79	0.551025	0.00210541
4302.63	0.55011	-3.26538e-06
4303.53	0.549438	9.46045e-07
4304.43	0.550476	0.000272156
4305.27	0.549683	-4.24194e-06
4306.17	0.549683	-2.7771e-06
4307.07	0.550537	6.53381e-05
4307.91	0.550537	-7.47681e-06
4308.81	0.549652	-4.48608e-06
4309.71	0.550964	1.61438e-05
4310.55	0.549408	-2.56348e-06
4311.45	0.550964	-1.19324e-05
4312.35	0.550903	4.57764e-07
4313.19	0.550323	-4.69971e-06
4314.09	0.549469	-2.2583e-06
4314.99	0.550079	2.04468e-06
4315.85	-0.696716	-0.0231201
4316.73	0.549988	-4.73022e-06
4317.63	0.550323	0
4318.49	-0.698364	-0.0159607
4319.37	0.550385	-8.57544e-06
4320.27	0.5495	2.71606e-06
4321.15	0.00126648	0.009198
4322.01	0.54953	-2.83813e-06
4322.91	0.550934	-9.15527e-06
4323.79	0.00142517	0.00566895
4324.65	0.550171	-9.24683e-06
4325.55	0.55011	-5.24902e-06
4326.45	0.548859	0.0161743
4327.29	0.551025	-1.38855e-05
4328.19	0.549286	2.44141e-07
4329.09	0.55127	0.00223297
4329.93	0.551178	-1.28174e-05
4330.83	0.549469	-5.79834e-07
4331.73	0.550934	0.000279999
4332.57	0.549561	-2.80762e-06
4333.47	0.550995	-1.28784e-05
4334.37	0.550018	7.59277e-05
4335.21	0.551056	-1.18713e-05
4336.11	0.550598	-9.15527e-06
4337.01	0.549774	2.31018e-05
4337.85	0.550079	-5.67627e-06
4338.75	0.550964	-1.30615e-05
4339.65	0.549774	8.27026e-06
4340.49	0.550598	-1.06201e-05
4341.39	0.551239	-1.40381e-05
4342.29	0.550873	-3.38745e-06
4343.15	-0.697021	-0.023172
4344.03	0.550598	-9.42993e-06
4344.93	0.550049	-3.66211e-07
4345.79	-0.698547	-0.01604
4346.67	0.550049	-7.26318e-06
4347.57	0.550262	-8.23975e-07
4348.45	0.000305176	0.00917664
4349.31	0.550934	-1.19019e-05
4350.21	0.550232	-4.39453e-06
4351.09	0.0010498	0.00566559
4351.95	0.550781	-1.34277e-05
4352.85	0.549438	3.96729e-07
4353.75	0.550232	0.0162201
4354.59	0.550018	-9.64355e-06
4355.49	0.549988	-6.2561e-06
4356.39	0.549652	0.00236938
4357.23	0.551086	-1.41907e-05
4358.13	0.5495	-2.92969e-06
4359.03	0.55069	0.000293457
4359.87	0.551086	-1.46484e-05
4360.77	0.550354	-1.11389e-05
4361.67	0.549622	8.02002e-05
4362.51	0.551056	-1.33667e-05
4363.41	0.549408	-1.43433e-06
4364.31	0.550995	1.77917e-05
4365.15	0.549866	-5.0354e-06
4366.05	0.550751	-1.15967e-05
4366.95	0.550079	1.01318e-05
4367.79	0.550385	-8.88062e-06
4368.69	0.549194	1.52588e-07
4369.59	0.551056	-4.97437e-06
4370.45	-0.697662	-0.0232117
4371.33	0.5495	-2.68555e-06
4372.23	0.550842	-4.60815e-06
4373.09	-0.698456	-0.0161011
4373.97	0.549225	-8.23975e-07
4374.87	0.549164	3.78418e-06
4375.75	0.000927734	0.00914612
4376.61	0.5495	-5.37109e-06
4377.51	0.550079	-3.66211e-06
4378.39	0.00176697	0.00565155
4379.25	0.549988	-7.56836e-06
4380.15	0.549347	4.27246e-07
4381.05	0.550293	0.0162506
4381.89	0.551086	-1.32446e-05
4382.79	0.549713	-8.23975e-07
4383.69	0.54953	0.00251709
4384.53	0.549377	-3.78418e-06
4385.43	0.549774	-4.54712e-06
4386.33	0.550629	0.000306763
4387.17	0.550171	-8.39233e-06
4388.07	0.549774	-4.18091e-06
4388.97	0.550629	7.87964e-05
4389.81	0.549591	-3.20435e-06
4390.71	0.549316	9.46045e-07
4391.61	0.551239	1.93176e-05
4392.45	0.550568	-8.42285e-06
4393.35	0.550598	-1.06201e-05
4394.25	0.549255	1.44043e-05
4395.09	0.549927	-8.69751e-06
4395.99	0.550995	-1.24207e-05
4396.89	0.549652	6.89697e-06
4397.75	-0.696533	-0.0232788
4398.63	0.551056	-1.25427e-05
4399.53	0.551147	-5.95093e-06
4400.39	-0.698425	-0.016153
4401.27	0.549774	-8.17871e-06
4402.17	0.551117	-1.05896e-05
4403.05	0.00158691	0.00909119
4403.91	0.550049	-6.5918e-06
4404.81	0.549286	1.40381e-06
4405.69	0.000393677	0.00564697
4406.55	0.550934	-1.27869e-05
4407.45	0.549377	1.37329e-06
4408.35	0.549347	0.0163116
4409.19	0.549713	-4.02832e-06
4410.09	0.550903	-1.2146e-05
4410.99	0.549927	0.00268097
4411.83	0.550751	-1.28784e-05
4412.73	0.549316	1.5564e-06
4413.63	0.551117	0.000316681
4414.47	0.550629	-1.05591e-05
4415.37	0.549561	-1.0376e-06
4416.27	0.549591	9.10034e-05
4417.11	0.550262	-6.50024e-06
4418.01	0.549713	-4.24194e-06
4418.91	0.550873	2.02026e-05
4419.75	0.549316	-1.77002e-06
4420.65	0.551147	-1.37939e-05
4421.55	0.550385	6.68335e-06
4422.39	0.549805	-3.44849e-06
4423.29	0.551086	-1.34583e-05
4424.19	0.549988	5.09644e-06
4425.05	-0.697205	-0.023288
4425.93	0.549347	-1.7395e-06
4426.83	0.549347	6.5918e-06
4427.69	-0.697632	-0.0162079
4428.57	0.549377	-1.49536e-06
4429.47	0.550385	-4.63867e-06
4430.35	0.00161743	0.00905762
4431.21	0.550629	-1.19629e-05
4432.11	0.549591	1.5564e-06
4432.99	0.00178528	0.00562958
4433.85	0.551025	-1.32446e-05
4434.75	0.549377	2.71606e-06
4435.65	0.548798	0.016333
4436.49	0.549866	-6.16455e-06
4437.39	0.550903	-1.09558e-05
4438.29	0.551178	0.0027652
4439.13	0.549561	-3.72314e-06
4440.03	0.549377	-4.27246e-07
4440.93	0.549377	0.000338501
4441.77	0.550018	-6.16455e-06
4442.67	0.549286	-4.57764e-07
4443.57	0.551117	8.39233e-05
4444.41	0.549316	-3.23486e-06
4445.31	0.550873	-1.05896e-05
4446.21	0.55011	2.95105e-05
4447.05	0.551117	-1.35803e-05
4447.95	0.550354	-1.0498e-05
4448.85	0.550323	7.90405e-06
4449.69	0.549866	-6.50024e-06
4450.59	0.549377	6.10352e-07
4451.49	0.5495	7.38525e-06
4452.35	-0.697144	-0.0233124
4453.23	0.549683	-4.39453e-06
4454.13	0.550751	-5.0354e-06
4454.99	-0.697632	-0.0162323
4455.87	0.550842	-1.25427e-05
4456.77	0.549225	4.91333e-06
4457.65	0.00160828	0.00901489
4458.51	0.550262	-1.14441e-05
4459.41	0.549408	4.02832e-06
4460.29	0.00132751	0.00561157
4461.15	0.549744	-3.17383e-06
4462.05	0.549286	2.53296e-06
4462.95	0.548431	0.0163605
4463.79	0.549835	-5.49316e-06
4464.69	0.550812	-9.85718e-06
4465.59	0.549957	0.00294189
4466.43	0.551025	-1.35193e-05
4467.33	0.551147	-1.05286e-05
4468.23	0.550934	0.000340302
4469.07	0.549713	-6.13403e-06
4469.97	0.549255	3.66211e-07
4470.87	0.550323	9.44519e-05
4471.71	0.550171	-7.17163e-06
4472.61	0.549866	-2.28882e-06
4473.51	0.550812	2.53601e-05
4474.35	0.549286	-1.5564e-06
4475.25	0.549225	9.15527e-08
4476.15	0.549286	1.73035e-05
4476.99	0.550446	-8.94165e-06
4477.89	0.549316	6.71387e-07
4478.79	0.551056	-4.5166e-06
4479.65	-0.696472	-0.0233459
4480.53	0.549469	-4.42505e-06
4481.43	0.550293	-2.68555e-06
4482.29	-0.697632	-0.0162903
4483.17	0.550171	-7.35474e-06
4484.07	0.550934	-7.26318e-06
4484.95	0.00106201	0.00896912
4485.81	0.549377	-7.01904e-07
4486.71	0.550415	-6.19507e-06
4487.59	0.00205994	0.00559387
4488.45	0.549438	-2.19727e-06
4489.35	0.549469	1.12915e-06
4490.25	0.548584	0.0163971
4491.09	0.550262	-8.17871e-06
4491.99	0.550964	-1.07727e-05
4492.89	0.549561	0.00319122
4493.73	0.550598	-1.0437e-05
4494.63	0.549591	-6.10352e-07
4495.53	0.550201	0.000359711
4496.37	0.549408	-1.80054e-06
4497.27	0.550934	-1.11694e-05
4498.17	0.549408	0.000105774
4499.01	0.550842	-1.23901e-05
4499.91	0.549438	-1.86157e-06
4500.81	0.549225	3.67737e-05
4501.65	0.55011	-8.17871e-06
4502.55	0.550751	-7.17163e-06
4503.45	0.550568	8.72803e-06
4504.29	0.550293	-9.765625E-06
4505.19	0.549469	-3.38745e-06
4506.09	0.549255	9.0332e-06
4506.95	-0.697754	-0.0233704
4507.83	0.551117	-1.48621e-05
4508.73	0.55072	-3.84521e-06
4509.59	-0.69754	-0.0163605
4510.47	0.551025	-1.32751e-05
4511.37	0.549347	3.23486e-06
4512.25	0.000402832	0.00892639
4513.11	0.55011	-6.95801e-06
4514.01	0.55014	-3.14331e-06
4514.89	0.00136719	0.00557495
4515.75	0.549744	-3.87573e-06
4516.65	0.550995	-1.171875E-05
4517.55	0.548767	0.0164276
4518.39	0.550995	-1.32141e-05
4519.29	0.549438	2.44141e-07
4520.19	0.551117	0.00342987
4521.03	0.549896	-6.50024e-06
4521.93	0.549347	-1.09863e-06
4522.83	0.550903	0.000366302
4523.67	0.549561	-1.31226e-06
4524.57	0.550964	-1.20239e-05
4525.47	0.54953	0.00011026
4526.31	0.549408	-5.79834e-07
4527.21	0.550903	-1.09253e-05
4528.11	0.549286	3.88794e-05
4528.95	0.550873	-1.21765e-05
4529.85	0.549622	-2.92969e-06
4530.75	0.550262	1.02844e-05
4531.59	0.549438	-3.20435e-06
4532.49	0.550995	-1.33667e-05
4533.39	0.549286	8.57544e-06
4534.25	-0.696198	-0.0234161
4535.13	0.549408	-1.80054e-06
4536.03	0.550842	-5.15747e-06
4536.89	-0.698395	-0.01640625
4537.77	0.550018	-5.85937e-06
4538.67	0.55072	-8.30078e-06
4539.55	0.00157471	0.00888672
4540.41	0.550446	-9.49097e-06
4541.31	0.549255	2.10571e-06
4542.19	0.00184631	0.00556061
4543.05	0.549347	-2.44141e-06
4543.95	0.550629	-8.42285e-06
4544.85	0.548798	0.0164642
4545.69	0.549774	-4.24194e-06
4546.59	0.550049	-6.2561e-06
4547.49	0.549469	0.00375549
4548.33	0.550415	-1.04675e-05
4549.23	0.549835	-2.7771e-06
4550.13	0.549622	0.000392731
4550.97	0.550476	-1.171875E-05
4551.87	0.54953	-5.79834e-07
4552.77	0.551025	0.000104279
4553.61	0.549683	-4.18091e-06
4554.51	0.55014	-5.79834e-06
4555.41	0.550568	3.04871e-05
4556.25	0.549957	-5.37109e-06
4557.15	0.549896	-4.76074e-06
4558.05	0.550964	5.79834e-06
4558.89	0.549561	-2.83813e-06
4559.79	0.550964	-1.35498e-05
4560.69	0.550201	2.96021e-06
4561.55	-0.697388	-0.0234558
4562.43	0.550354	-7.69043e-06
4563.33	0.550446	-3.20435e-06
4564.19	-0.698303	-0.0164612
4565.07	0.54953	-1.86157e-06
4565.97	0.551086	-8.57544e-06
4566.85	0.000247192	0.00884094
4567.71	0.550934	-1.4679e-05
4568.61	0.549469	1.67847e-06
4569.49	0.00167236	0.00553864
4570.35	0.55069	-9.97925e-06
4571.25	0.549347	8.54492e-07
4572.15	0.549988	0.0164734
4572.99	0.549927	-5.7373e-06
4573.89	0.549438	-3.96729e-07
4574.79	0.550018	0.00410309
4575.63	0.550476	-1.1261e-05
4576.53	0.551025	-1.15356e-05
4577.43	0.549377	0.000407379
4578.27	0.54953	-2.92969e-06
4579.17	0.550842	-1.08948e-05
4580.07	0.549286	0.00012262
4580.91	0.549103	1.52588e-07
4581.81	0.550354	-1.00403e-05
4582.71	0.549347	4.33655e-05
4583.55	0.549438	-4.11987e-06
4584.45	0.551147	-1.33667e-05
4585.35	0.549683	1.44043e-05
4586.19	0.549957	-3.38745e-06
4587.09	0.549866	-8.91113e-06
4587.99	0.550476	4.48608e-06
4588.85	-0.696198	-0.0234985
4589.73	0.549835	-5.92041e-06
4590.63	0.551208	-7.72095e-06
4591.49	-0.69693	-0.0165192
4592.37	0.550964	-1.26343e-05
4593.27	0.551117	-1.0376e-05
4594.15	0.000732422	0.00878296
4595.01	0.550415	-1.02844e-05
4595.91	0.549805	-7.32422e-07
4596.79	0.00111084	0.00552277
4597.65	0.550903	-1.26648e-05
4598.55	0.549835	-2.7771e-06
4599.45	0.548767	0.0165039
4600.29	0.550903	-1.21155e-05
4601.19	0.550293	-5.70679e-06
4602.09	0.549408	0.00451355
4602.93	0.550079	-8.81958e-06
4603.83	0.550781	-1.18103e-05
4604.73	0.549316	0.000424561
4605.57	0.550934	-1.26953e-05
4606.47	0.551025	-1.10474e-05
4607.37	0.550171	0.00012204
4608.21	0.549927	-6.22559e-06
4609.11	0.550781	-1.12305e-05
4610.01	0.551117	3.36304e-05
4610.85	0.550262	-4.82178e-06
4611.75	0.550415	-6.50024e-06
4612.65	0.550842	7.59888e-06
4613.49	0.551178	-1.45874e-05
4614.39	0.549591	3.05176e-08
4615.29	0.549194	1.0376e-05
4616.15	-0.697845	-0.0235168
4617.03	0.550781	-1.22375e-05
4617.93	0.551025	-5.5542e-06
4618.79	-0.697998	-0.0165863
4619.67	0.549408	-1.86157e-06
4620.57	0.549286	3.78418e-06
4621.45	-3.66211e-05	0.00874023
4622.31	0.550903	-1.23291e-05
4623.21	0.550446	-6.5918e-06
4624.09	0.0018158	0.00549561
4624.95	0.549316	-1.40381e-06
4625.85	0.549652	-6.71387e-07
4626.75	0.55014	0.0165283
4627.59	0.550446	-8.63647e-06
4628.49	0.549286	3.05176e-07
4629.39	0.550781	0.0049408
4630.23	0.549744	-3.32642e-06
4631.13	0.549438	-3.05176e-07
4632.03	0.549561	0.000438782
4632.87	0.550903	-9.46045e-06
4633.77	0.549377	1.00708e-06
4634.67	0.549347	0.000129181
4635.51	0.550751	-1.18103e-05
4636.41	0.550568	-1.05896e-05
4637.31	0.550598	3.80554e-05
4638.15	0.550995	-1.45874e-05
4639.05	0.550079	-7.04956e-06
4639.95	0.549316	2.00806e-05
4640.79	0.549438	-2.53296e-06
4641.69	0.550354	-8.66699e-06
4642.59	0.550873	-1.09863e-06
4643.45	-0.697906	-0.0235596
4644.33	0.549347	-1.67847e-06
4645.23	0.550903	-3.2959e-06
4646.09	-0.697998	-0.0166412
4646.97	0.550323	-9.24683e-06
4647.87	0.550751	-6.50024e-06
4648.75	0.00162659	0.00869751
4649.61	0.549866	-1.61743e-06
4650.51	0.550171	-2.19727e-06
4651.39	0.00186462	0.00547729
4652.25	0.549316	-1.2207e-06
4653.15	0.550507	-7.23267e-06
4654.05	0.550049	0.0165527
4654.89	0.549438	-1.34277e-06
4655.79	0.549255	1.34277e-06
4656.69	0.54953	0.00529541
4657.53	0.55011	-7.04956e-06
4658.43	0.550873	-1.10168e-05
4659.33	0.550629	0.000445679
4660.17	0.549377	-2.10571e-06
4661.07	0.551025	-1.1261e-05
4661.97	0.550812	0.00012674
4662.81	0.549713	-7.62939e-06
4663.71	0.551025	-1.39771e-05
4664.61	0.550598	4.4342e-05
4665.45	0.551056	-1.37634e-05
4666.35	0.549438	-2.80762e-06
4667.25	0.549561	2.03552e-05
4668.09	0.550842	-1.25732e-05
4668.99	0.549316	-8.54492e-07
4669.89	0.550354	3.69263e-06
4670.75	-0.696716	-0.0236145
4671.63	0.549316	-1.09863e-06
4672.53	0.550781	-4.11987e-06
4673.39	-0.698242	-0.016687
4674.27	0.551056	-1.46484e-05
4675.17	0.550201	-2.16675e-06
4676.05	-1.2207e-05	0.00866699
4676.91	0.549683	-7.01904e-06
4677.81	0.551239	-9.73511e-06
4678.69	0.00101624	0.00546448
4679.55	0.550415	-9.8877e-06
4680.45	0.550323	-5.15747e-06
4681.35	0.548676	0.0165894
4682.19	0.55069	-1.1261e-05
4683.09	0.549866	-4.18091e-06
4683.99	0.550629	0.00561829
4684.83	0.549347	-3.26538e-06
4685.73	0.55072	-1.1261e-05
4686.63	0.550903	0.000459137
4687.47	0.549835	-9.91821e-06
4688.37	0.549347	-2.65503e-06
4689.27	0.549652	0.000137054
4690.11	0.549408	-2.16675e-06
4691.01	0.550934	-1.10779e-05
4691.91	0.550446	4.36096e-05
4692.75	0.549438	-3.66211e-06
4693.65	0.550842	-1.08948e-05
4694.55	0.551086	9.82666e-06
4695.39	0.549347	-2.0752e-06
4696.29	0.549377	0
4697.19	0.549713	7.72095e-06
4698.05	-0.697235	-0.0236267
4698.93	0.549194	1.2207e-07
4699.83	0.54953	2.56348e-06
4700.69	-0.69809	-0.0167419
4701.57	0.550629	-1.18713e-05
4702.47	0.550812	-6.16455e-06
4703.35	0.00015564	0.00862732
4704.21	0.549652	-4.48608e-06
4705.11	0.549316	3.93677e-06
4705.99	0.000570679	0.00544678
4706.85	0.551056	-1.33362e-05
4707.75	0.550781	-8.36182e-06
4708.65	0.549652	0.0166077
4709.49	0.549561	-5.76782e-06
4710.39	0.550964	-1.13525e-05
4711.29	0.551147	0.00582092
4712.13	0.551025	-1.29089e-05
4713.03	0.550385	-7.72095e-06
4713.93	0.549408	0.000480591
4714.77	0.549316	-7.93457e-07
4715.67	0.549683	-1.19019e-06
4716.57	0.550659	0.000138672
4717.41	0.551056	-1.29395e-05
4718.31	0.550476	-1.02539e-05
4719.21	0.549408	5.30396e-05
4720.05	0.549652	-5.43213e-06
4720.95	0.55072	-1.10474e-05
4721.85	0.551056	1.0376e-05
4722.69	0.550842	-1.2146e-05
4723.59	0.551025	-1.15967e-05
4724.49	0.549957	4.94385e-06
4725.35	-0.697906	-0.0236481
4726.23	0.550537	-9.61304e-06
4727.13	0.549927	2.22778e-06
4727.99	-0.698242	-0.0167816
4728.87	0.550598	-7.90405e-06
4729.77	0.549164	5.43213e-06
4730.65	6.10352e-06	0.00859375
4731.51	0.549591	-2.10571e-06
4732.41	0.550049	-2.96021e-06
4733.29	0.000750732	0.00543945
4734.15	0.549286	-9.76562e-07
4735.05	0.55069	-7.38525e-06
4735.95	0.549469	0.0166412
4736.79	0.551056	-1.17798e-05
4737.69	0.550201	-3.02124e-06
4738.59	0.550415	0.00609863
4739.43	0.551056	-1.38245e-05
4740.33	0.550964	-1.02234e-05
4741.23	0.55011	0.000494385
4742.07	0.550293	-1.04675e-05
4742.97	0.5495	-1.2207e-07
4743.87	0.549286	0.000154541
4744.71	0.549194	-1.67847e-06
4745.61	0.54953	2.74658e-07
4746.51	0.549622	5.52673e-05
4747.35	0.549896	-6.10352e-06
4748.25	0.549377	-9.15527e-08
4749.15	0.550476	1.59607e-05
4749.99	0.551056	-1.42517e-05
4750.89	0.550629	-1.08337e-05
4751.79	0.549561	8.20923e-06
4752.65	-0.69693	-0.0236694
4753.53	0.551117	-1.21765e-05
4754.43	0.550964	-7.62939e-06
4755.29	-0.69754	-0.0168365
4756.17	0.549988	-5.06592e-06
4757.07	0.551086	-7.96509e-06
4757.95	0.000369263	0.00856628
4758.81	0.549622	-3.93677e-06
4759.71	0.549255	2.89917e-06
4760.59	0.000704956	0.00542419
4761.45	0.550964	-1.25732e-05
4762.35	0.54953	-2.53296e-06
4763.25	0.54837	0.0166534
4764.09	0.550446	-1.14136e-05
4764.99	0.549713	-1.19019e-06
4765.89	0.549408	0.00636658
4766.73	0.549683	-4.73022e-06
4767.63	0.550476	-9.18579e-06
4768.53	0.550629	0.000504456
4769.37	0.551086	-1.09863e-05
4770.27	0.549225	-3.96729e-07
4771.17	0.549438	0.00016037
4772.01	0.549469	-2.83813e-06
4772.91	0.55014	-7.1106e-06
4773.81	0.550964	4.73022e-05
4774.65	0.551025	-1.31226e-05
4775.55	0.550903	-1.24817e-05
4776.45	0.549805	2.11182e-05
4777.29	0.551147	-1.3855e-05
4778.19	0.549316	-9.15527e-07
4779.09	0.55014	5.37109e-06
4779.95	-0.697845	-0.0237061
4780.83	0.550995	-1.26343e-05
4781.73	0.551025	-6.2561e-06
4782.59	-0.697266	-0.0168823
4783.47	0.551086	-1.25732e-05
4784.37	0.551147	-8.14819e-06
4785.25	0.00159912	0.0085083
4786.11	0.551025	-1.31531e-05
4787.01	0.551056	-1.01318e-05
4787.89	0.00192871	0.00539581
4788.75	0.55072	-1.0498e-05
4789.65	0.550964	-1.01929e-05
4790.56	0.55014	0.0166779
4791.4	0.55014	-4.24194e-06
4792.3	0.551117	-1.2085e-05
4793.2	0.549103	0.00661499
4794.04	0.550262	-5.24902e-06
4794.94	0.550903	-1.02844e-05
4795.84	0.550659	0.000518494
4796.68	0.550049	-8.23975e-06
4797.58	0.549255	3.66211e-07
4798.48	0.549774	0.000163269
4799.32	0.549561	-2.83813e-06
4800.22	0.549591	-1.37329e-06
4801.12	0.550293	5.5542e-05
4801.96	0.550446	-8.97217e-06
4802.86	0.549896	-5.49316e-06
4803.76	0.549866	2.03552e-05
4804.6	0.551056	-1.46484e-05
4805.5	0.549164	3.66211e-07
4806.4	0.550995	-2.56348e-06
4807.26	-0.696259	-0.0237701
4808.14	0.549408	-2.2583e-06
4809.04	0.549316	8.11768e-06
4809.9	-0.698242	-0.016925
4810.78	0.550995	-1.15356e-05
4811.68	0.550873	-5.27954e-06
4812.56	-7.32422e-05	0.00847778
4813.42	0.55014	-6.83594e-06
4814.32	0.551025	-1.03149e-05
4815.2	0.000244141	0.00538849
4816.06	0.549896	-4.42505e-06
4816.96	0.55072	-9.52148e-06
4817.86	0.548584	0.0167297
4818.7	0.549255	-2.38037e-06
4819.6	0.549316	5.49316e-07
4820.5	0.550629	0.00687012
4821.34	0.55069	-9.82666e-06
4822.24	0.551117	-1.27563e-05
4823.14	0.550659	0.000535889
4823.98	0.549652	-9.15527e-07
4824.88	0.550659	-1.28479e-05
4825.78	0.550018	0.000168671
4826.62	0.551117	-1.3092e-05
4827.52	0.549866	-4.79126e-06
4828.42	0.549316	6.54602e-05
4829.26	0.550568	-1.05591e-05
4830.16	0.551239	-1.24207e-05
4831.06	0.549744	2.10571e-05
4831.9	0.550537	-8.75854e-06
4832.8	0.550385	-9.3689e-06
4833.7	0.549377	1.15662e-05
4834.56	-0.697144	-0.0238098
4835.44	0.550934	-1.24512e-05
4836.34	0.550751	-4.79126e-06
4837.2	-0.696899	-0.0169891
4838.08	0.549927	-4.21143e-06
4838.98	0.550659	-5.40161e-06
4839.86	0.00105896	0.00844727
4840.72	0.550537	-1.15356e-05
4841.62	0.549438	1.43433e-06
4842.5	0.0016449	0.00536469
4843.36	0.551056	-1.35193e-05
4844.26	0.550751	-1.01624e-05
4845.16	0.548828	0.0167572
4846	0.551117	-1.3031e-05
4846.9	0.550446	-7.50732e-06
4847.8	0.549255	0.00708008
4848.64	0.549469	4.27246e-07
4849.54	0.551239	-1.08948e-05
4850.44	0.549896	0.000556946
4851.28	0.550507	-9.06372e-06
4852.18	0.549957	-3.90625e-06
4853.08	0.549713	0.000175812
4853.92	0.549683	-6.40869e-06
4854.82	0.549377	2.74658e-07
4855.72	0.550018	5.97534e-05
4856.56	0.549316	-1.15967e-06
4857.46	0.549408	-2.74658e-07
4858.36	0.5495	2.76184e-05
4859.2	0.550201	-5.24902e-06
4860.1	0.549805	-3.2959e-06
4861	0.550415	2.41089e-06
4861.86	-0.696075	-0.0238403
4862.74	0.549377	-3.26538e-06
4863.64	0.549774	4.97437e-06
4864.5	-0.697052	-0.0170441
4865.38	0.550568	-1.21765e-05
4866.28	0.549683	5.24902e-06
4867.16	3.05176e-06	0.00839844
4868.02	0.55072	-1.09863e-05
4868.92	0.549988	-2.92969e-06
4869.8	0.00168762	0.00535431
4870.66	0.550507	-1.05896e-05
4871.56	0.551178	-1.12e-05
4872.46	0.549774	0.0167847
4873.3	0.549561	-3.75366e-06
4874.2	0.550964	-1.0498e-05
4875.1	0.550934	0.00726471
4875.94	0.550323	-1.01624e-05
4876.84	0.549194	6.40869e-07
4877.74	0.550385	0.000573425
4878.58	0.550293	-9.67407e-06
4879.48	0.549408	3.05176e-08
4880.38	0.550262	0.000179504
4881.22	0.551025	-1.41296e-05
4882.12	0.549255	-5.79834e-07
4883.02	0.550995	5.86853e-05
4883.86	0.550446	-9.39941e-06
4884.76	0.549835	-6.19507e-06
4885.66	0.550598	2.17285e-05
4886.5	0.549591	-3.66211e-06
4887.4	0.550079	-6.92749e-06
4888.3	0.549744	1.15051e-05
4889.16	-0.69635	-0.0238556
4890.04	0.549957	-4.91333e-06
4890.94	0.550903	-3.41797e-06
4891.8	-0.696747	-0.0170837
4892.68	0.550629	-1.03149e-05
4893.58	0.549866	6.40869e-07
4894.46	0.00128479	0.00835571
4895.32	0.549744	-5.64575e-06
4896.22	0.550568	-6.50024e-06
4897.1	0.000256348	0.00533478
4897.96	0.550476	-1.12915e-05
4898.86	0.550323	-3.75366e-06
4899.76	0.548737	0.016806
4900.6	0.550751	-1.22986e-05
4901.5	0.549927	-1.89209e-06
4902.4	0.549164	0.00745422
4903.24	0.550446	-8.91113e-06
4904.14	0.550781	-1.15051e-05
4905.04	0.549286	0.000597839
4905.88	0.550812	-1.23901e-05
4906.78	0.550842	-1.15662e-05
4907.68	0.549347	0.00019101
4908.52	0.551025	-1.44043e-05
4909.42	0.549286	-3.96729e-07
4910.32	0.551147	6.20117e-05
4911.16	0.549988	-7.26318e-06
4912.06	0.549286	0
4912.96	0.550903	2.0752e-05
4913.8	0.549316	-1.12915e-06
4914.7	0.549347	-2.31934e-06
4915.6	0.549377	1.41602e-05
4916.46	-0.697632	-0.0238678
4917.34	0.550842	-1.25732e-05
4918.24	0.549561	7.35474e-06
4919.1	-0.696533	-0.0171173
4919.98	0.549438	-1.92261e-06
4920.88	0.551056	-5.88989e-06
4921.76	0.000427246	0.00831909
4922.62	0.550781	-1.19629e-05
4923.52	0.549805	-1.64795e-06
4924.4	0.00100708	0.00530762
4925.26	0.549286	-2.01416e-06
4926.16	0.549194	2.89917e-06
4927.06	0.550293	0.0168121
4927.9	0.549713	-6.83594e-06
4928.8	0.551117	-1.02539e-05
4929.7	0.549072	0.00765076
4930.54	0.55072	-1.19629e-05
4931.44	0.549316	2.31934e-06
4932.34	0.551056	0.0006073
4933.18	0.550903	-1.22681e-05
4934.08	0.549957	-3.87573e-06
4934.98	0.55011	0.000191559
4935.82	0.549927	-4.82178e-06
4936.72	0.550812	-1.30615e-05
4937.62	0.549377	7.54089e-05
4938.46	0.550507	-1.08032e-05
4939.36	0.549438	-1.37329e-06
4940.26	0.550598	2.28882e-05
4941.1	0.549255	-3.05176e-06
4942	0.549683	-3.05176e-06
4942.9	0.550873	5.24902e-06
4943.76	-0.69754	-0.0238892
4944.64	0.549744	-5.15747e-06
4945.54	0.550995	-3.35693e-06
4946.4	-0.696564	-0.01716
4947.28	0.549713	-4.24194e-06
4948.18	0.550751	-4.66919e-06
4949.06	1.52588e-05	0.008255
4949.92	0.551086	-1.37634e-05
4950.82	0.551178	-7.20215e-06
4951.7	0.00119934	0.00528992
4952.56	0.550781	-1.08337e-05
4953.46	0.550812	-8.11768e-06
4954.36	0.548523	0.0168304
4955.2	0.551208	-1.46179e-05
4956.1	0.549225	2.53296e-06
4957	0.550568	0.00779724
4957.84	0.54953	-3.17383e-06
4958.74	0.551147	-1.19019e-05
4959.64	0.549408	0.00063446
4960.48	0.549164	-3.66211e-07
4961.38	0.549316	2.38037e-06
4962.28	0.550934	0.000192139
4963.12	0.550415	-1.05591e-05
4964.02	0.549957	-5.34058e-06
4964.92	0.551056	6.81458e-05
4965.76	0.549408	-2.83813e-06
4966.66	0.551056	-1.35193e-05
4967.56	0.54953	3.2074e-05
4968.4	0.55014	-9.39941e-06
4969.3	0.550568	-8.08716e-06
4970.2	0.549164	1.81885e-05
4971.06	-0.697174	-0.0239105
4971.94	0.549286	0
4972.84	0.550659	-2.34985e-06
4973.7	-0.697784	-0.0171967
4974.58	0.551147	-1.48315e-05
4975.48	0.549194	6.13403e-06
4976.36	0.00159302	0.00821533
4977.22	0.54953	-2.19727e-06
4978.12	0.550323	-3.57056e-06
4979	0.000793457	0.00527557
4979.86	0.550323	-8.81958e-06
4980.76	0.550812	-7.99561e-06
4981.66	0.548523	0.0168396
4982.5	0.550232	-9.09424e-06
4983.4	0.550964	-8.63647e-06
4984.3	0.550293	0.00794373
4985.14	0.549652	-3.72314e-06
4986.04	0.549255	1.49536e-06
4986.94	0.549927	0.000648499
4987.78	0.550598	-1.04065e-05
4988.68	0.551117	-1.25427e-05
4989.58	0.549164	0.00021228
4990.42	0.551025	-1.31226e-05
4991.32	0.550629	-7.38525e-06
4992.22	0.549591	8.14819e-05
4993.06	0.549225	-2.7771e-06
4993.96	0.550049	-5.24902e-06
4994.86	0.550262	2.9541e-05
4995.7	0.550293	-9.33838e-06
4996.6	0.549255	1.2207e-07
4997.5	0.55011	1.02234e-05
4998.36	-0.696167	-0.0239197
4999.24	0.549347	7.93457e-07
5000.14	0.55014	2.10571e-06
5001	-0.697144	-0.0172394
5001.88	0.550476	-8.08716e-06
5002.78	0.550018	-2.92969e-06
5003.66	0.00123901	0.00817566
5004.52	0.550446	-8.14819e-06
5005.42	0.549835	2.44141e-07
5006.3	0.000686646	0.00525665
5007.16	0.550751	-9.94873e-06
5008.06	0.550537	-5.58472e-06
5008.96	0.548706	0.0168488
5009.8	0.549805	-5.70679e-06
5010.7	0.550934	-1.0498e-05
5011.6	0.550507	0.00805359
5012.44	0.550629	-1.15051e-05
5013.34	0.549347	1.5564e-06
5014.24	0.55069	0.000661011
5015.08	0.551086	-1.24207e-05
5015.98	0.549713	-3.35693e-07
5016.88	0.550385	0.00020871
5017.72	0.55072	-1.08337e-05
5018.62	0.5495	-3.96729e-07
5019.52	0.550934	7.55005e-05
5020.36	0.550568	-1.00098e-05
5021.26	0.54953	-2.16675e-06
5022.16	0.549774	3.25012e-05
5023	0.55014	-8.17871e-06
5023.9	0.549835	-6.95801e-06
5024.8	0.55072	8.81958e-06
5025.66	-0.696259	-0.0239227
5026.54	0.54953	-9.46045e-07
5027.44	0.550934	-2.65503e-06
5028.3	-0.697815	-0.0172394
5029.18	0.550079	-6.50024e-06
5030.08	0.550873	-5.37109e-06
5030.96	0.00043335	0.00812683
5031.82	0.551056	-1.33362e-05
5032.72	0.549561	1.00708e-06
5033.6	0.000704956	0.00523407
5034.46	0.550842	-1.20544e-05
5035.36	0.549286	2.59399e-06
5036.26	0.550171	0.0168488
5037.1	0.550781	-9.79614e-06
5038	0.550629	-4.60815e-06
5038.9	0.549957	0.00817871
5039.74	0.549774	-4.54712e-06
5040.64	0.549744	-1.77002e-06
5041.54	0.550873	0.00067749
5042.38	0.550018	-8.02612e-06
5043.28	0.550079	-5.79834e-06
5044.18	0.550415	0.000215363
5045.02	0.550659	-1.04065e-05
5045.92	0.549561	-3.54004e-06
5046.82	0.551086	7.83997e-05
5047.66	0.54953	-3.8147e-06
5048.56	0.550293	-8.48389e-06
5049.46	0.550385	2.98462e-05
5050.3	0.550934	-1.2146e-05
5051.2	0.550568	-9.00269e-06
5052.1	0.549561	1.69678e-05
5052.96	-0.697327	-0.0239136
5053.84	0.55069	-1.24207e-05
5054.74	0.550964	-2.41089e-06
5055.6	-0.697906	-0.0172668
5056.48	0.550995	-1.22375e-05
5057.38	0.549561	3.17383e-06
5058.26	-6.10352e-06	0.00809326
5059.12	0.550964	-1.26648e-05
5060.02	0.5495	8.23975e-07
5060.9	0.00171814	0.0052063
5061.76	0.549927	-6.92749e-06
5062.66	0.549744	1.2207e-06
5063.56	0.550018	0.0168671
5064.4	0.550873	-1.26648e-05
5065.3	0.550903	-1.0437e-05
5066.2	0.550262	0.00829163
5067.04	0.550964	-1.38245e-05
5067.94	0.550415	-7.1106e-06
5068.84	0.549713	0.00070282
5069.68	0.5495	-2.7771e-06
5070.58	0.54953	-4.08936e-06
5071.48	0.549866	0.000228577
5072.32	0.550995	-1.39771e-05
5073.22	0.550995	-1.07727e-05
5074.12	0.550812	8.23669e-05
5074.96	0.550568	-1.16577e-05
5075.86	0.549713	-2.83813e-06
5076.76	0.550018	3.53088e-05
5077.6	0.549347	-1.19019e-06
5078.5	0.551147	-1.37939e-05
5079.4	0.549316	1.53809e-05
5080.26	-0.697479	-0.0239441
5081.14	0.550995	-1.27258e-05
5082.04	0.551086	-1.46484e-06
5082.9	-0.697205	-0.0173187
5083.78	0.5495	-1.58691e-06
5084.68	0.549774	2.7771e-06
5085.56	0.00144958	0.00804749
5086.42	0.550751	-1.12e-05
5087.32	0.550568	-8.63647e-06
5088.2	0.000527954	0.0052002
5089.06	0.549347	-4.57764e-07
5089.96	0.549835	-6.10352e-07
5090.86	0.549438	0.0168701
5091.7	0.550049	-7.65991e-06
5092.6	0.549683	-2.50244e-06
5093.5	0.549072	0.00830078
5094.34	0.549164	4.27246e-07
5095.24	0.550049	-2.44141e-06
5096.14	0.549225	0.000710144
5096.98	0.549805	-4.97437e-06
5097.88	0.550934	-1.17493e-05
5098.78	0.550232	0.00022644
5099.62	0.549744	-3.26538e-06
5100.52	0.550934	-1.2207e-05
5101.42	0.550751	8.35266e-05
5102.26	0.549774	-5.37109e-06
5103.16	0.551086	-1.26038e-05
5104.06	0.550842	2.98767e-05
5104.9	0.551025	-1.27563e-05
5105.8	0.550385	-9.79614e-06
5106.7	0.549591	1.61743e-05
5107.56	-0.697235	-0.023877
5108.44	0.550629	-9.52148e-06
5109.34	0.549347	9.8877e-06
5110.2	-0.698242	-0.0172791
5111.08	0.550049	-3.02124e-06
5111.98	0.550323	-1.28174e-06
5112.86	9.15527e-06	0.00806885
5113.72	0.549347	-8.54492e-07
5114.62	0.549927	-6.10352e-07
5115.5	0.000418091	0.00521545
5116.36	0.549408	-1.52588e-06
5117.26	0.550995	-9.73511e-06
5118.16	0.55011	0.0168884
5119	0.550385	-8.97217e-06
5119.9	0.550262	-5.0354e-06
5120.8	0.550751	0.00831909
5121.64	0.550995	-1.33667e-05
5122.54	0.55011	-6.28662e-06
5123.44	0.549438	0.000725403
5124.28	0.549469	-2.19727e-06
5125.18	0.550415	-7.50732e-06
5126.08	0.550537	0.000231445
5126.92	0.550293	-7.56836e-06
5127.82	0.550079	-6.2561e-06
5128.72	0.550598	8.71887e-05
5129.56	0.551056	-1.34888e-05
5130.46	0.550537	-6.34766e-06
5131.36	0.551025	3.06396e-05
5132.2	0.549377	-2.28882e-06
5133.1	0.549774	-3.08228e-06
5134	0.549591	1.79749e-05
5134.86	-0.69754	-0.0239227
5135.74	0.550781	-1.18103e-05
5136.64	0.550812	-5.18799e-07
5137.5	-0.69693	-0.0173584
5138.38	0.549255	-4.57764e-07
5139.28	0.550262	-2.89917e-06
5140.16	0.000778198	0.00802917
5141.02	0.550781	-1.23901e-05
5141.92	0.551147	-9.39941e-06
5142.8	0.000540161	0.00519318
5143.66	0.549377	-2.01416e-06
5144.56	0.549377	1.06812e-06
5145.46	0.549042	0.0169098
5146.3	0.551056	-1.32751e-05
5147.2	0.550385	-6.13403e-06
5148.1	0.549866	0.00844421
5148.94	0.550201	-1.03149e-05
5149.84	0.549438	1.40381e-06
5150.74	0.549347	0.000743713
5151.58	0.549957	-8.23975e-06
5152.48	0.549774	-4.45557e-06
5153.38	0.549988	0.000243652
5154.22	0.549408	-2.59399e-06
5155.12	0.549469	-1.67847e-06
5156.02	0.54953	9.90295e-05
5156.86	0.549469	-5.49316e-07
5157.76	0.550751	-1.15967e-05
5158.66	0.550751	3.49121e-05
5159.5	0.551086	-1.27258e-05
5160.4	0.550354	-1.00708e-05
5161.3	0.551117	8.72803e-06
5162.16	-0.696014	-0.0239624
5163.04	0.55069	-1.11389e-05
5163.94	0.549652	8.91113e-06
5164.8	-0.697815	-0.0173767
5165.68	0.549438	-1.92261e-06
5166.58	0.549561	4.30298e-06
5167.46	0.000289917	0.00799866
5168.32	0.549622	-5.24902e-06
5169.22	0.549927	-9.15527e-07
5170.1	0.00043335	0.00517487
5170.96	0.549805	-4.66919e-06
5171.86	0.550385	-6.43921e-06
5172.76	0.549622	0.0169037
5173.6	0.550262	-7.08008e-06
5174.5	0.551086	-1.01929e-05
5175.4	0.550049	0.00847473
5176.24	0.550995	-1.35498e-05
5177.14	0.549286	1.15967e-06
5178.04	0.550507	0.000745239
5178.88	0.550079	-8.60596e-06
5179.78	0.551117	-9.97925e-06
5180.68	0.55072	0.000242889
5181.52	0.551086	-1.33362e-05
5182.42	0.55069	-1.171875E-05
5183.32	0.550751	9.23767e-05
5184.16	0.549408	-1.89209e-06
5185.06	0.550293	-7.1106e-06
5185.96	0.550995	3.48511e-05
5186.8	0.550415	-1.28174e-05
5187.7	0.550079	-4.60815e-06
5188.6	0.549377	2.15759e-05
5189.46	-0.697418	-0.0239655
5190.34	0.550659	-9.58252e-06
5191.24	0.549255	1.297e-05
5192.1	-0.698242	-0.0174103
5192.98	0.549408	-1.64795e-06
5193.88	0.54953	3.90625e-06
5194.76	0.00071106	0.00794983
5195.62	0.550659	-1.24207e-05
5196.52	0.549744	-4.27246e-07
5197.4	0.000424194	0.00515503
5198.26	0.550049	-4.54712e-06
5199.16	0.549713	-1.12915e-06
5200.06	0.548523	0.0169403
5200.9	0.549469	-3.78418e-06
5201.8	0.549225	1.06812e-06
5202.7	0.550812	0.00864258
5203.54	0.549835	-4.54712e-06
5204.44	0.549316	7.93457e-07
5205.34	0.549316	0.000780029
5206.18	0.550812	-1.15356e-05
5207.08	0.550415	-6.40869e-06
5207.98	0.550354	0.000254211
5208.82	0.551147	-1.3916e-05
5209.72	0.549286	1.52588e-07
5210.62	0.550903	9.61609e-05
5211.46	0.550598	-9.39941e-06
5212.36	0.549622	-4.88281e-06
5213.26	0.550812	3.57361e-05
5214.1	0.551056	-1.40076e-05
5215	0.550201	-7.32422e-06
5215.9	0.549622	2.01111e-05
5216.76	-0.697693	-0.0240051
5217.64	0.549408	-3.05176e-07
5218.54	0.550934	4.88281e-07
5219.4	-0.697052	-0.0174744
5220.28	0.551025	-1.35193e-05
5221.18	0.550354	-3.35693e-07
5222.06	0.00143433	0.00791016
5222.92	0.550842	-1.23901e-05
5223.82	0.549194	4.48608e-06
5224.7	0.00195007	0.0051178
5225.56	0.550964	-1.34277e-05
5226.46	0.549316	3.66211e-06
5227.36	0.548676	0.0169495
5228.2	0.550262	-9.00269e-06
5229.1	0.550018	-2.89917e-06
5230	0.549011	0.00874329
5230.84	0.549408	3.05176e-08
5231.74	0.550781	-9.58252e-06
5232.64	0.550964	0.000785522
5233.48	0.55069	-1.05286e-05
5234.38	0.549286	-1.28174e-06
5235.28	0.550079	0.000261383
5236.12	0.549927	-7.47681e-06
5237.02	0.549683	-3.60107e-06
5237.92	0.551117	9.69849e-05
5238.76	0.549469	-2.38037e-06
5239.66	0.549652	-3.08228e-06
5240.56	0.549347	4.89502e-05
5241.4	0.550903	-1.44348e-05
5242.3	0.551025	-1.40686e-05
5243.2	0.551056	1.2207e-05
5244.06	-0.696259	-0.0240356
5244.94	0.549927	-8.08716e-06
5245.84	0.550293	3.41797e-06
5246.7	-0.696594	-0.017514
5247.58	0.5495	-2.19727e-06
5248.48	0.549438	8.36182e-06
5249.36	-3.05176e-06	0.00787964
5250.22	0.54953	-2.47192e-06
5251.12	0.551025	-7.59888e-06
5252	0.000509644	0.00510742
5252.86	0.549408	-1.46484e-06
5253.76	0.550995	-8.63647e-06
5254.66	0.549805	0.0169525
5255.5	0.550568	-8.27026e-06
5256.4	0.549988	-1.80054e-06
5257.3	0.549133	0.00881958
5258.14	0.549377	-2.16675e-06
5259.04	0.550476	-1.00098e-05
5259.94	0.549774	0.000812988
5260.78	0.549286	-1.06812e-06
5261.68	0.550171	-4.57764e-06
5262.58	0.550751	0.00026236
5263.42	0.550201	-8.08716e-06
5264.32	0.549805	-3.57056e-06
5265.22	0.549774	0.000111206
5266.06	0.549347	-6.40869e-07
5266.96	0.55072	-1.04065e-05
5267.86	0.550446	4.22668e-05
5268.7	0.549377	-1.64795e-06
5269.6	0.549377	7.32422e-07
5270.5	0.549347	2.39868e-05
5271.36	-0.697662	-0.0240509
5272.24	0.549408	-1.46484e-06
5273.14	0.549255	1.23291e-05
5274	-0.697388	-0.0175537
5274.88	0.54953	-3.60107e-06
5275.78	0.550507	4.57764e-07
5276.66	0.000228882	0.00783081
5277.52	0.550385	-1.02844e-05
5278.42	0.549286	5.67627e-06
5279.3	0.000372314	0.00508057
5280.16	0.549408	-1.25122e-06
5281.06	0.549438	2.7771e-06
5281.96	0.549103	0.0169525
5282.8	0.550079	-6.22559e-06
5283.7	0.550415	-2.71606e-06
5284.6	0.549011	0.00890198
5285.44	0.549377	-2.38037e-06
5286.34	0.549286	-3.05176e-08
5287.24	0.549347	0.000830383
5288.08	0.549561	-3.05176e-06
5288.98	0.550018	-3.93677e-06
5289.88	0.550995	0.000268219
5290.72	0.549164	-4.57764e-07
5291.62	0.550873	-1.0376e-05
5292.52	0.550568	0.000107819
5293.36	0.549896	-6.80542e-06
5294.26	0.550873	-8.66699e-06
5295.16	0.550995	4.1626e-05
5296	0.550385	-1.13525e-05
5296.9	0.5495	-1.5564e-06
5297.8	0.549713	1.828e-05
5298.66	-0.697968	-0.0240784
5299.54	0.550018	-6.01196e-06
5300.44	0.550262	6.28662e-06
5301.3	-0.697876	-0.0175934
5302.18	0.549438	-3.23486e-06
5303.08	0.550873	-4.08936e-06
5303.96	0.00154724	0.00780029
5304.82	0.550873	-1.23901e-05
5305.72	0.55069	-5.49316e-06
5306.6	0.00105896	0.00506744
5307.46	0.550781	-8.69751e-06
5308.36	0.549377	3.11279e-06
5309.26	0.549225	0.0169617
5310.1	0.550751	-1.19629e-05
5311	0.551147	-1.12915e-05
5311.9	0.549866	0.00898132
5312.74	0.550934	-1.27869e-05
5313.64	0.550629	-8.05664e-06
5314.54	0.549408	0.000845642
5315.38	0.549347	-1.95313e-06
5316.28	0.549591	-1.98364e-06
5317.18	0.550781	0.000276581
5318.02	0.550354	-8.42285e-06
5318.92	0.5495	1.52588e-07
5319.82	0.549683	0.000117554
5320.66	0.549225	-1.43433e-06
5321.56	0.549408	-3.38745e-06
5322.46	0.549805	4.92249e-05
5323.3	0.549988	-8.11768e-06
5324.2	0.549652	-2.38037e-06
5325.1	0.550293	2.20032e-05
5325.96	-0.697876	-0.0240936
5326.84	0.550751	-9.15527e-06
5327.74	0.54953	1.05896e-05
5328.6	-0.696686	-0.01763
5329.48	0.55014	-8.27026e-06
5330.38	0.550934	-3.9978e-06
5331.26	0.00151367	0.00776062
5332.12	0.550507	-8.48389e-06
5333.02	0.549316	4.88281e-06
5333.9	0.00172119	0.00503967
5334.76	0.54953	-1.83105e-06
5335.66	0.551056	-8.36182e-06
5336.56	0.549927	0.0169739
5337.4	0.549683	-3.38745e-06
5338.3	0.549286	1.25122e-06
5339.2	0.55011	0.00906067
5340.04	0.549408	-2.10571e-06
5340.94	0.551025	-1.09558e-05
5341.84	0.550354	0.000861511
5342.68	0.549622	-2.38037e-06
5343.58	0.550018	-4.48608e-06
5344.48	0.550629	0.000282532
5345.32	0.551086	-1.40686e-05
5346.22	0.549377	-3.96729e-07
5347.12	0.5495	0.000121246
5347.96	0.550629	-1.19324e-05
5348.86	0.549988	-8.3313e-06
5349.76	0.549744	5.43213e-05
5350.6	0.550995	-1.44653e-05
5351.5	0.549957	-5.21851e-06
5352.4	0.550385	1.66016e-05
5353.26	-0.696167	-0.024118
5354.14	0.550659	-9.42993e-06
5355.04	0.549286	1.34888e-05
5355.9	-0.697754	-0.0176666
5356.78	0.550293	-8.08716e-06
5357.68	0.550323	9.46045e-07
5358.56	0.000610352	0.00772705
5359.42	0.549774	-3.78418e-06
5360.32	0.551056	-7.38525e-06
5361.2	0.00120544	0.00500977
5362.06	0.550354	-1.01318e-05
5362.96	0.550323	-4.60815e-06
5363.86	0.55014	0.0169769
5364.7	0.549438	-7.93457e-07
5365.6	0.551025	-1.0376e-05
5366.5	0.550354	0.00909729
5367.34	0.551025	-1.31836e-05
5368.24	0.549286	1.46484e-06
5369.14	0.551025	0.000870667
5369.98	0.550262	-8.69751e-06
5370.88	0.550385	-6.31714e-06
5371.78	0.550873	0.000288605
5372.62	0.550995	-1.28174e-05
5373.52	0.549347	-6.40869e-07
5374.42	0.550018	0.000122559
5375.26	0.549255	-1.52588e-06
5376.16	0.549347	-1.40381e-06
5377.06	0.551025	4.50134e-05
5377.9	0.549408	-2.22778e-06
5378.8	0.549774	-1.52588e-06
5379.7	0.550903	1.63879e-05
5380.56	-0.697388	-0.0241302
5381.44	0.549438	-3.05176e-07
5382.34	0.549164	1.44043e-05
5383.2	-0.697693	-0.0177002
5384.08	0.550171	-6.40869e-06
5384.98	0.549438	5.7373e-06
5385.86	0.001651	0.00769348
5386.72	0.551056	-1.37634e-05
5387.62	0.549316	3.96729e-06
5388.5	0.00027771	0.005
5389.36	0.551025	-1.32141e-05
5390.26	0.549438	1.67847e-06
5391.16	0.55011	0.0169861
5392	0.551117	-1.36719e-05
5392.9	0.549316	1.19019e-06
5393.8	0.550751	0.00916443
5394.64	0.550232	-9.0332e-06
5395.54	0.549988	-3.44849e-06
5396.44	0.549225	0.000902405
5397.28	0.550781	-1.05591e-05
5398.18	0.549316	-1.86157e-06
5399.08	0.549286	0.000308411
5399.92	0.550934	-1.28784e-05
5400.82	0.550201	-4.73022e-06
5401.72	0.550781	0.000118195
5402.56	0.549286	-2.44141e-07
5403.46	0.550079	-5.37109e-06
5404.36	0.549377	6.03027e-05
5405.2	0.550873	-1.23596e-05
5406.1	0.549377	-1.31226e-06
5407	0.551025	1.59302e-05
5407.86	-0.697571	-0.0241425
5408.74	0.549683	-3.57056e-06
5409.64	0.55069	4.54712e-06
5410.5	-0.697144	-0.0177246
5411.38	0.551117	-1.2146e-05
5412.28	0.550049	3.11279e-06
5413.16	0.00133667	0.00766602
5414.02	0.550446	-6.10352e-06
5414.92	0.549438	1.49536e-06
5415.8	0.000506592	0.00497986
5416.66	0.550201	-6.83594e-06
5417.56	0.550995	-7.14111e-06
5418.46	0.549164	0.01698
5419.3	0.549469	-2.04468e-06
5420.2	0.550354	-6.2561e-06
5421.1	0.55069	0.00923767
5421.94	0.550049	-7.17163e-06
5422.84	0.549835	-2.16675e-06
5423.74	0.550446	0.000913696
5424.58	0.550537	-9.3689e-06
5425.48	0.550568	-8.14819e-06
5426.38	0.550049	0.000307739
5427.22	0.549133	-1.40381e-06
5428.12	0.550873	-1.03455e-05
5429.02	0.549927	0.0001297
5429.86	0.549469	-2.47192e-06
5430.76	0.549347	-2.92969e-06
5431.66	0.550842	5.20325e-05
5432.5	0.549927	-5.98145e-06
5433.4	0.549683	-2.89917e-06
5434.3	0.55069	2.19421e-05
5435.16	-0.697845	-0.0241638
5436.04	0.549683	-3.78418e-06
5436.94	0.55011	8.08716e-06
5437.8	-0.696442	-0.0177643
5438.68	0.549408	-1.15967e-06
5439.58	0.551086	-3.32642e-06
5440.46	0.000985718	0.00763245
5441.32	0.549622	-3.35693e-06
5442.22	0.550964	-5.88989e-06
5443.1	0.00160522	0.00495331
5443.96	0.549713	-3.20435e-06
5444.86	0.551056	-9.94873e-06
5445.76	0.548645	0.0170074
5446.6	0.549225	-2.13623e-07
5447.5	0.550964	-1.01318e-05
5448.4	0.549408	0.00930481
5449.24	0.550842	-1.27869e-05
5450.14	0.550446	-1.05591e-05
5451.04	0.549347	0.000940857
5451.88	0.551056	-1.42517e-05
5452.02	0.550415	-8.75854e-06