File: Edgar/20240529/20240529/electrodeposition_pulsed_potential_20240529_A/pulses_3000_to_4000.txt
Time (s)	WE(1).Potential (V)	WE(1).Current (A)
4152.55	-0.698944	-0.0236206
4153.43	0.5289	6.80542e-06
4154.33	0.527985	3.61633e-05
4155.19	-0.698944	-0.0167603
4156.07	0.529236	1.92261e-06
4156.97	0.52832	3.16162e-05
4157.85	0.000387573	0.00821533
4158.71	0.528778	8.81958e-06
4159.61	0.529419	1.78223e-05
4160.49	0.000946045	0.00536743
4161.35	0.528046	1.30005e-05
4162.25	0.529236	1.76392e-05
4163.15	0.5289	0.016391
4163.99	0.528168	1.2207e-05
4164.89	0.529602	1.2146e-05
4165.79	0.52771	0.00874939
4166.63	0.528046	1.16882e-05
4167.53	0.529602	8.8501e-06
4168.43	0.529449	0.000592651
4169.27	0.529236	1.49536e-06
4170.17	0.527954	1.87073e-05
4171.07	0.529724	0.000162903
4171.91	0.527893	1.11084e-05
4172.81	0.528351	1.30005e-05
4173.71	0.529175	8.17871e-05
4174.55	0.528107	1.07727e-05
4175.45	0.528259	1.44043e-05
4176.35	0.528015	5.95703e-05
4177.19	0.529602	-1.43433e-06
4178.09	0.528076	1.63269e-05
4178.99	0.529663	3.46069e-05
4179.85	-0.697784	-0.0236786
4180.73	0.528656	1.13831e-05
4181.63	0.528412	3.47595e-05
4182.49	-0.699066	-0.0167816
4183.37	0.528076	1.36108e-05
4184.27	0.529327	2.07214e-05
4185.15	-0.000283813	0.00822449
4186.01	0.529602	3.479e-06
4186.91	0.529327	1.84631e-05
4187.79	0.000744629	0.0053949
4188.65	0.52829	1.09253e-05
4189.55	0.528107	2.58484e-05
4190.45	0.527924	0.0164612
4191.29	0.529205	3.9978e-06
4192.19	0.529266	1.43738e-05
4193.09	0.528442	0.00890198
4193.93	0.529694	3.35693e-07
4194.83	0.528839	1.42517e-05
4195.73	0.529541	0.000611877
4196.57	0.528748	7.56836e-06
4197.47	0.528473	1.35193e-05
4198.37	0.529602	0.000166351
4199.21	0.527954	1.2146e-05
4200.11	0.529053	9.46045e-06
4201.01	0.528595	8.52051e-05
4201.85	0.528229	9.765625E-06
4202.75	0.528046	1.58386e-05
4203.65	0.527954	5.92041e-05
4204.49	0.528046	9.8877e-06
4205.39	0.529053	8.57544e-06
4206.29	0.529602	3.31726e-05
4207.15	-0.698883	-0.023703
4208.03	0.529633	3.08228e-06
4208.93	0.529724	2.75879e-05
4209.79	-0.699341	-0.0168274
4210.67	0.529663	2.04468e-06
4211.57	0.528961	2.70081e-05
4212.45	0.000735474	0.00822449
4213.31	0.528748	1.09253e-05
4214.21	0.52951	1.80359e-05
4215.09	0.000311279	0.00539795
4215.95	0.528015	1.26953e-05
4216.85	0.529388	1.62354e-05
4217.75	0.528748	0.0164795
4218.59	0.528748	7.75146e-06
4219.49	0.528595	1.68457e-05
4220.39	0.529358	0.00898132
4221.23	0.529633	7.32422e-07
4222.13	0.528412	1.94702e-05
4223.03	0.528992	0.000627136
4223.87	0.528839	5.27954e-06
4224.77	0.529633	6.31714e-06
4225.67	0.529663	0.000170868
4226.51	0.529175	3.14331e-06
4227.41	0.52951	7.53784e-06
4228.31	0.529724	7.96814e-05
4229.15	0.528625	5.40161e-06
4230.05	0.528046	1.53198e-05
4230.95	0.528534	5.63354e-05
4231.79	0.529541	-8.54492e-07
4232.69	0.529694	3.23486e-06
4233.59	0.528778	3.9917e-05
4234.45	-0.697662	-0.0237122
4235.33	0.529327	7.04956e-06
4236.23	0.529388	2.79236e-05
4237.09	-0.698456	-0.0168488
4237.97	0.528992	8.97217e-06
4238.87	0.528229	2.97852e-05
4239.75	-7.62939e-05	0.008203125
4240.61	0.528229	1.171875E-05
4241.51	0.529633	1.58691e-05
4242.39	0.000393677	0.00539246
4243.25	0.528046	1.19934e-05
4244.15	0.528687	1.67847e-05
4245.05	0.528503	0.01651
4245.89	0.527863	1.27563e-05
4246.79	0.529663	1.02539e-05
4247.69	0.528778	0.00905151
4248.53	0.52951	1.00708e-06
4249.43	0.529083	1.22986e-05
4250.33	0.52832	0.000649719
4251.17	0.529205	3.50952e-06
4252.07	0.528931	1.16272e-05
4252.97	0.529358	0.000175842
4253.81	0.528046	1.16272e-05
4254.71	0.528717	1.23596e-05
4255.61	0.52832	8.64563e-05
4256.45	0.529297	5.06592e-06
4257.35	0.528961	7.2937e-06
4258.25	0.529449	5.1239e-05
4259.09	0.5289	4.24194e-06
4259.99	0.527985	1.43738e-05
4260.89	0.529327	3.81165e-05
4261.75	-0.698608	-0.0237366
4262.63	0.528992	7.75146e-06
4263.53	0.529602	2.70081e-05
4264.39	-0.699127	-0.0168945
4265.27	0.528046	1.4679e-05
4266.17	0.529633	2.00195e-05
4267.05	-0.000827026	0.00818787
4267.91	0.529663	1.31226e-06
4268.81	0.529175	2.10266e-05
4269.69	0.000296021	0.0053949
4270.55	0.529663	1.83105e-06
4271.45	0.528351	2.27661e-05
4272.35	0.527649	0.0165222
4273.19	0.528015	1.20544e-05
4274.09	0.528442	1.82495e-05
4274.99	0.527618	0.00914917
4275.83	0.529541	6.10352e-08
4276.73	0.52887	1.10168e-05
4277.63	0.528687	0.000664978
4278.47	0.529572	-2.13623e-07
4279.37	0.528168	1.69678e-05
4280.27	0.528381	0.000186676
4281.11	0.528931	3.75366e-06
4282.01	0.528351	1.48315e-05
4282.91	0.528381	9.08203e-05
4283.75	0.528198	9.33838e-06
4284.65	0.528809	1.2207e-05
4285.55	0.528259	6.17371e-05
4286.39	0.528961	2.99072e-06
4287.29	0.529541	4.21143e-06
4288.19	0.529572	3.40576e-05
4289.05	-0.69754	-0.0237732
4289.93	0.529114	6.7749e-06
4290.83	0.529663	2.70081e-05
4291.69	-0.697845	-0.0169373
4292.57	0.528107	1.36414e-05
4293.47	0.528046	3.15857e-05
4294.35	-0.000900269	0.00818176
4295.21	0.528046	1.33667e-05
4296.11	0.529602	1.60828e-05
4296.99	0.000152588	0.00538086
4297.85	0.52829	1.01013e-05
4298.75	0.528137	2.49939e-05
4299.65	0.527283	0.0165497
4300.49	0.529663	6.71387e-07
4301.39	0.528625	2.02942e-05
4302.29	0.527771	0.00922546
4303.13	0.528534	9.24683e-06
4304.03	0.528046	2.03857e-05
4304.93	0.528961	0.000681763
4305.77	0.52887	1.89209e-06
4306.67	0.528351	1.69067e-05
4307.57	0.529022	0.000187408
4308.41	0.529724	-2.74658e-07
4309.31	0.528381	1.6571e-05
4310.21	0.528076	9.46655e-05
4311.05	0.527985	1.00098e-05
4311.95	0.528809	1.18103e-05
4312.85	0.528473	6.06384e-05
4313.69	0.529053	3.57056e-06
4314.59	0.52887	1.22986e-05
4315.49	0.529358	3.74146e-05
4316.35	-0.698334	-0.0238098
4317.23	0.529419	5.0354e-06
4318.13	0.528687	3.17078e-05
4318.99	-0.697815	-0.0169769
4319.87	0.528137	1.19324e-05
4320.77	0.529541	2.13623e-05
4321.65	-9.76562e-05	0.00814819
4322.51	0.529663	1.77002e-06
4323.41	0.52951	1.66321e-05
4324.29	-0.000405884	0.00537109
4325.15	0.527924	1.46484e-05
4326.05	0.529572	1.50146e-05
4326.95	0.527649	0.0165497
4327.79	0.528961	6.46973e-06
4328.69	0.529633	1.2085e-05
4329.59	0.528351	0.00926819
4330.43	0.529541	-3.05176e-08
4331.33	0.528351	1.87378e-05
4332.23	0.529572	0.000693359
4333.07	0.529724	-7.32422e-07
4333.97	0.528137	1.83105e-05
4334.87	0.528534	0.000191315
4335.71	0.528076	1.08337e-05
4336.61	0.529724	6.31714e-06
4337.51	0.528809	8.65173e-05
4338.35	0.529663	-3.05176e-07
4339.25	0.528229	1.474e-05
4340.15	0.527985	6.19507e-05
4340.99	0.528107	1.15356e-05
4341.89	0.527893	1.66321e-05
4342.79	0.529053	3.81775e-05
4343.65	-0.698792	-0.0238342
4344.53	0.529449	4.76074e-06
4345.43	0.528625	3.43018e-05
4346.29	-0.698303	-0.0170105
4347.17	0.529633	2.22778e-06
4348.07	0.52948	2.21558e-05
4348.95	0.000259399	0.00812378
4349.81	0.528839	6.2561e-06
4350.71	0.528534	2.33765e-05
4351.59	0.00107727	0.00534363
4352.45	0.528656	1.11084e-05
4353.35	0.529358	1.40686e-05
4354.25	0.527374	0.016571
4355.09	0.528748	8.23975e-06
4355.99	0.528961	1.50146e-05
4356.89	0.528656	0.00934143
4357.73	0.528351	1.1261e-05
4358.63	0.527954	2.0874e-05
4359.53	0.529297	0.000709229
4360.37	0.529053	3.93677e-06
4361.27	0.529388	9.765625E-06
4362.17	0.5289	0.000193512
4363.01	0.527985	1.26953e-05
4363.91	0.529663	6.22559e-06
4364.81	0.528717	8.92944e-05
4365.65	0.529419	5.18799e-07
4366.55	0.529755	5.92041e-06
4367.45	0.5289	5.49927e-05
4368.29	0.529663	-6.10352e-08
4369.19	0.528442	1.33972e-05
4370.09	0.52832	4.3457e-05
4370.95	-0.698334	-0.02388
4371.83	0.529663	3.41797e-06
4372.73	0.52951	2.85339e-05
4373.59	-0.697601	-0.0170776
4374.47	0.528839	5.85937e-06
4375.37	0.528046	3.08838e-05
4376.25	0.000402832	0.00808716
4377.11	0.528107	1.31836e-05
4378.01	0.529419	1.69678e-05
4378.89	0.000982666	0.00533966
4379.75	0.529541	3.14331e-06
4380.65	0.529694	1.42212e-05
4381.55	0.527161	0.0165955
4382.39	0.528046	1.39465e-05
4383.29	0.528778	1.77612e-05
4384.19	0.529327	0.009375
4385.03	0.529663	-3.05176e-08
4385.93	0.528015	1.97449e-05
4386.83	0.529633	0.00072113
4387.67	0.528839	5.82886e-06
4388.57	0.529236	1.16577e-05
4389.47	0.529724	0.000191162
4390.31	0.528534	1.0498e-05
4391.21	0.528168	1.72119e-05
4392.11	0.529572	8.60596e-05
4392.95	0.529572	4.27246e-07
4393.85	0.529083	1.00098e-05
4394.75	0.527924	6.18896e-05
4395.59	0.528442	9.0332e-06
4396.49	0.529785	3.14331e-06
4397.39	0.5289	3.83911e-05
4398.25	-0.698547	-0.0238953
4399.13	0.528625	7.38525e-06
4400.03	0.528503	3.43933e-05
4400.89	-0.697876	-0.0171173
4401.77	0.529633	1.86157e-06
4402.67	0.528748	2.77405e-05
4403.55	-0.00065918	0.00806885
4404.41	0.529449	5.34058e-06
4405.31	0.527863	2.88391e-05
4406.19	-0.000598145	0.00533447
4407.05	0.528015	1.35193e-05
4407.95	0.528107	2.47803e-05
4408.85	0.527679	0.0165985
4409.69	0.529144	2.80762e-06
4410.59	0.527985	2.30408e-05
4411.49	0.528351	0.00942383
4412.33	0.529083	1.92261e-06
4413.23	0.528107	2.09351e-05
4414.13	0.52948	0.000739746
4414.97	0.528625	6.80542e-06
4415.87	0.529175	1.15051e-05
4416.77	0.528198	0.000206665
4417.61	0.52887	4.27246e-06
4418.51	0.529694	6.2561e-06
4419.41	0.529541	8.70972e-05
4420.25	0.529572	-1.28174e-06
4421.15	0.528107	1.70288e-05
4422.05	0.528351	6.18286e-05
4422.89	0.528168	9.52148e-06
4423.79	0.528351	1.34888e-05
4424.69	0.528503	4.40369e-05
4425.55	-0.697388	-0.0239349
4426.43	0.528198	1.51978e-05
4427.33	0.529633	2.76794e-05
4428.19	-0.698364	-0.0171326
4429.07	0.528198	1.2146e-05
4429.97	0.528442	2.88086e-05
4430.85	0.000619507	0.00804749
4431.71	0.528015	1.35193e-05
4432.61	0.528442	2.6001e-05
4433.49	-0.00015564	0.00532623
4434.35	0.528656	5.00488e-06
4435.25	0.528107	2.4353e-05
4436.15	0.52887	0.0166107
4436.99	0.529572	2.41089e-06
4437.89	0.52829	2.06604e-05
4438.79	0.528656	0.0094696
4439.63	0.528473	7.69043e-06
4440.53	0.529236	1.58386e-05
4441.43	0.528595	0.000758667
4442.27	0.529602	-3.05176e-08
4443.17	0.528778	1.43738e-05
4444.07	0.529175	0.000203308
4444.91	0.52832	7.53784e-06
4445.81	0.528046	1.7395e-05
4446.71	0.528168	9.76868e-05
4447.55	0.528503	4.05884e-06
4448.45	0.529663	5.0354e-06
4449.35	0.529541	5.41077e-05
4450.19	0.528442	6.53076e-06
4451.09	0.528107	1.55945e-05
4451.99	0.529633	3.58887e-05
4452.85	-0.698639	-0.0239319
4453.73	0.528229	1.5625e-05
4454.63	0.529694	2.74658e-05
4455.49	-0.698914	-0.0171692
4456.37	0.529633	3.32642e-06
4457.27	0.529572	2.34375e-05
4458.15	-0.000180054	0.00803528
4459.01	0.529236	6.073e-06
4459.91	0.527893	2.76184e-05
4460.79	0.000894165	0.00530701
4461.65	0.528015	1.47095e-05
4462.55	0.529663	1.44958e-05
4463.45	0.527466	0.016629
4464.29	0.529602	2.10571e-06
4465.19	0.529663	1.1261e-05
4466.09	0.527832	0.00953369
4466.93	0.528076	1.25122e-05
4467.83	0.527924	2.11792e-05
4468.73	0.52829	0.00078186
4469.57	0.528778	6.89697e-06
4470.47	0.528137	1.81885e-05
4471.37	0.528107	0.000215576
4472.21	0.529175	4.48608e-06
4473.11	0.528076	1.87988e-05
4474.01	0.527954	0.000100739
4474.85	0.527924	1.10168e-05
4475.75	0.529449	6.62231e-06
4476.65	0.52887	6.02112e-05
4477.49	0.529388	1.64795e-06
4478.39	0.529602	4.42505e-06
4479.29	0.527924	4.79736e-05
4480.15	-0.698364	-0.0239563
4481.03	0.528442	1.45874e-05
4481.93	0.528381	3.54614e-05
4482.79	-0.697754	-0.0172058
4483.67	0.528412	1.12915e-05
4484.57	0.529083	2.47803e-05
4485.45	0.00039978	0.00800781
4486.31	0.528076	1.47095e-05
4487.21	0.529297	1.77917e-05
4488.09	-0.00038147	0.00530304
4488.95	0.528564	1.12e-05
4489.85	0.52829	2.18811e-05
4490.75	0.527252	0.0166412
4491.59	0.529144	5.49316e-06
4492.49	0.52948	1.50146e-05
4493.39	0.527649	0.00959778
4494.23	0.528137	1.22681e-05
4495.13	0.528503	1.77307e-05
4496.03	0.529419	0.000791321
4496.87	0.528351	1.0498e-05
4497.77	0.529633	7.38525e-06
4498.67	0.528778	0.000217102
4499.51	0.529083	2.74658e-06
4500.41	0.529083	8.66699e-06
4501.31	0.529144	9.44824e-05
4502.15	0.528625	5.5542e-06
4503.05	0.528046	1.68152e-05
4503.95	0.52829	6.45142e-05
4504.79	0.529602	-6.40869e-07
4505.69	0.528931	1.24817e-05
4506.59	0.528412	4.52271e-05
4507.45	-0.698608	-0.0239655
4508.33	0.52951	4.85229e-06
4509.23	0.52948	2.71301e-05
4510.09	-0.699127	-0.0172394
4510.97	0.52829	1.36414e-05
4511.87	0.529602	1.96838e-05
4512.75	-0.000979614	0.00799255
4513.61	0.528656	8.60596e-06
4514.51	0.528107	2.81677e-05
4515.39	-0.000592041	0.00529938
4516.25	0.529022	5.21851e-06
4517.15	0.528259	2.45972e-05
4518.05	0.528381	0.0166534
4518.89	0.529602	3.69263e-06
4519.79	0.529449	1.18408e-05
4520.69	0.529053	0.00965271
4521.53	0.528442	1.09558e-05
4522.43	0.529236	1.2146e-05
4523.33	0.527832	0.000822449
4524.17	0.529053	7.38525e-06
4525.07	0.528198	1.73645e-05
4525.97	0.529419	0.000217224
4526.81	0.529694	6.10352e-08
4527.71	0.528656	1.34277e-05
4528.61	0.529663	9.14001e-05
4529.45	0.529694	5.79834e-07
4530.35	0.528046	1.651e-05
4531.25	0.529602	5.40161e-05
4532.09	0.529419	4.88281e-07
4532.99	0.52887	9.58252e-06
4533.89	0.528168	4.66614e-05
4534.75	-0.697357	-0.023999
4535.63	0.529358	5.00488e-06
4536.53	0.528687	3.302e-05
4537.39	-0.698486	-0.017276
4538.27	0.528198	1.28784e-05
4539.17	0.528015	3.27148e-05
4540.05	-0.000958252	0.00797729
4540.91	0.529663	1.95313e-06
4541.81	0.528564	2.76184e-05
4542.69	0.000115967	0.00528961
4543.55	0.529175	4.82178e-06
4544.45	0.529663	1.31226e-05
4545.35	0.528534	0.0166687
4546.19	0.528015	1.28479e-05
4547.09	0.528442	1.97144e-05
4547.99	0.527618	0.00968933
4548.83	0.528198	1.27258e-05
4549.73	0.527954	1.97144e-05
4550.63	0.529633	0.000822754
4551.47	0.529327	1.64795e-06
4552.37	0.528442	1.53198e-05
4553.27	0.528656	0.000220856
4554.11	0.529358	-1.2207e-06
4555.01	0.529602	6.16455e-06
4555.91	0.529022	9.87854e-05
4556.75	0.528534	8.30078e-06
4557.65	0.529541	4.63867e-06
4558.55	0.528015	6.55518e-05
4559.39	0.529297	2.22778e-06
4560.29	0.5289	8.60596e-06
4561.19	0.527954	4.87976e-05
4562.05	-0.69751	-0.0240143
4562.93	0.528778	1.08032e-05
4563.83	0.529419	2.93579e-05
4564.69	-0.697784	-0.0173065
4565.57	0.527863	1.35803e-05
4566.47	0.529602	2.15149e-05
4567.35	-0.000906372	0.00794983
4568.21	0.529083	6.2561e-06
4569.11	0.529388	1.81274e-05
4569.99	-0.000137329	0.00527496
4570.85	0.529663	3.05176e-07
4571.75	0.529572	1.37634e-05
4572.65	0.527252	0.0166779
4573.49	0.5289	7.35474e-06
4574.39	0.529388	1.2146e-05
4575.29	0.527649	0.00973816
4576.13	0.528564	8.17871e-06
4577.03	0.528992	1.66016e-05
4577.93	0.528015	0.000851135
4578.77	0.528534	8.05664e-06
4579.67	0.529266	8.8501e-06
4580.57	0.529633	0.000221741
4581.41	0.528992	5.0354e-06
4582.31	0.527924	1.61743e-05
4583.21	0.529694	9.45435e-05
4584.05	0.528259	9.42993e-06
4584.95	0.528748	1.08643e-05
4585.85	0.528259	6.53381e-05
4586.69	0.529297	4.88281e-07
4587.59	0.529053	6.92749e-06
4588.49	0.527924	4.91638e-05
4589.35	-0.697205	-0.0240479
4590.23	0.529022	9.73511e-06
4591.13	0.528015	3.92151e-05
4591.99	-0.698517	-0.0173218
4592.87	0.528381	1.21155e-05
4593.77	0.529419	2.01416e-05
4594.65	-8.8501e-05	0.00792847
4595.51	0.52829	1.16272e-05
4596.41	0.528107	2.78015e-05
4597.29	0.000964355	0.00525085
4598.15	0.529358	1.89209e-06
4599.05	0.529663	1.4801e-05
4599.95	0.528931	0.0166779
4600.79	0.529724	-1.00708e-06
4601.69	0.528503	2.03552e-05
4602.59	0.528351	0.00978088
4603.43	0.529633	9.76562e-07
4604.33	0.528473	1.82495e-05
4605.23	0.528412	0.000870972
4606.07	0.528564	3.50952e-06
4606.97	0.528229	1.79749e-05
4607.87	0.528442	0.000234253
4608.71	0.528717	4.88281e-06
4609.61	0.528503	1.48926e-05
4610.51	0.528778	0.00010141
4611.35	0.528564	8.08716e-06
4612.25	0.527985	1.80054e-05
4613.15	0.529541	5.58777e-05
4613.99	0.529724	-1.40381e-06
4614.89	0.528778	1.0498e-05
4615.79	0.529175	4.14124e-05
4616.65	-0.697083	-0.0240662
4617.53	0.529785	4.91333e-06
4618.43	0.528076	4.01917e-05
4619.29	-0.697937	-0.0173676
4620.17	0.528748	7.72095e-06
4621.07	0.528992	2.6825e-05
4621.95	0.000579834	0.00789795
4622.81	0.528015	1.53809e-05
4623.71	0.529663	1.79443e-05
4624.59	0.00111694	0.00523926
4625.45	0.528015	1.3092e-05
4626.35	0.528809	2.06299e-05
4627.25	0.528076	0.0166962
4628.09	0.528198	1.01624e-05
4628.99	0.529205	1.22681e-05
4629.89	0.528839	0.00982056
4630.73	0.529663	8.54492e-07
4631.63	0.529297	1.31226e-05
4632.53	0.528046	0.000888672
4633.37	0.528015	1.20544e-05
4634.27	0.52832	2.10266e-05
4635.17	0.52948	0.00023053
4636.01	0.52887	5.15747e-06
4636.91	0.529633	9.09424e-06
4637.81	0.529144	0.000100525
4638.65	0.52948	1.19019e-06
4639.55	0.529541	6.37817e-06
4640.45	0.528168	6.71387e-05
4641.29	0.529846	-1.98364e-06
4642.19	0.529572	6.86646e-06
4643.09	0.529694	3.76892e-05
4643.95	-0.697601	-0.0240997
4644.83	0.528473	1.07422e-05
4645.73	0.529724	2.771e-05
4646.59	-0.699188	-0.017395
4647.47	0.528748	1.00098e-05
4648.37	0.528687	2.92664e-05
4649.25	-0.000537109	0.00787659
4650.11	0.52948	3.54004e-06
4651.01	0.528137	2.99377e-05
4651.89	0.000280762	0.00522614
4652.75	0.527893	1.3916e-05
4653.65	0.528259	2.39563e-05
4654.55	0.527802	0.0167053
4655.39	0.528076	1.23291e-05
4656.29	0.528625	1.87378e-05
4657.19	0.528839	0.00985107
4658.03	0.528137	8.8501e-06
4658.93	0.528015	2.24915e-05
4659.83	0.527985	0.000903931
4660.67	0.528015	1.26343e-05
4661.57	0.528076	1.99585e-05
4662.47	0.527924	0.000246582
4663.31	0.529449	3.50952e-06
4664.21	0.529175	1.1322e-05
4665.11	0.529572	9.765625E-05
4665.95	0.528015	1.20239e-05
4666.85	0.528687	1.35498e-05
4667.75	0.527985	6.83289e-05
4668.59	0.529175	1.86157e-06
4669.49	0.528717	1.23291e-05
4670.39	0.528046	4.83704e-05
4671.25	-0.698792	-0.0240936
4672.13	0.528259	1.33057e-05
4673.03	0.528564	3.61633e-05
4673.89	-0.697601	-0.0174469
4674.77	0.528778	1.16882e-05
4675.67	0.529602	2.21252e-05
4676.55	0.000616455	0.00784302
4677.41	0.528534	9.33838e-06
4678.31	0.527985	2.90527e-05
4679.19	0.000942993	0.00520172
4680.05	0.528015	1.10168e-05
4680.95	0.528717	1.85547e-05
4681.85	0.528046	0.0167084
4682.69	0.52948	2.68555e-06
4683.59	0.529205	1.37329e-05
4684.49	0.528198	0.00989685
4685.33	0.529724	1.19019e-06
4686.23	0.528046	2.12402e-05
4687.13	0.528137	0.000919189
4687.97	0.529602	4.88281e-07
4688.87	0.528473	1.72424e-05
4689.77	0.528351	0.000246613
4690.61	0.528107	1.05896e-05
4691.51	0.529388	1.09253e-05
4692.41	0.528229	0.000109436
4693.25	0.528595	6.92749e-06
4694.15	0.528015	1.69983e-05
4695.05	0.528015	6.6803e-05
4695.89	0.529663	-3.05176e-08
4696.79	0.528473	1.45264e-05
4697.69	0.529633	3.66821e-05
4698.55	-0.697876	-0.0241302
4699.43	0.529449	6.34766e-06
4700.33	0.529297	2.97546e-05
4701.19	-0.698181	-0.0174622
4702.07	0.528046	1.59607e-05
4702.97	0.528076	3.25623e-05
4703.85	-0.000131226	0.00780334
4704.71	0.529449	4.36401e-06
4705.61	0.528503	2.56348e-05
4706.49	0.00085144	0.00518982
4707.35	0.528503	1.10474e-05
4708.25	0.529175	1.44958e-05
4709.15	0.527222	0.0167267
4709.99	0.52951	2.44141e-06
4710.89	0.529663	1.04675e-05
4711.79	0.529083	0.00995483
4712.63	0.528046	1.29395e-05
4713.53	0.529755	9.18579e-06
4714.43	0.528687	0.000934753
4715.27	0.528961	4.11987e-06
4716.17	0.528595	1.61133e-05
4717.07	0.528046	0.000254944
4717.91	0.529633	9.15527e-08
4718.81	0.529877	4.57764e-06
4719.71	0.529541	0.000102966
4720.55	0.529602	7.32422e-07
4721.45	0.528473	1.40381e-05
4722.35	0.529572	5.80444e-05
4723.19	0.528809	5.70679e-06
4724.09	0.529205	1.07117e-05
4724.99	0.529572	3.89099e-05
4725.85	-0.698425	-0.0241394
4726.73	0.528687	1.02234e-05
4727.63	0.529205	3.12195e-05
4728.49	-0.699371	-0.0174957
4729.37	0.528442	1.27258e-05
4730.27	0.529175	2.64282e-05
4731.15	0.000531006	0.00778198
4732.01	0.528992	7.99561e-06
4732.91	0.528015	2.89612e-05
4733.79	0.000735474	0.00518036
4734.65	0.528656	6.56128e-06
4735.55	0.529602	1.50757e-05
4736.45	0.528412	0.0167328
4737.29	0.528107	1.08948e-05
4738.19	0.528961	1.59912e-05
4739.09	0.528046	0.0099884
4739.93	0.528107	1.14136e-05
4740.83	0.527893	2.22168e-05
4741.73	0.528992	0.000950623
4742.57	0.52948	9.46045e-07
4743.47	0.528229	1.75476e-05
4744.37	0.528107	0.000260376
4745.21	0.529602	6.71387e-07
4746.11	0.527924	1.87073e-05
4747.01	0.528564	0.000109283
4747.85	0.529083	5.40161e-06
4748.75	0.528046	1.71204e-05
4749.65	0.528961	6.21338e-05
4750.49	0.528839	5.31006e-06
4751.39	0.528778	1.08337e-05
4752.29	0.528015	4.93164e-05
4753.15	-0.697113	-0.0241608
4754.03	0.528778	8.91113e-06
4754.93	0.528046	3.94897e-05
4755.79	-0.697449	-0.0175201
4756.67	0.52951	2.7771e-06
4757.57	0.528076	3.55835e-05
4758.45	0.00067749	0.00777283
4759.31	0.52951	1.89209e-06
4760.21	0.529175	2.23999e-05
4761.09	-0.00062561	0.00517548
4761.95	0.528412	1.07117e-05
4762.85	0.529785	1.40991e-05
4763.75	0.528809	0.0167206
4764.59	0.52832	1.1322e-05
4765.49	0.529633	1.32141e-05
4766.39	0.52774	0.010022
4767.23	0.528229	1.10168e-05
4768.13	0.528351	2.16064e-05
4769.03	0.528168	0.000971375
4769.87	0.528107	1.19324e-05
4770.77	0.529175	1.1261e-05
4771.67	0.52948	0.000255219
4772.51	0.528076	1.09558e-05
4773.41	0.527954	1.93481e-05
4774.31	0.529633	0.00010379
4775.15	0.528748	3.84521e-06
4776.05	0.529602	7.01904e-06
4776.95	0.529541	5.9082e-05
4777.79	0.528046	8.27026e-06
4778.69	0.527985	1.72729e-05
4779.59	0.528625	4.56238e-05
4780.45	-0.697998	-0.0241638
4781.33	0.528992	9.46045e-06
4782.23	0.52887	3.40576e-05
4783.09	-0.697693	-0.0175507
4783.97	0.529572	6.80542e-06
4784.87	0.528015	3.3844e-05
4785.75	-0.000970459	0.00774536
4786.61	0.529724	2.7771e-06
4787.51	0.52832	2.6123e-05
4788.39	0.000619507	0.00515472
4789.25	0.527985	1.5564e-05
4790.15	0.528076	2.53296e-05
4791.05	0.527283	0.0167358
4791.89	0.528412	1.14136e-05
4792.79	0.528046	2.32849e-05
4793.69	0.527527	0.0100525
4794.53	0.528351	1.30005e-05
4795.43	0.528076	2.09351e-05
4796.33	0.528137	0.000994873
4797.17	0.52829	9.82666e-06
4798.07	0.529633	8.69751e-06
4798.97	0.529846	0.000259949
4799.81	0.527893	1.22681e-05
4800.71	0.529785	8.02612e-06
4801.61	0.528687	0.000111328
4802.45	0.529297	2.71606e-06
4803.35	0.528015	1.66016e-05
4804.25	0.528442	6.86035e-05
4805.09	0.529724	-1.15967e-06
4805.99	0.528137	1.59607e-05
4806.89	0.528046	4.93469e-05
4807.75	-0.698944	-0.024173
4808.63	0.528687	1.14136e-05
4809.53	0.529602	2.80151e-05
4810.39	-0.698151	-0.0175781
4811.27	0.529297	5.7373e-06
4812.17	0.528473	3.03955e-05
4813.05	-0.000537109	0.00773315
4813.91	0.528748	9.33838e-06
4814.81	0.528229	2.98157e-05
4815.69	0.000140381	0.00514557
4816.55	0.529358	5.61523e-06
4817.45	0.528564	2.08435e-05
4818.35	0.528809	0.0167633
4819.19	0.52829	1.06812e-05
4820.09	0.529053	1.49536e-05
4820.99	0.528137	0.00977783
4821.83	0.528168	1.20239e-05
4822.73	0.528198	1.98669e-05
4823.63	0.529602	0.00087738
4824.47	0.529266	1.5564e-06
4825.37	0.529175	1.27563e-05
4826.27	0.528381	0.000251434
4827.11	0.528839	7.2937e-06
4828.01	0.52832	1.71204e-05
4828.91	0.528076	0.000112823
4829.75	0.52832	1.05286e-05
4830.65	0.528229	1.55945e-05
4831.55	0.528107	6.74133e-05
4832.39	0.529175	3.2959e-06
4833.29	0.529449	5.43213e-06
4834.19	0.529663	3.85742e-05
4835.05	-0.698517	-0.0239319
4835.93	0.528412	1.32446e-05
4836.83	0.529419	3.00293e-05
4837.69	-0.697601	-0.0173798
4838.57	0.5289	9.06372e-06
4839.47	0.529297	2.2644e-05
4840.35	0.000497437	0.00791016
4841.21	0.529327	4.79126e-06
4842.11	0.528564	2.2644e-05
4842.99	0.000140381	0.00527527
4843.85	0.528564	1.01318e-05
4844.75	0.528107	2.52686e-05
4845.65	0.528717	0.016803
4846.49	0.528046	1.23901e-05
4847.39	0.529663	1.12305e-05
4848.29	0.529266	0.00975647
4849.13	0.529633	2.13623e-07
4850.03	0.528259	1.89514e-05
4850.93	0.529297	0.00087738
4851.77	0.528931	6.37817e-06
4852.67	0.529053	1.05591e-05
4853.57	0.528442	0.000254639
4854.41	0.52951	-9.15527e-08
4855.31	0.528473	1.47095e-05
4856.21	0.529541	0.000103149
4857.05	0.528076	1.15051e-05
4857.95	0.529541	6.16455e-06
4858.85	0.528503	6.3385e-05
4859.69	0.528564	8.3313e-06
4860.59	0.528778	9.61304e-06
4861.49	0.529236	4.24805e-05
4862.35	-0.698853	-0.0239655
4863.23	0.528839	9.42993e-06
4864.13	0.528046	3.88184e-05
4864.99	-0.699158	-0.0174011
4865.87	0.528229	1.32446e-05
4866.77	0.529572	2.22473e-05
4867.65	-0.000408936	0.00791016
4868.51	0.529541	3.38745e-06
4869.41	0.528412	2.36206e-05
4870.29	-0.000363159	0.00525848
4871.15	0.528839	6.92749e-06
4872.05	0.528809	1.98669e-05
4872.95	0.528564	0.0168182
4873.79	0.528595	8.57544e-06
4874.69	0.528412	1.96228e-05
4875.59	0.527771	0.00980225
4876.43	0.528046	1.09253e-05
4877.33	0.528015	2.09961e-05
4878.23	0.528137	0.0009021
4879.07	0.529205	6.19507e-06
4879.97	0.528473	1.62354e-05
4880.87	0.528595	0.000255554
4881.71	0.529541	8.54492e-07
4882.61	0.528625	1.28479e-05
4883.51	0.529785	0.000103546
4884.35	0.529816	8.8501e-07
4885.25	0.528229	1.51978e-05
4886.15	0.529541	5.87463e-05
4886.99	0.528076	1.0376e-05
4887.89	0.529449	5.92041e-06
4888.79	0.529694	3.95813e-05
4889.65	-0.697815	-0.023996
4890.53	0.52948	4.42505e-06
4891.43	0.529297	3.22266e-05
4892.29	-0.697784	-0.01745
4893.17	0.528656	8.78906e-06
4894.07	0.529358	2.35291e-05
4894.95	-0.000469971	0.0078949
4895.81	0.528229	1.25732e-05
4896.71	0.528839	2.36206e-05
4897.59	0.000216675	0.0052533
4898.45	0.528015	1.38245e-05
4899.35	0.528168	2.53906e-05
4900.25	0.528778	0.0168274
4901.09	0.528137	1.24512e-05
4901.99	0.528351	2.09961e-05
4902.89	0.529236	0.00983887
4903.73	0.528229	1.17493e-05
4904.63	0.528259	1.92566e-05
4905.53	0.529266	0.000907288
4906.37	0.528656	7.38525e-06
4907.27	0.529205	1.10168e-05
4908.17	0.529388	0.000254486
4909.01	0.528687	6.68335e-06
4909.91	0.528259	1.59607e-05
4910.81	0.529022	0.00011087
4911.65	0.529449	1.0376e-06
4912.55	0.529449	6.92749e-06
4913.45	0.528259	6.92139e-05
4914.29	0.52829	9.00269e-06
4915.19	0.529419	7.01904e-06
4916.09	0.52829	4.84924e-05
4916.95	-0.698486	-0.0239929
4917.83	0.529114	9.58252e-06
4918.73	0.528687	3.70483e-05
4919.59	-0.69812	-0.0174774
4920.47	0.529083	6.92749e-06
4921.37	0.529205	2.55432e-05
4922.25	0.000408936	0.00785522
4923.11	0.528198	1.0376e-05
4924.01	0.529327	2.03552e-05
4924.89	0.00015564	0.00524078
4925.75	0.528717	8.8501e-06
4926.65	0.528748	2.32544e-05
4927.55	0.527771	0.0168396
4928.39	0.529419	3.05176e-06
4929.29	0.529449	1.474e-05
4930.19	0.528015	0.00988464
4931.03	0.528595	9.21631e-06
4931.93	0.5289	1.828e-05
4932.83	0.529297	0.000923462
4933.67	0.528442	8.57544e-06
4934.57	0.528656	1.54724e-05
4935.47	0.5289	0.000262695
4936.31	0.529449	6.71387e-07
4937.21	0.529114	8.30078e-06
4938.11	0.528198	0.00011853
4938.95	0.52887	4.54712e-06
4939.85	0.529053	9.79614e-06
4940.75	0.52951	6.1554e-05
4941.59	0.529419	6.40869e-07
4942.49	0.528687	1.06506e-05
4943.39	0.529327	4.11377e-05
4944.25	-0.698303	-0.0240265
4945.13	0.52832	1.41296e-05
4946.03	0.528107	3.94592e-05
4946.89	-0.698395	-0.0175079
4947.77	0.529053	7.04956e-06
4948.67	0.528717	2.79846e-05
4949.55	0.000115967	0.00784302
4950.41	0.529053	5.61523e-06
4951.31	0.528473	2.37427e-05
4952.19	0.000695801	0.00522583
4953.05	0.528748	7.99561e-06
4953.95	0.529358	1.64185e-05
4954.85	0.528076	0.0168396
4955.69	0.528687	9.30786e-06
4956.59	0.528564	1.69678e-05
4957.49	0.529175	0.00991821
4958.33	0.529419	2.99072e-06
4959.23	0.529602	1.02844e-05
4960.13	0.529053	0.000941772
4960.97	0.528656	6.86646e-06
4961.87	0.528656	1.31531e-05
4962.77	0.52948	0.000263184
4963.61	0.528687	6.95801e-06
4964.51	0.528351	1.61133e-05
4965.41	0.528351	0.000118896
4966.25	0.528931	4.11987e-06
4967.15	0.528046	1.77307e-05
4968.05	0.528412	6.93054e-05
4968.89	0.528687	6.86646e-06
4969.79	0.528229	1.37329e-05
4970.69	0.52951	4.00391e-05
4971.55	-0.698456	-0.0240509
4972.43	0.528137	1.34583e-05
4973.33	0.529572	3.09448e-05
4974.19	-0.698547	-0.0175201
4975.07	0.529449	6.28662e-06
4975.97	0.528351	3.2959e-05
4976.85	-0.000198364	0.0078186
4977.71	0.528961	8.72803e-06
4978.61	0.529694	1.71204e-05
4979.49	0.000473022	0.00521454
4980.35	0.528931	6.34766e-06
4981.25	0.527954	2.70386e-05
4982.15	0.528748	0.0168549
4982.99	0.528809	6.92749e-06
4983.89	0.529633	1.23291e-05
4984.79	0.527985	0.00997314
4985.63	0.529175	4.79126e-06
4986.53	0.528168	2.21252e-05
4987.43	0.529053	0.000957031
4988.27	0.528046	1.19934e-05
4989.17	0.528351	1.7395e-05
4990.07	0.528168	0.00027774
4990.91	0.529144	3.17383e-06
4991.81	0.527954	1.75781e-05
4992.71	0.528656	0.00011853
4993.55	0.527954	1.16882e-05
4994.45	0.52832	1.44043e-05
4995.35	0.527954	7.2998e-05
4996.19	0.529663	-2.74658e-07
4997.09	0.528076	1.65405e-05
4997.99	0.528198	4.85229e-05
4998.85	-0.698486	-0.0240601
4999.73	0.528259	1.30005e-05
5000.63	0.528198	3.53699e-05
5001.49	-0.698608	-0.0175629
5002.37	0.528259	1.33362e-05
5003.27	0.529175	2.60925e-05
5004.15	0.000582886	0.00780029
5005.01	0.528442	9.52148e-06
5005.91	0.528259	2.98462e-05
5006.79	-0.000476074	0.00521545
5007.65	0.529663	1.98364e-06
5008.55	0.529633	1.45874e-05
5009.45	0.528809	0.0168671
5010.29	0.528809	9.46045e-06
5011.19	0.529297	1.53809e-05
5012.09	0.5289	0.0100006
5012.93	0.529694	1.5564e-06
5013.83	0.529327	1.10474e-05
5014.73	0.529602	0.000974731
5015.57	0.529022	4.54712e-06
5016.47	0.529144	1.27258e-05
5017.37	0.528687	0.000278473
5018.21	0.529633	-7.32422e-07
5019.11	0.528961	1.07727e-05
5020.01	0.528107	0.000125061
5020.85	0.528015	1.2146e-05
5021.75	0.529572	5.85937e-06
5022.65	0.52951	6.24695e-05
5023.49	0.528442	7.93457e-06
5024.39	0.5289	1.06506e-05
5025.29	0.528503	5.07202e-05
5026.15	-0.697266	-0.0240906
5027.03	0.5289	7.99561e-06
5027.93	0.529053	3.45764e-05
5028.79	-0.699188	-0.0175812
5029.67	0.52948	5.5542e-06
5030.57	0.528107	3.08838e-05
5031.45	-0.000396729	0.00779114
5032.31	0.528748	9.3689e-06
5033.21	0.528717	2.41394e-05
5034.09	-0.000500488	0.00519562
5034.95	0.529297	4.08936e-06
5035.85	0.527924	2.53601e-05
5036.75	0.528839	0.016861
5037.59	0.529602	1.2207e-06
5038.49	0.529663	1.26343e-05
5039.39	0.528534	0.0100555
5040.23	0.529205	3.38745e-06
5041.13	0.528107	2.09656e-05
5042.03	0.5289	0.000996704
5042.87	0.528412	9.49097e-06
5043.77	0.529694	7.65991e-06
5044.67	0.529755	0.000276581
5045.51	0.527954	9.52148e-06
5046.41	0.529205	8.17871e-06
5047.31	0.529724	0.000115875
5048.15	0.529663	-4.27246e-07
5049.05	0.52951	7.2937e-06
5049.95	0.529816	6.29883e-05
5050.79	0.529114	7.62939e-07
5051.69	0.527985	1.69373e-05
5052.59	0.528107	5.18494e-05
5053.45	-0.697052	-0.0241089
5054.33	0.528198	1.27258e-05
5055.23	0.5289	3.50342e-05
5056.09	-0.698425	-0.01763
5056.97	0.528107	1.37329e-05
5057.87	0.528076	3.34778e-05
5058.75	0.000506592	0.00775757
5059.61	0.528381	1.31531e-05
5060.51	0.529602	1.96228e-05
5061.39	-0.000280762	0.00517303
5062.25	0.528809	8.14819e-06
5063.15	0.529327	1.75171e-05
5064.05	0.528992	0.0168762
5064.89	0.528625	1.08337e-05
5065.79	0.529602	1.22681e-05
5066.69	0.527863	0.0100983
5067.53	0.528381	8.23975e-06
5068.43	0.529449	1.24817e-05
5069.33	0.528259	0.0010199
5070.17	0.529175	3.9978e-06
5071.07	0.529114	1.17493e-05
5071.97	0.529633	0.00028418
5072.81	0.529083	3.2959e-06
5073.71	0.528198	1.3031e-05
5074.61	0.528107	0.000126892
5075.45	0.528412	7.62939e-06
5076.35	0.528351	1.51672e-05
5077.25	0.52948	6.5094e-05
5078.09	0.528351	7.62939e-06
5078.99	0.528015	1.74255e-05
5079.89	0.529022	4.60815e-05
5080.75	-0.698608	-0.0241302
5081.63	0.529358	7.2937e-06
5082.53	0.528107	4.05884e-05
5083.39	-0.697876	-0.0176605
5084.27	0.528168	1.37939e-05
5085.17	0.529266	2.68555e-05
5086.05	0.000189209	0.007724
5086.91	0.529327	4.91333e-06
5087.81	0.529266	2.39258e-05
5088.69	-0.000576782	0.00516571
5089.55	0.529419	3.05176e-06
5090.45	0.529663	1.52893e-05
5091.35	0.527893	0.0168854
5092.19	0.52829	9.67407e-06
5093.09	0.528809	1.74866e-05
5093.99	0.528931	0.0101257
5094.83	0.528564	8.66699e-06
5095.73	0.529144	1.43433e-05
5096.63	0.529785	0.00103027
5097.47	0.528809	2.50244e-06
5098.37	0.529572	9.765625E-06
5099.27	0.528931	0.000295349
5100.11	0.527985	1.12915e-05
5101.01	0.528351	1.68457e-05
5101.91	0.529541	0.000119324
5102.75	0.529419	3.32642e-06
5103.65	0.527985	1.66321e-05
5104.55	0.529633	6.41479e-05
5105.39	0.528015	1.00708e-05
5106.29	0.527985	1.73645e-05
5107.19	0.528198	5.18799e-05
5108.05	-0.697144	-0.0241638
5108.93	0.529633	4.27246e-06
5109.83	0.528198	4.08325e-05
5110.69	-0.698669	-0.0176788
5111.57	0.529572	6.34766e-06
5112.47	0.528351	3.27759e-05
5113.35	-0.000845337	0.00771179
5114.21	0.528839	9.49097e-06
5115.11	0.528503	2.92664e-05
5115.99	0.000723267	0.00514374
5116.85	0.528717	7.87354e-06
5117.75	0.528107	2.57568e-05
5118.65	0.527527	0.0168884
5119.49	0.529358	4.88281e-06
5120.39	0.529694	1.26648e-05
5121.29	0.529205	0.0101746
5122.13	0.529114	3.72314e-06
5123.03	0.528229	2.00806e-05
5123.93	0.529358	0.00105255
5124.77	0.528442	1.04675e-05
5125.67	0.529144	1.19629e-05
5126.57	0.528168	0.000305695
5127.41	0.527985	1.12305e-05
5128.31	0.529541	7.90405e-06
5129.21	0.529053	0.000124237
5130.05	0.529785	-6.10352e-07
5130.95	0.52832	1.52283e-05
5131.85	0.528564	7.30286e-05
5132.69	0.528809	4.73022e-06
5133.59	0.528259	1.28784e-05
5134.49	0.528015	5.28259e-05
5135.35	-0.697876	-0.0241913
5136.23	0.528839	9.91821e-06
5137.13	0.529144	3.35693e-05
5137.99	-0.698792	-0.0177124
5138.87	0.527924	1.48315e-05
5139.77	0.529633	2.32849e-05
5140.65	-0.000769043	0.00768738
5141.51	0.528076	1.37024e-05
5142.41	0.528809	2.72217e-05
5143.29	-0.000439453	0.00513641
5144.15	0.528015	1.3092e-05
5145.05	0.528442	2.29187e-05
5145.95	0.528564	0.0168945
5146.79	0.528839	8.20923e-06
5147.69	0.529327	1.49536e-05
5148.59	0.527893	0.0102417
5149.43	0.529327	3.44849e-06
5150.33	0.529419	1.2146e-05
5151.23	0.529449	0.00108276
5152.07	0.527924	1.14136e-05
5152.97	0.528168	1.92566e-05
5153.87	0.528259	0.000313812
5154.71	0.528687	6.34766e-06
5155.61	0.528137	1.94702e-05
5156.51	0.529602	0.000125061
5157.35	0.528534	7.01904e-06
5158.25	0.528046	1.71204e-05
5159.15	0.529205	6.84204e-05
5159.99	0.528168	1.18408e-05
5160.89	0.528809	1.31836e-05
5161.79	0.528015	5.32837e-05
5162.65	-0.697174	-0.02421875
5163.53	0.528046	1.50146e-05
5164.43	0.528076	4.18091e-05
5165.29	-0.698303	-0.0177643
5166.17	0.529663	3.05176e-06
5167.07	0.529541	2.39563e-05
5167.95	0.000653076	0.00764771
5168.81	0.528931	6.50024e-06
5169.71	0.52829	2.53601e-05
5170.59	0.00108643	0.00510559
5171.45	0.528015	1.30615e-05
5172.35	0.528168	2.61841e-05
5173.25	0.529022	0.0169037
5174.09	0.52951	5.49316e-07
5174.99	0.528198	2.2644e-05
5175.89	0.52774	0.0102844
5176.73	0.528534	8.39233e-06
5177.63	0.529633	9.42993e-06
5178.53	0.528595	0.00110901
5179.37	0.529144	4.3335e-06
5180.27	0.52951	9.91821e-06
5181.17	0.528137	0.000320099
5182.01	0.528931	4.42505e-06
5182.91	0.5289	9.30786e-06
5183.81	0.52951	0.000127167
5184.65	0.529602	4.27246e-07
5185.55	0.528137	1.60828e-05
5186.45	0.529846	6.64978e-05
5187.29	0.528839	8.23975e-06
5188.19	0.528748	9.8877e-06
5189.09	0.528259	5.31921e-05
5189.95	-0.697784	-0.0242249
5190.83	0.529297	5.46265e-06
5191.73	0.528137	4.12903e-05
5192.59	-0.698944	-0.0177887
5193.47	0.529633	3.05176e-06
5194.37	0.528656	3.10974e-05
5195.25	0.000588989	0.00762024
5196.11	0.529816	2.04468e-06
5197.01	0.529327	2.09656e-05
5197.89	-0.000570679	0.00509613
5198.75	0.528473	1.09253e-05
5199.65	0.527954	2.66113e-05
5200.55	0.528259	0.0169037
5201.39	0.52948	2.19727e-06
5202.29	0.528015	2.37427e-05
5203.19	0.52771	0.0103302
5204.03	0.529297	2.99072e-06
5204.93	0.528198	2.0874e-05
5205.83	0.528107	0.00113647
5206.67	0.528015	1.19629e-05
5207.57	0.528229	1.70898e-05
5208.47	0.529602	0.000316864
5209.31	0.529816	-1.12915e-06
5210.21	0.529358	8.94165e-06
5211.11	0.52948	0.000131653
5211.95	0.529633	-1.52588e-07
5212.85	0.528137	1.39771e-05
5213.75	0.528412	7.82166e-05
5214.59	0.528931	3.87573e-06
5215.49	0.528748	1.19019e-05
5216.39	0.528198	5.50537e-05
5217.25	-0.697144	-0.0242767
5218.13	0.528748	9.85718e-06
5219.03	0.528412	3.92151e-05
5219.89	-0.699005	-0.0178223
5220.77	0.529633	3.38745e-06
5221.67	0.528687	3.32947e-05
5222.55	-0.000460815	0.00758667
5223.41	0.529053	6.40869e-06
5224.31	0.528351	2.84424e-05
5225.19	0.000115967	0.00508026
5226.05	0.528107	9.64355e-06
5226.95	0.528381	2.39563e-05
5227.85	0.527191	0.0169128
5228.69	0.529602	1.28174e-06
5229.59	0.528778	1.98059e-05
5230.49	0.52829	0.0103668
5231.33	0.529633	-9.15527e-08
5232.23	0.529541	1.25427e-05
5233.13	0.529663	0.00115082
5233.97	0.529633	6.71387e-07
5234.87	0.527985	2.18811e-05
5235.77	0.52948	0.000324402
5236.61	0.528046	1.09558e-05
5237.51	0.528076	1.80054e-05
5238.41	0.528259	0.000144592
5239.25	0.529694	1.37329e-06
5240.15	0.528107	1.70288e-05
5241.05	0.528992	7.56836e-05
5241.89	0.528229	7.78198e-06
5242.79	0.528992	6.43921e-06
5243.69	0.529022	5.00488e-05
5244.55	-0.698608	-0.0242798
5245.43	0.528961	7.78198e-06
5246.33	0.52948	3.28979e-05
5247.19	-0.698669	-0.0178589
5248.07	0.528015	1.4801e-05
5248.97	0.528046	3.53394e-05
5249.85	-0.000524902	0.00757751
5250.71	0.529266	5.31006e-06
5251.61	0.527863	3.1311e-05
5252.49	-0.000619507	0.00506317
5253.35	0.527985	1.40076e-05
5254.25	0.528351	2.6062e-05
5255.15	0.527222	0.0169189
5255.99	0.528351	7.35474e-06
5256.89	0.529358	1.57776e-05
5257.79	0.529297	0.0104156
5258.63	0.528656	7.1106e-06
5259.53	0.528076	1.90125e-05
5260.43	0.529388	0.00117493
5261.27	0.529236	3.96729e-06
5262.17	0.528259	1.81274e-05
5263.07	0.528076	0.000341583
5263.91	0.528778	6.53076e-06
5264.81	0.529694	7.47681e-06
5265.71	0.528168	0.000145721
5266.55	0.528717	5.27954e-06
5267.45	0.528046	1.77307e-05
5268.35	0.528015	8.41675e-05
5269.19	0.527893	1.15051e-05
5270.09	0.529694	6.2561e-06
5270.99	0.528412	5.42603e-05
5271.85	-0.698425	-0.0243134
5272.73	0.528625	1.01013e-05
5273.63	0.529205	3.58582e-05
5274.49	-0.697906	-0.0179138
5275.37	0.529388	4.73022e-06
5276.27	0.529541	2.86255e-05
5277.15	0.000366211	0.00754089
5278.01	0.528137	1.44043e-05
5278.91	0.52887	2.41089e-05
5279.79	0.000558472	0.00503967
5280.65	0.529633	2.7771e-06
5281.55	0.528625	2.44141e-05
5282.45	0.527222	0.0169342
5283.29	0.528259	1.16272e-05
5284.19	0.528625	1.93787e-05
5285.09	0.527496	0.0104553
5285.93	0.528961	4.82178e-06
5286.83	0.529663	1.03149e-05
5287.73	0.529572	0.00119843
5288.57	0.52832	9.73511e-06
5289.47	0.529419	9.21631e-06
5290.37	0.528534	0.000345581
5291.21	0.528503	7.78198e-06
5292.11	0.529144	1.08948e-05
5293.01	0.528748	0.000147278
5293.85	0.52948	-2.13623e-07
5294.75	0.528839	1.27869e-05
5295.65	0.527985	8.3252e-05
5296.49	0.52948	9.46045e-07
5297.39	0.528168	1.79749e-05
5298.29	0.528778	5.12695e-05
5299.15	-0.697296	-0.0243408
5300.03	0.52951	5.61523e-06
5300.93	0.528717	3.74451e-05
5301.79	-0.697571	-0.0179382
5302.67	0.528992	7.2937e-06
5303.57	0.529022	2.88696e-05
5304.45	-0.000888062	0.00751038
5305.31	0.528015	1.33362e-05
5306.21	0.528503	2.84119e-05
5307.09	-0.000753784	0.0050351
5307.95	0.528046	1.25122e-05
5308.85	0.528076	2.52686e-05
5309.75	0.528839	0.016925
5310.59	0.528381	1.11084e-05
5311.49	0.528076	2.37427e-05
5312.39	0.527802	0.0105042
5313.23	0.527985	1.24817e-05
5314.13	0.52829	1.9928e-05
5315.03	0.529449	0.00122192
5315.87	0.529419	2.22778e-06
5316.77	0.529419	1.07422e-05
5317.67	0.528961	0.000351288
5318.51	0.52951	2.62451e-06
5319.41	0.529602	8.02612e-06
5320.31	0.528748	0.000145355
5321.15	0.528168	1.04675e-05
5322.05	0.529297	6.62231e-06
5322.95	0.527954	8.48999e-05
5323.79	0.528412	9.12476e-06
5324.69	0.528687	1.22375e-05
5325.59	0.52951	4.62341e-05
5326.45	-0.698669	-0.02435
5327.33	0.528046	1.61133e-05
5328.23	0.529022	3.8269e-05
5329.09	-0.698273	-0.0179718
5329.97	0.528412	9.33838e-06
5330.87	0.52829	3.479e-05
5331.75	-0.000354004	0.00750427
5332.61	0.528656	1.10779e-05
5333.51	0.529755	1.92261e-05
5334.39	-0.000247192	0.00502197
5335.25	0.529541	3.35693e-06
5336.15	0.528931	2.01111e-05
5337.05	0.527496	0.0169495
5337.89	0.529083	4.54712e-06
5338.79	0.528168	2.40173e-05
5339.69	0.529175	0.0105194
5340.53	0.52887	7.08008e-06
5341.43	0.528137	2.19421e-05
5342.33	0.529205	0.00124634
5343.17	0.528656	7.87354e-06
5344.07	0.528046	2.06604e-05
5344.97	0.528839	0.000355103
5345.81	0.52887	6.95801e-06
5346.71	0.529785	6.86646e-06
5347.61	0.529633	0.000142883
5348.45	0.529114	5.15747e-06
5349.35	0.528503	1.46484e-05
5350.25	0.528809	7.84302e-05
5351.09	0.528015	1.21155e-05
5351.99	0.528809	9.765625E-06
5352.89	0.529663	4.62952e-05
5353.75	-0.697174	-0.0244202
5354.63	0.528076	1.36719e-05
5355.53	0.529358	3.50342e-05
5356.39	-0.697845	-0.0180298
5357.27	0.529572	4.88281e-06
5358.17	0.529572	2.52991e-05
5359.05	-0.000579834	0.00750427
5359.91	0.528259	1.28479e-05
5360.81	0.529297	2.17896e-05
5361.69	-0.000350952	0.00503296
5362.55	0.528046	1.16882e-05
5363.45	0.528198	2.56958e-05
5364.35	0.527344	0.0169861
5365.19	0.528107	1.07727e-05
5366.09	0.528534	2.30103e-05
5366.99	0.527802	0.0105621
5367.83	0.529388	2.47192e-06
5368.73	0.528229	2.08435e-05
5369.63	0.52951	0.00125854
5370.47	0.529236	1.34277e-06
5371.37	0.52948	1.07727e-05
5372.27	0.529205	0.000357788
5373.11	0.529083	2.86865e-06
5374.01	0.528564	1.36108e-05
5374.91	0.528259	0.000153595
5375.75	0.52951	1.52588e-06
5376.65	0.528168	1.66016e-05
5377.55	0.529449	7.65076e-05
5378.39	0.528442	6.28662e-06
5379.29	0.528992	9.0332e-06
5380.19	0.528168	5.72815e-05
5381.05	-0.698669	-0.0244385
5381.93	0.528229	1.19934e-05
5382.83	0.529388	3.53088e-05
5383.69	-0.697968	-0.0180573
5384.57	0.528198	1.43433e-05
5385.47	0.528961	3.11584e-05
5386.35	-0.000671387	0.00747772
5387.21	0.529297	5.34058e-06
5388.11	0.529205	2.36206e-05
5388.99	0.000787354	0.00501007
5389.85	0.528931	6.83594e-06
5390.75	0.529053	2.2522e-05
5391.65	0.527374	0.0169769
5392.49	0.528168	1.23596e-05
5393.39	0.528137	2.44141e-05
5394.29	0.528015	0.0105927
5395.13	0.52832	1.01318e-05
5396.03	0.528259	2.10571e-05
5396.93	0.52887	0.00128967
5397.77	0.528137	1.14441e-05
5398.67	0.529297	1.14136e-05
5399.57	0.529175	0.000365662
5400.41	0.528168	9.91821e-06
5401.31	0.528259	1.78528e-05
5402.21	0.529449	0.00014978
5403.05	0.528656	7.72095e-06
5403.95	0.529358	8.72803e-06
5404.85	0.52829	8.64258e-05
5405.69	0.529541	-3.66211e-07
5406.59	0.529327	7.44629e-06
5407.49	0.52887	5.15137e-05
5408.35	-0.69873	-0.0244568
5409.23	0.52832	1.39771e-05
5410.13	0.529114	3.66516e-05
5410.99	-0.698975	-0.0180786
5411.87	0.52948	5.70679e-06
5412.77	0.528503	3.32031e-05
5413.65	-0.000668335	0.00745667
5414.51	0.528198	1.41907e-05
5415.41	0.529541	2.03857e-05
5416.29	-0.000384521	0.00500336
5417.15	0.528595	7.87354e-06
5418.05	0.528748	2.13623e-05
5418.95	0.528412	0.01698
5419.79	0.528259	1.15051e-05
5420.69	0.528381	2.2583e-05
5421.59	0.529144	0.0106323
5422.43	0.528809	6.80542e-06
5423.33	0.529358	1.31226e-05
5424.23	0.529175	0.00130646
5425.07	0.528015	1.25427e-05
5425.97	0.528381	1.651e-05
5426.87	0.527985	0.000377899
5427.71	0.528168	1.04065e-05
5428.61	0.528381	1.61743e-05
5429.51	0.528198	0.000159271
5430.35	0.528564	7.20215e-06
5431.25	0.529236	8.3313e-06
5432.15	0.528809	8.40759e-05
5432.99	0.527985	1.11084e-05
5433.89	0.529205	1.03455e-05
5434.79	0.528656	5.51758e-05
5435.65	-0.697418	-0.0244659
5436.53	0.529083	9.0332e-06
5437.43	0.529785	3.33252e-05
5438.29	-0.699188	-0.0181
5439.17	0.528564	1.14441e-05
5440.07	0.529053	2.92664e-05
5440.95	-0.000762939	0.00743469
5441.81	0.529816	2.80762e-06
5442.71	0.528992	2.59705e-05
5443.59	-0.00045166	0.00499329
5444.45	0.527985	1.32446e-05
5445.35	0.529663	1.81885e-05
5446.25	0.527222	0.0169891
5447.09	0.528076	1.41602e-05
5447.99	0.528107	2.4231e-05
5448.89	0.528229	0.0106689
5449.73	0.528473	8.78906e-06
5450.63	0.528625	1.75476e-05
5451.53	0.528961	0.0013324
5452.37	0.529358	3.17383e-06
5452.51	0.529266	3.44849e-06