File: Edgar/20240529/20240529/electrodeposition_pulsed_potential_20240529_A/pulses_2000_to_3000.txt
Time (s)	WE(1).Potential (V)	WE(1).Current (A)
2829.48	-0.698242	-0.0212891
2830.36	0.529633	-1.5564e-06
2831.26	0.528168	2.75574e-05
2832.12	-0.697662	-0.0139526
2833	0.529449	1.7395e-06
2833.9	0.52948	1.70288e-05
2834.78	-0.000546265	0.00955811
2835.64	0.529327	3.44849e-06
2836.54	0.528534	2.01111e-05
2837.42	0.000588989	0.00564819
2838.28	0.528259	1.00708e-05
2839.18	0.528168	2.09656e-05
2840.08	0.528198	0.014328
2840.92	0.529236	3.69263e-06
2841.82	0.529144	1.09863e-05
2842.72	0.52829	0.000932007
2843.56	0.528992	3.69263e-06
2844.46	0.52829	1.64795e-05
2845.36	0.528564	0.000168182
2846.2	0.528595	6.65283e-06
2847.1	0.529297	7.69043e-06
2848	0.529327	7.92847e-05
2848.84	0.528168	9.12476e-06
2849.74	0.52887	8.20923e-06
2850.64	0.529541	4.90112e-05
2851.48	0.529266	3.17383e-06
2852.38	0.529419	5.00488e-06
2853.28	0.528442	3.87573e-05
2854.12	0.52832	7.8125e-06
2855.02	0.528137	1.26038e-05
2855.92	0.529053	2.66418e-05
2856.78	-0.697632	-0.0213287
2857.66	0.52951	2.19727e-06
2858.56	0.52951	2.08435e-05
2859.42	-0.697876	-0.0139984
2860.3	0.529388	1.92261e-06
2861.2	0.52887	1.75781e-05
2862.08	0.000180054	0.00959167
2862.94	0.52951	1.2207e-06
2863.84	0.529572	1.13831e-05
2864.72	-0.000497437	0.00572052
2865.58	0.528656	8.11768e-06
2866.48	0.529083	9.67407e-06
2867.38	0.528778	0.0144562
2868.22	0.528168	8.05664e-06
2869.12	0.52948	7.59888e-06
2870.02	0.528076	0.00102753
2870.86	0.528839	3.26538e-06
2871.76	0.527954	1.68457e-05
2872.66	0.528778	0.000171661
2873.5	0.529663	-1.40381e-06
2874.4	0.528381	1.26343e-05
2875.3	0.528198	8.89282e-05
2876.14	0.528717	4.76074e-06
2877.04	0.528656	1.12915e-05
2877.94	0.52829	5.59692e-05
2878.78	0.529449	-1.70898e-06
2879.68	0.529022	6.31714e-06
2880.58	0.529663	3.59802e-05
2881.42	0.528076	9.8877e-06
2882.32	0.528595	8.54492e-06
2883.22	0.527985	3.7262e-05
2884.08	-0.698364	-0.0214294
2884.96	0.527893	1.3916e-05
2885.86	0.528168	2.94495e-05
2886.72	-0.698334	-0.0140717
2887.6	0.527954	1.29089e-05
2888.5	0.528046	2.64893e-05
2889.38	0.000247192	0.00957336
2890.24	0.5289	2.0752e-06
2891.14	0.529694	1.15967e-05
2892.02	-4.57764e-05	0.00573242
2892.88	0.529602	9.46045e-07
2893.78	0.529572	1.00708e-05
2894.68	0.527679	0.0145813
2895.52	0.528259	9.8877e-06
2896.42	0.529327	1.10168e-05
2897.32	0.529205	0.0011084
2898.16	0.528046	9.0332e-06
2899.06	0.529663	6.68335e-06
2899.96	0.529388	0.000175262
2900.8	0.529297	8.23975e-07
2901.7	0.52829	1.50757e-05
2902.6	0.528503	8.77075e-05
2903.44	0.529602	-8.23975e-07
2904.34	0.529572	4.85229e-06
2905.24	0.529602	4.97437e-05
2906.08	0.529572	-2.0752e-06
2906.98	0.528992	9.30786e-06
2907.88	0.529053	4.10156e-05
2908.72	0.528595	3.66211e-06
2909.62	0.528473	1.06812e-05
2910.52	0.528107	3.77808e-05
2911.38	-0.697479	-0.0215057
2912.26	0.528107	1.26038e-05
2913.16	0.529694	1.87683e-05
2914.02	-0.697876	-0.0141632
2914.9	0.528076	1.15356e-05
2915.8	0.528564	2.34375e-05
2916.68	-0.000100708	0.00953979
2917.54	0.528015	1.11694e-05
2918.44	0.528259	2.31018e-05
2919.32	-0.000109863	0.00575409
2920.18	0.529419	6.71387e-07
2921.08	0.528107	2.16675e-05
2921.98	0.527618	0.0146912
2922.82	0.529327	2.44141e-06
2923.72	0.528198	1.84937e-05
2924.62	0.529694	0.0011972
2925.46	0.529266	3.96729e-07
2926.36	0.528595	1.59607e-05
2927.26	0.52887	0.000184052
2928.1	0.528748	5.5542e-06
2929	0.528076	1.5686e-05
2929.9	0.528778	9.15222e-05
2930.74	0.528046	8.81958e-06
2931.64	0.528168	1.41296e-05
2932.54	0.528259	6.11572e-05
2933.38	0.527954	9.64355e-06
2934.28	0.528107	1.46484e-05
2935.18	0.528748	4.23889e-05
2936.02	0.52829	6.71387e-06
2936.92	0.529816	2.10571e-06
2937.82	0.529053	2.84424e-05
2938.68	-0.697906	-0.0216003
2939.56	0.52829	1.11389e-05
2940.46	0.528046	3.15857e-05
2941.32	-0.697845	-0.0142456
2942.2	0.527985	1.16577e-05
2943.1	0.529663	1.57776e-05
2943.98	0.000585937	0.00952454
2944.84	0.528595	7.08008e-06
2945.74	0.528046	2.4353e-05
2946.62	0.000238037	0.00575378
2947.48	0.528076	1.06506e-05
2948.38	0.529266	1.07727e-05
2949.28	0.527435	0.0147797
2950.12	0.529053	5.46265e-06
2951.02	0.529388	9.3689e-06
2951.92	0.528564	0.00129639
2952.76	0.529602	-5.49316e-07
2953.66	0.529541	6.28662e-06
2954.56	0.529266	0.000187897
2955.4	0.528168	6.37817e-06
2956.3	0.527954	1.72729e-05
2957.2	0.528717	9.14612e-05
2958.04	0.52829	7.72095e-06
2958.94	0.529175	8.45337e-06
2959.84	0.529755	5.14832e-05
2960.68	0.527893	1.11389e-05
2961.58	0.52832	1.39465e-05
2962.48	0.528168	4.62341e-05
2963.32	0.528931	3.2959e-06
2964.22	0.529053	6.43921e-06
2965.12	0.528259	3.63464e-05
2965.98	-0.698853	-0.0216766
2966.86	0.529114	8.02612e-06
2967.76	0.529602	2.11487e-05
2968.62	-0.697906	-0.0143311
2969.5	0.528076	1.28479e-05
2970.4	0.529663	1.61743e-05
2971.28	0.000564575	0.00949097
2972.14	0.528534	7.69043e-06
2973.04	0.528656	1.66626e-05
2973.92	-0.000366211	0.00576416
2974.78	0.528564	7.96509e-06
2975.68	0.528442	1.86768e-05
2976.58	0.527344	0.0148499
2977.42	0.527954	1.26648e-05
2978.32	0.528015	2.16675e-05
2979.22	0.529816	0.00138306
2980.06	0.527985	1.21765e-05
2980.96	0.529022	1.25427e-05
2981.86	0.5289	0.000196411
2982.7	0.527893	1.01929e-05
2983.6	0.528961	9.94873e-06
2984.5	0.528473	9.15833e-05
2985.34	0.528442	5.49316e-06
2986.24	0.527924	1.73035e-05
2987.14	0.528076	6.1676e-05
2987.98	0.527954	1.02844e-05
2988.88	0.529572	5.00488e-06
2989.78	0.528015	4.77905e-05
2990.62	0.529083	3.02124e-06
2991.52	0.528046	1.21155e-05
2992.42	0.528656	3.19519e-05
2993.28	-0.698975	-0.0217468
2994.16	0.528229	1.14746e-05
2995.06	0.528564	2.82898e-05
2995.92	-0.699219	-0.0144043
2996.8	0.529236	3.9978e-06
2997.7	0.529663	1.80664e-05
2998.58	-0.000946045	0.00947571
2999.44	0.528259	1.3031e-05
3000.34	0.528198	2.36206e-05
3001.22	0.00045166	0.00576752
3002.08	0.529602	1.7395e-06
3002.98	0.528381	1.85852e-05
3003.88	0.527283	0.0149231
3004.72	0.528778	6.89697e-06
3005.62	0.528778	1.28174e-05
3006.52	0.529633	0.00147583
3007.36	0.528107	1.07727e-05
3008.26	0.529175	1.11389e-05
3009.16	0.529663	0.000193237
3010	0.528809	5.64575e-06
3010.9	0.529755	4.54712e-06
3011.8	0.52951	8.6853e-05
3012.64	0.529633	1.28174e-06
3013.54	0.529663	5.88989e-06
3014.44	0.528503	6.04553e-05
3015.28	0.528839	5.92041e-06
3016.18	0.528259	1.2207e-05
3017.08	0.528229	4.66614e-05
3017.92	0.528687	4.39453e-06
3018.82	0.527863	1.63879e-05
3019.72	0.529053	2.88696e-05
3020.58	-0.697845	-0.021817
3021.46	0.528503	8.45337e-06
3022.36	0.527863	3.29285e-05
3023.22	-0.698181	-0.0144653
3024.1	0.527985	1.46179e-05
3025	0.528198	2.6825e-05
3025.88	0.000534058	0.00943604
3026.74	0.527985	1.34277e-05
3027.64	0.528687	2.09045e-05
3028.52	0.000466919	0.00575836
3029.38	0.527985	1.31836e-05
3030.28	0.52948	1.05591e-05
3031.18	0.528442	0.0149902
3032.02	0.529602	-1.37329e-06
3032.92	0.529327	1.0437e-05
3033.82	0.528839	0.00159729
3034.66	0.529053	3.72314e-06
3035.56	0.529266	8.02612e-06
3036.46	0.528076	0.000209412
3037.3	0.529663	1.09863e-06
3038.2	0.529266	1.06812e-05
3039.1	0.5289	9.04846e-05
3039.94	0.529663	-1.5564e-06
3040.84	0.527985	1.48926e-05
3041.74	0.529327	5.34973e-05
3042.58	0.528839	3.41797e-06
3043.48	0.529419	2.74658e-06
3044.38	0.527924	4.95605e-05
3045.22	0.528107	9.18579e-06
3046.12	0.528534	7.32422e-06
3047.02	0.528198	3.79944e-05
3047.88	-0.698975	-0.0218781
3048.76	0.529694	1.89209e-06
3049.66	0.528625	2.6001e-05
3050.52	-0.698425	-0.0145325
3051.4	0.528168	1.17493e-05
3052.3	0.529694	1.46179e-05
3053.18	0.000186157	0.00941772
3054.04	0.528564	8.66699e-06
3054.94	0.528046	2.31628e-05
3055.82	-0.000259399	0.0057608
3056.68	0.529541	-2.74658e-07
3057.58	0.5289	1.46484e-05
3058.48	0.528351	0.0150421
3059.32	0.529694	-1.09863e-06
3060.22	0.528442	1.78833e-05
3061.12	0.528992	0.00169891
3061.96	0.529297	3.2959e-06
3062.86	0.528107	1.70593e-05
3063.76	0.529663	0.000203918
3064.6	0.529144	1.95313e-06
3065.5	0.529663	5.88989e-06
3066.4	0.529633	8.96606e-05
3067.24	0.528625	3.90625e-06
3068.14	0.529633	4.54712e-06
3069.04	0.529663	5.31921e-05
3069.88	0.528625	4.76074e-06
3070.78	0.528687	1.09863e-05
3071.68	0.528381	4.53186e-05
3072.52	0.529022	2.04468e-06
3073.42	0.529602	9.15527e-08
3074.32	0.527985	3.94287e-05
3075.18	-0.697845	-0.0219574
3076.06	0.528168	1.18103e-05
3076.96	0.527954	3.32031e-05
3077.82	-0.698029	-0.0146271
3078.7	0.5289	6.74438e-06
3079.6	0.528931	2.41089e-05
3080.48	-0.00090332	0.00937195
3081.34	0.52887	8.78906e-06
3082.24	0.528015	2.47498e-05
3083.12	-1.2207e-05	0.00574799
3083.98	0.529419	2.62451e-06
3084.88	0.529541	1.19019e-05
3085.78	0.527893	0.0151184
3086.62	0.529633	-6.10352e-07
3087.52	0.529144	1.41602e-05
3088.42	0.528046	0.0018396
3089.26	0.52832	9.49097e-06
3090.16	0.529297	9.0332e-06
3091.06	0.528137	0.000221313
3091.9	0.528198	8.97217e-06
3092.8	0.529449	5.82886e-06
3093.7	0.528503	9.8999e-05
3094.54	0.528564	8.17871e-06
3095.44	0.528107	1.67236e-05
3096.34	0.528656	6.25e-05
3097.18	0.529663	-3.11279e-06
3098.08	0.528931	8.45337e-06
3098.98	0.528015	4.97742e-05
3099.82	0.52832	7.26318e-06
3100.72	0.529694	3.84521e-06
3101.62	0.528076	3.82385e-05
3102.48	-0.698242	-0.0220123
3103.36	0.529663	3.479e-06
3104.26	0.529388	2.31628e-05
3105.12	-0.698029	-0.0146881
3106	0.528656	7.53784e-06
3106.9	0.528778	2.28577e-05
3107.78	-0.00105591	0.00934143
3108.64	0.529358	3.23486e-06
3109.54	0.528137	2.5116e-05
3110.42	0.000286865	0.00573883
3111.28	0.529785	-1.37329e-06
3112.18	0.529633	1.16882e-05
3113.08	0.527985	0.0151672
3113.92	0.528381	8.3313e-06
3114.82	0.529541	9.21631e-06
3115.72	0.528076	0.00195953
3116.56	0.528961	3.87573e-06
3117.46	0.527985	1.83411e-05
3118.36	0.527893	0.000227814
3119.2	0.528534	9.15527e-06
3120.1	0.529419	7.17163e-06
3121	0.528015	0.000100647
3121.84	0.527924	8.97217e-06
3122.74	0.528351	1.18103e-05
3123.64	0.529449	5.48096e-05
3124.48	0.528168	8.57544e-06
3125.38	0.529572	4.27246e-06
3126.28	0.527863	5.11475e-05
3127.12	0.528381	3.75366e-06
3128.02	0.529449	4.48608e-06
3128.92	0.528442	3.75977e-05
3129.78	-0.698334	-0.0220703
3130.66	0.528015	1.33057e-05
3131.56	0.527893	3.27759e-05
3132.42	-0.698578	-0.0147736
3133.3	0.527985	1.35803e-05
3134.2	0.528137	2.67029e-05
3135.08	-0.000286865	0.0092926
3135.94	0.529358	3.72314e-06
3136.84	0.527985	2.45972e-05
3137.72	0.000698853	0.00572296
3138.58	0.529144	4.11987e-06
3139.48	0.529724	1.22375e-05
3140.38	0.527191	0.015213
3141.22	0.528595	7.2937e-06
3142.12	0.5289	1.74561e-05
3143.02	0.529388	0.00209198
3143.86	0.528015	9.67407e-06
3144.76	0.529602	8.3313e-06
3145.66	0.528046	0.000230743
3146.5	0.527985	1.14441e-05
3147.4	0.52829	1.52588e-05
3148.3	0.529541	9.21021e-05
3149.14	0.52951	-3.05176e-08
3150.04	0.528473	1.06506e-05
3150.94	0.528442	6.22559e-05
3151.78	0.529633	-5.49316e-07
3152.68	0.529633	3.2959e-06
3153.58	0.528351	4.65393e-05
3154.42	0.529663	-3.96729e-07
3155.32	0.527954	1.60217e-05
3156.22	0.529602	2.83203e-05
3157.08	-0.698547	-0.0221466
3157.96	0.528748	1.15967e-05
3158.86	0.52951	2.45667e-05
3159.72	-0.698608	-0.0148529
3160.6	0.528198	1.1261e-05
3161.5	0.529388	1.96838e-05
3162.38	-0.000143433	0.00924377
3163.24	0.529053	5.7373e-06
3164.14	0.529633	1.41296e-05
3165.02	-0.000518799	0.00571899
3165.88	0.529205	4.30298e-06
3166.78	0.529633	9.94873e-06
3167.68	0.528961	0.0152588
3168.52	0.528473	1.01318e-05
3169.42	0.529541	1.01929e-05
3170.32	0.52829	0.00233124
3171.16	0.52951	1.83105e-07
3172.06	0.527985	1.9928e-05
3172.96	0.528015	0.000239014
3173.8	0.528259	8.57544e-06
3174.7	0.528961	1.0376e-05
3175.6	0.529175	9.45129e-05
3176.44	0.529572	3.20435e-06
3177.34	0.529114	9.94873e-06
3178.24	0.52948	5.62439e-05
3179.08	0.529694	-1.19019e-06
3179.98	0.529572	4.48608e-06
3180.88	0.528534	4.40674e-05
3181.72	0.52948	-1.89209e-06
3182.62	0.528809	9.58252e-06
3183.52	0.52948	2.78625e-05
3184.38	-0.698395	-0.0222382
3185.26	0.527863	1.27563e-05
3186.16	0.527954	3.35693e-05
3187.02	-0.698883	-0.0149292
3187.9	0.528168	1.28174e-05
3188.8	0.528351	2.57263e-05
3189.68	0.000473022	0.00921936
3190.54	0.528015	1.3855e-05
3191.44	0.528473	2.13623e-05
3192.32	0.000872803	0.00569916
3193.18	0.528198	1.30615e-05
3194.08	0.529724	9.52148e-06
3194.98	0.527283	0.0153229
3195.82	0.529022	6.53076e-06
3196.72	0.529633	9.70459e-06
3197.62	0.528442	0.00255798
3198.46	0.529541	-3.96729e-07
3199.36	0.527985	1.75476e-05
3200.26	0.529694	0.000234161
3201.1	0.528168	9.552e-06
3202	0.529602	5.76782e-06
3202.9	0.529419	9.4635e-05
3203.74	0.529053	6.40869e-07
3204.64	0.529572	4.88281e-06
3205.54	0.528809	6.21643e-05
3206.38	0.52832	8.42285e-06
3207.28	0.528107	1.51367e-05
3208.18	0.528473	4.47693e-05
3209.02	0.528076	8.30078e-06
3209.92	0.528107	1.40076e-05
3210.82	0.529633	2.78625e-05
3211.68	-0.697418	-0.0223145
3212.56	0.529266	2.74658e-06
3213.46	0.529449	2.38037e-05
3214.32	-0.699341	-0.0150085
3215.2	0.52832	1.00708e-05
3216.1	0.529266	1.67542e-05
3216.98	0.00022583	0.00919189
3217.84	0.52948	2.47192e-06
3218.74	0.528534	2.15454e-05
3219.62	0.000894165	0.00569733
3220.48	0.527954	1.27258e-05
3221.38	0.528534	2.11792e-05
3222.28	0.528534	0.015387
3223.12	0.529541	3.479e-06
3224.02	0.529205	1.18713e-05
3224.92	0.528564	0.0028479
3225.76	0.529144	3.35693e-06
3226.66	0.528748	1.16272e-05
3227.56	0.529266	0.000242645
3228.4	0.529541	1.58691e-06
3229.3	0.528625	1.27258e-05
3230.2	0.529755	9.70764e-05
3231.04	0.529327	9.15527e-07
3231.94	0.529755	5.21851e-06
3232.84	0.528656	6.46057e-05
3233.68	0.529694	8.54492e-07
3234.58	0.529083	8.57544e-06
3235.48	0.528534	4.53186e-05
3236.32	0.528198	9.46045e-06
3237.22	0.529114	6.53076e-06
3238.12	0.528717	3.5675e-05
3238.98	-0.698944	-0.0223694
3239.86	0.529266	5.37109e-06
3240.76	0.529266	2.76794e-05
3241.62	-0.697998	-0.0150848
3242.5	0.527924	1.52893e-05
3243.4	0.529694	1.87683e-05
3244.28	-0.000350952	0.00916138
3245.14	0.529663	3.05176e-07
3246.04	0.529572	1.49841e-05
3246.92	-0.000305176	0.00569733
3247.78	0.529053	4.02832e-06
3248.68	0.528503	1.88293e-05
3249.58	0.527954	0.0154327
3250.42	0.529602	1.25122e-06
3251.32	0.527954	2.06604e-05
3252.22	0.528656	0.0031424
3253.06	0.528351	6.40869e-06
3253.96	0.529327	1.05286e-05
3254.86	0.528473	0.000254761
3255.7	0.529541	-3.05176e-08
3256.6	0.52948	7.04956e-06
3257.5	0.528351	0.00010733
3258.34	0.528137	8.45337e-06
3259.24	0.529205	6.74438e-06
3260.14	0.529602	5.88684e-05
3260.98	0.528259	8.48389e-06
3261.88	0.528076	1.4679e-05
3262.78	0.529602	3.98865e-05
3263.62	0.528687	7.44629e-06
3264.52	0.529633	1.77002e-06
3265.42	0.528351	3.75366e-05
3266.28	-0.697327	-0.0224518
3267.16	0.529388	4.42505e-06
3268.06	0.528412	3.25012e-05
3268.92	-0.698914	-0.0151611
3269.8	0.528046	1.29395e-05
3270.7	0.528229	2.83813e-05
3271.58	0.000491333	0.0091095
3272.44	0.528137	1.25732e-05
3273.34	0.529694	1.31836e-05
3274.22	0.000149536	0.00569061
3275.08	0.52948	5.49316e-07
3275.98	0.528076	2.22778e-05
3276.88	0.527863	0.0154968
3277.72	0.529633	-3.05176e-08
3278.62	0.529358	1.04065e-05
3279.52	0.529388	0.00350922
3280.36	0.529388	3.96729e-07
3281.26	0.528107	1.74561e-05
3282.16	0.529449	0.00025885
3283	0.529449	-6.40869e-07
3283.9	0.528595	1.47705e-05
3284.8	0.529755	9.91211e-05
3285.64	0.527985	1.02234e-05
3286.54	0.529205	6.28662e-06
3287.44	0.528931	6.18591e-05
3288.28	0.529846	-1.5564e-06
3289.18	0.529022	7.56836e-06
3290.08	0.529358	4.22668e-05
3290.92	0.529602	-1.58691e-06
3291.82	0.529236	7.04956e-06
3292.72	0.529572	3.02124e-05
3293.58	-0.697296	-0.0225189
3294.46	0.529144	6.2561e-06
3295.36	0.528442	3.15552e-05
3296.22	-0.697815	-0.0152466
3297.1	0.529572	2.47192e-06
3298	0.529358	2.15149e-05
3298.88	0.000576782	0.00908203
3299.74	0.528656	5.24902e-06
3300.64	0.528809	2.04773e-05
3301.52	0.00108032	0.0056842
3302.38	0.528076	1.01624e-05
3303.28	0.529175	1.5686e-05
3304.18	0.528839	0.0155518
3305.02	0.529602	2.74658e-07
3305.92	0.528931	1.63574e-05
3306.82	0.529144	0.00390503
3307.66	0.529449	1.25122e-06
3308.56	0.528687	1.46484e-05
3309.46	0.528595	0.000273163
3310.3	0.528534	6.95801e-06
3311.2	0.528595	1.5564e-05
3312.1	0.528198	0.00011145
3312.94	0.528412	5.27954e-06
3313.84	0.527985	1.61438e-05
3314.74	0.528595	6.51245e-05
3315.58	0.529175	2.47192e-06
3316.48	0.528168	1.54419e-05
3317.38	0.527985	5.09338e-05
3318.22	0.529663	-2.59399e-06
3319.12	0.528503	1.27258e-05
3320.02	0.528442	3.78113e-05
3320.88	-0.697388	-0.0225708
3321.76	0.527893	1.46484e-05
3322.66	0.528168	3.31116e-05
3323.52	-0.69931	-0.0153015
3324.4	0.527924	1.44348e-05
3325.3	0.529144	2.27966e-05
3326.18	-0.000924683	0.00904846
3327.04	0.528015	1.23901e-05
3327.94	0.528687	2.33154e-05
3328.82	0.000784302	0.0056781
3329.68	0.528625	8.05664e-06
3330.58	0.529388	1.41296e-05
3331.48	0.528748	0.0156067
3332.32	0.528961	4.54712e-06
3333.22	0.528717	1.51978e-05
3334.12	0.527985	0.00431976
3334.96	0.528961	3.84521e-06
3335.86	0.529022	1.44958e-05
3336.76	0.52951	0.000272247
3337.6	0.529327	-4.57764e-07
3338.5	0.528168	1.74866e-05
3339.4	0.528229	0.000112183
3340.24	0.528992	5.79834e-06
3341.14	0.528412	1.40381e-05
3342.04	0.528595	6.22864e-05
3342.88	0.528503	7.23267e-06
3343.78	0.528748	1.27869e-05
3344.68	0.529785	3.88794e-05
3345.52	0.527985	1.04065e-05
3346.42	0.528229	9.97925e-06
3347.32	0.529327	3.09753e-05
3348.18	-0.697632	-0.0226379
3349.06	0.528046	1.44653e-05
3349.96	0.529541	2.2583e-05
3350.82	-0.698029	-0.0153748
3351.7	0.527954	1.3855e-05
3352.6	0.529388	2.13013e-05
3353.48	0.000341797	0.00901489
3354.34	0.528625	6.74438e-06
3355.24	0.529572	1.40686e-05
3356.12	-0.00055542	0.0056839
3356.98	0.528656	9.06372e-06
3357.88	0.527863	2.24609e-05
3358.78	0.527924	0.0156647
3359.62	0.529144	7.99561e-06
3360.52	0.528046	2.05383e-05
3361.42	0.529541	0.00471954
3362.26	0.529327	2.56348e-06
3363.16	0.528046	1.92261e-05
3364.06	0.528656	0.000285309
3364.9	0.527985	1.2085e-05
3365.8	0.528748	1.18408e-05
3366.7	0.529602	0.000103668
3367.54	0.528015	9.70459e-06
3368.44	0.527954	1.7395e-05
3369.34	0.529816	5.88074e-05
3370.18	0.528259	1.03455e-05
3371.08	0.529053	4.97437e-06
3371.98	0.52948	4.13818e-05
3372.82	0.528107	1.08643e-05
3373.72	0.52829	1.08643e-05
3374.62	0.529266	3.06396e-05
3375.48	-0.698059	-0.0226868
3376.36	0.528503	1.12915e-05
3377.26	0.52832	3.09448e-05
3378.12	-0.699036	-0.0154175
3379	0.527954	1.33057e-05
3379.9	0.52829	2.80457e-05
3380.78	0	0.008984375
3381.64	0.527954	1.26038e-05
3382.54	0.527924	2.67639e-05
3383.42	-7.62939e-05	0.0056778
3384.28	0.52948	3.41797e-06
3385.18	0.529663	1.25732e-05
3386.08	0.527557	0.0157104
3386.92	0.527954	1.15662e-05
3387.82	0.529388	1.26953e-05
3388.72	0.528595	0.00506866
3389.56	0.528412	8.14819e-06
3390.46	0.52951	9.85718e-06
3391.36	0.528351	0.000297394
3392.2	0.529022	3.50952e-06
3393.1	0.528076	1.69678e-05
3394	0.528259	0.000114502
3394.84	0.529205	3.14331e-06
3395.74	0.529236	8.72803e-06
3396.64	0.528046	6.82068e-05
3397.48	0.528198	1.02539e-05
3398.38	0.529755	5.37109e-06
3399.28	0.529144	4.40979e-05
3400.12	0.529602	-2.16675e-06
3401.02	0.529083	6.80542e-06
3401.92	0.528748	3.45154e-05
3402.78	-0.697662	-0.0227417
3403.66	0.529175	6.22559e-06
3404.56	0.528687	2.6825e-05
3405.42	-0.698822	-0.0154999
3406.3	0.528717	9.39941e-06
3407.2	0.529266	2.09351e-05
3408.08	0.000274658	0.00895996
3408.94	0.528625	7.75146e-06
3409.84	0.529297	1.7334e-05
3410.72	-0.000512695	0.00566925
3411.58	0.529236	3.08228e-06
3412.48	0.528076	2.29187e-05
3413.38	0.527344	0.0157471
3414.22	0.528046	9.3689e-06
3415.12	0.528137	1.95007e-05
3416.02	0.527985	0.00538879
3416.86	0.529236	4.5166e-06
3417.76	0.528503	1.20544e-05
3418.66	0.52948	0.00029715
3419.5	0.528412	8.30078e-06
3420.4	0.529633	5.27954e-06
3421.3	0.528259	0.000118103
3422.14	0.529114	1.89209e-06
3423.04	0.529236	8.20923e-06
3423.94	0.528564	6.70166e-05
3424.78	0.529572	-1.83105e-07
3425.68	0.527954	1.53198e-05
3426.58	0.527985	5.43518e-05
3427.42	0.528351	6.43921e-06
3428.32	0.529755	4.5166e-06
3429.22	0.528046	4.26331e-05
3430.08	-0.69812	-0.0227905
3430.96	0.529602	2.34985e-06
3431.86	0.529633	2.34985e-05
3432.72	-0.699341	-0.0155457
3433.6	0.529205	5.98145e-06
3434.5	0.528137	2.92358e-05
3435.38	-0.000918579	0.0089447
3436.24	0.529541	9.15527e-07
3437.14	0.528931	1.77307e-05
3438.02	-6.10352e-05	0.00565979
3438.88	0.528625	9.06372e-06
3439.78	0.528015	2.18201e-05
3440.68	0.527435	0.0157928
3441.52	0.52832	8.5144e-06
3442.42	0.528778	1.44348e-05
3443.32	0.52829	0.00565369
3444.16	0.528503	5.82886e-06
3445.06	0.528564	1.80054e-05
3445.96	0.529541	0.000305115
3446.8	0.529114	4.45557e-06
3447.7	0.527985	1.84937e-05
3448.6	0.52887	0.000116791
3449.44	0.529114	4.63867e-06
3450.34	0.528625	1.27258e-05
3451.24	0.528046	7.18994e-05
3452.08	0.528625	6.50024e-06
3452.98	0.529449	5.24902e-06
3453.88	0.529633	4.21448e-05
3454.72	0.528046	1.1322e-05
3455.62	0.528229	1.34277e-05
3456.52	0.528473	3.8147e-05
3457.38	-0.6987	-0.0228363
3458.26	0.528503	1.01929e-05
3459.16	0.528748	2.71301e-05
3460.02	-0.697723	-0.0156158
3460.9	0.529419	1.0376e-06
3461.8	0.529266	2.17896e-05
3462.68	-0.000146484	0.00890503
3463.54	0.529724	4.57764e-07
3464.44	0.52887	1.9043e-05
3465.32	-0.000299072	0.00565948
3466.18	0.528809	5.46265e-06
3467.08	0.529175	1.50146e-05
3467.98	0.528351	0.0158325
3468.82	0.529419	4.57764e-07
3469.72	0.528107	2.16675e-05
3470.62	0.528656	0.0058902
3471.46	0.52829	8.20923e-06
3472.36	0.528778	1.3916e-05
3473.26	0.529541	0.000315063
3474.1	0.529236	3.26538e-06
3475	0.528015	1.86462e-05
3475.9	0.529541	0.000112427
3476.74	0.528412	9.12476e-06
3477.64	0.529602	5.5542e-06
3478.54	0.528839	6.56738e-05
3479.38	0.527954	9.21631e-06
3480.28	0.528503	9.91821e-06
3481.18	0.529022	4.76074e-05
3482.02	0.528809	1.5564e-06
3482.92	0.528534	9.97925e-06
3483.82	0.528015	4.20837e-05
3484.68	-0.697327	-0.022876
3485.56	0.528046	1.37634e-05
3486.46	0.529663	2.36206e-05
3487.32	-0.698486	-0.0156464
3488.2	0.528015	1.3092e-05
3489.1	0.52951	2.00195e-05
3489.98	-0.000585937	0.00889893
3490.84	0.529663	1.89209e-06
3491.74	0.529572	1.43127e-05
3492.62	0.00017395	0.00564636
3493.48	0.528992	4.5166e-06
3494.38	0.529602	1.33667e-05
3495.28	0.527191	0.01586
3496.12	0.52948	-9.15527e-08
3497.02	0.529083	1.02844e-05
3497.92	0.529358	0.00607483
3498.76	0.529083	-2.74658e-07
3499.66	0.527924	1.97449e-05
3500.56	0.528931	0.000325256
3501.4	0.529358	2.80762e-06
3502.3	0.529663	6.31714e-06
3503.2	0.529755	0.00011261
3504.04	0.528229	9.39941e-06
3504.94	0.528229	1.50146e-05
3505.84	0.527985	7.36084e-05
3506.68	0.529602	-3.96729e-07
3507.58	0.529053	8.69751e-06
3508.48	0.528015	5.39246e-05
3509.32	0.529694	-1.77002e-06
3510.22	0.528168	1.40686e-05
3511.12	0.529541	3.09753e-05
3511.98	-0.698273	-0.0229187
3512.86	0.528107	1.16882e-05
3513.76	0.528473	3.20435e-05
3514.62	-0.698914	-0.0156982
3515.5	0.529297	4.63867e-06
3516.4	0.527985	3.16162e-05
3517.28	-0.000296021	0.00885315
3518.14	0.528229	9.73511e-06
3519.04	0.529358	2.04163e-05
3519.92	0.000906372	0.00563446
3520.78	0.528076	1.44348e-05
3521.68	0.528778	1.74866e-05
3522.58	0.527588	0.0158997
3523.42	0.529236	3.02124e-06
3524.32	0.529633	1.06201e-05
3525.22	0.528412	0.00628876
3526.06	0.527985	1.10779e-05
3526.96	0.52951	7.96509e-06
3527.86	0.527954	0.000340729
3528.7	0.528778	3.8147e-06
3529.6	0.528534	1.42517e-05
3530.5	0.52887	0.000119293
3531.34	0.529175	2.41089e-06
3532.24	0.528564	1.32751e-05
3533.14	0.529541	6.43005e-05
3533.98	0.528076	9.0332e-06
3534.88	0.52832	1.35498e-05
3535.78	0.528168	5.14832e-05
3536.62	0.529602	-8.8501e-07
3537.52	0.529297	6.40869e-06
3538.42	0.529633	3.08838e-05
3539.28	-0.698761	-0.0229492
3540.16	0.529633	2.83813e-06
3541.06	0.528076	3.54614e-05
3541.92	-0.697693	-0.0157593
3542.8	0.528229	8.20923e-06
3543.7	0.529694	1.76697e-05
3544.58	0.000585937	0.00882874
3545.44	0.528839	8.88062e-06
3546.34	0.529755	1.50757e-05
3547.22	0.000152588	0.00563568
3548.08	0.52832	1.24817e-05
3548.98	0.529572	1.26648e-05
3549.88	0.528107	0.015918
3550.72	0.527985	1.14441e-05
3551.62	0.528229	1.98059e-05
3552.52	0.529541	0.00646271
3553.36	0.528076	1.18103e-05
3554.26	0.528748	1.29395e-05
3555.16	0.529602	0.000339752
3556	0.529297	1.34277e-06
3556.9	0.528351	1.55029e-05
3557.8	0.529633	0.00011438
3558.64	0.529114	2.65503e-06
3559.54	0.528656	1.44653e-05
3560.44	0.529053	6.46057e-05
3561.28	0.528473	7.93457e-06
3562.18	0.528076	1.54419e-05
3563.08	0.529388	4.40674e-05
3563.92	0.52829	7.53784e-06
3564.82	0.529633	3.90625e-06
3565.72	0.527985	4.18701e-05
3566.58	-0.697815	-0.0229858
3567.46	0.528656	8.97217e-06
3568.36	0.529419	2.56042e-05
3569.22	-0.697632	-0.0158081
3570.1	0.528137	1.20544e-05
3571	0.528534	2.87476e-05
3571.88	-0.000509644	0.00881348
3572.74	0.52829	8.39233e-06
3573.64	0.529602	1.36719e-05
3574.52	-0.000537109	0.00562836
3575.38	0.528717	4.15039e-06
3576.28	0.528992	1.67236e-05
3577.18	0.527374	0.0159576
3578.02	0.527893	1.25427e-05
3578.92	0.528717	1.50452e-05
3579.82	0.529419	0.00665344
3580.66	0.528351	9.61304e-06
3581.56	0.527985	1.87073e-05
3582.46	0.528137	0.000360046
3583.3	0.52887	4.60815e-06
3584.2	0.528107	1.71814e-05
3585.1	0.528259	0.000125549
3585.94	0.529633	9.15527e-08
3586.84	0.529572	5.15747e-06
3587.74	0.529144	6.74744e-05
3588.58	0.529022	3.84521e-06
3589.48	0.529114	7.65991e-06
3590.38	0.528351	5.08118e-05
3591.22	0.528381	7.01904e-06
3592.12	0.529144	7.32422e-06
3593.02	0.529236	3.49426e-05
3593.88	-0.698547	-0.0230255
3594.76	0.52829	1.10474e-05
3595.66	0.528229	3.30811e-05
3596.52	-0.69751	-0.01586
3597.4	0.528137	1.34583e-05
3598.3	0.528137	2.85645e-05
3599.18	0.0006073	0.0087738
3600.04	0.528076	1.27258e-05
3600.94	0.529297	1.73645e-05
3601.82	0.000756836	0.00561737
3602.68	0.527985	1.27869e-05
3603.58	0.52951	1.13525e-05
3604.48	0.527771	0.0159973
3605.32	0.5289	4.76074e-06
3606.22	0.528564	1.89209e-05
3607.12	0.529358	0.00675232
3607.96	0.529449	3.17383e-06
3608.86	0.528625	1.29089e-05
3609.76	0.529114	0.000358643
3610.6	0.528473	5.76782e-06
3611.5	0.528687	1.36108e-05
3612.4	0.529327	0.000120056
3613.24	0.529449	0
3614.14	0.52832	1.35803e-05
3615.04	0.529297	6.60095e-05
3615.88	0.529449	6.40869e-07
3616.78	0.528778	9.00269e-06
3617.68	0.528625	4.97742e-05
3618.52	0.52887	3.44849e-06
3619.42	0.528809	8.78906e-06
3620.32	0.528381	4.02527e-05
3621.18	-0.697327	-0.0230621
3622.06	0.529541	3.26538e-06
3622.96	0.52829	3.28064e-05
3623.82	-0.699127	-0.0158844
3624.7	0.528717	7.04956e-06
3625.6	0.529388	1.95618e-05
3626.48	-0.000497437	0.0087616
3627.34	0.528351	1.04065e-05
3628.24	0.528137	2.64282e-05
3629.12	-0.000512695	0.00561432
3629.98	0.528229	9.85718e-06
3630.88	0.528137	2.26746e-05
3631.78	0.527344	0.0160156
3632.62	0.528076	1.14136e-05
3633.52	0.52829	1.97754e-05
3634.42	0.528198	0.00690857
3635.26	0.529633	5.49316e-07
3636.16	0.528473	1.7395e-05
3637.06	0.52951	0.000366699
3637.9	0.529572	-5.49316e-07
3638.8	0.529327	9.24683e-06
3639.7	0.528717	0.000128143
3640.54	0.529633	-1.06812e-06
3641.44	0.529541	6.10352e-06
3642.34	0.529572	6.46362e-05
3643.18	0.528534	7.23267e-06
3644.08	0.528351	1.28784e-05
3644.98	0.529663	4.18701e-05
3645.82	0.528198	7.93457e-06
3646.72	0.528748	1.2146e-05
3647.62	0.529724	3.0426e-05
3648.48	-0.697388	-0.0231049
3649.36	0.528076	1.42822e-05
3650.26	0.528046	3.70483e-05
3651.12	-0.699158	-0.0159363
3652	0.528809	3.35693e-06
3652.9	0.527863	3.09143e-05
3653.78	7.93457e-05	0.00874023
3654.64	0.529358	8.54492e-07
3655.54	0.528381	2.39868e-05
3656.42	0.000808716	0.00559875
3657.28	0.527924	1.2146e-05
3658.18	0.528198	2.22473e-05
3659.08	0.527863	0.0160492
3659.92	0.529633	-3.96729e-07
3660.82	0.529572	9.09424e-06
3661.72	0.528992	0.0070343
3662.56	0.528839	3.20435e-06
3663.46	0.529663	8.17871e-06
3664.36	0.528931	0.000380219
3665.2	0.528046	9.67407e-06
3666.1	0.528351	1.61133e-05
3667	0.529419	0.000123444
3667.84	0.529144	3.2959e-06
3668.74	0.528015	1.63574e-05
3669.64	0.529602	6.56738e-05
3670.48	0.528412	6.46973e-06
3671.38	0.529541	5.82886e-06
3672.28	0.528564	5.22156e-05
3673.12	0.529114	8.23975e-07
3674.02	0.529236	5.34058e-06
3674.92	0.529297	3.27148e-05
3675.78	-0.697906	-0.0231201
3676.66	0.52951	2.44141e-06
3677.56	0.529694	2.48413e-05
3678.42	-0.697845	-0.0159943
3679.3	0.529541	2.41089e-06
3680.2	0.529327	2.31934e-05
3681.08	-9.46045e-05	0.00870361
3681.94	0.529633	1.86157e-06
3682.84	0.528015	2.64587e-05
3683.72	0.000891113	0.00559113
3684.58	0.529114	5.18799e-06
3685.48	0.529144	1.54419e-05
3686.38	0.527283	0.0160645
3687.22	0.528503	6.65283e-06
3688.12	0.527954	2.13623e-05
3689.02	0.528564	0.00692535
3689.86	0.529388	1.7395e-06
3690.76	0.527985	2.06909e-05
3691.66	0.528656	0.000376099
3692.5	0.528046	9.52148e-06
3693.4	0.5289	1.14746e-05
3694.3	0.528931	0.000128418
3695.14	0.528259	1.00098e-05
3696.04	0.529083	1.18713e-05
3696.94	0.527924	7.5592e-05
3697.78	0.528839	4.94385e-06
3698.68	0.529358	9.06372e-06
3699.58	0.529022	4.80347e-05
3700.42	0.529541	-8.8501e-07
3701.32	0.527863	1.43433e-05
3702.22	0.528198	4.01306e-05
3703.08	-0.697632	-0.0230774
3703.96	0.529327	2.0752e-06
3704.86	0.529755	2.38647e-05
3705.72	-0.698303	-0.0159546
3706.6	0.5289	9.8877e-06
3707.5	0.52832	2.78625e-05
3708.38	-3.05176e-05	0.00873718
3709.24	0.52829	1.26038e-05
3710.14	0.528198	2.42004e-05
3711.02	-0.000509644	0.00561066
3711.88	0.529633	-5.18799e-07
3712.78	0.52829	2.18811e-05
3713.68	0.528748	0.0160736
3714.52	0.529541	1.58691e-06
3715.42	0.528809	1.5625e-05
3716.32	0.527863	0.00698334
3717.16	0.528076	1.13525e-05
3718.06	0.529327	1.15051e-05
3718.96	0.529358	0.000377899
3719.8	0.527985	1.19019e-05
3720.7	0.52948	9.58252e-06
3721.6	0.528595	0.000130646
3722.44	0.528839	3.26538e-06
3723.34	0.528412	1.42212e-05
3724.24	0.528259	7.5592e-05
3725.08	0.52951	3.35693e-07
3725.98	0.529144	7.78198e-06
3726.88	0.528229	5.26428e-05
3727.72	0.529144	1.77002e-06
3728.62	0.529114	8.45337e-06
3729.52	0.5289	3.65906e-05
3730.38	-0.698242	-0.0231049
3731.26	0.528748	9.49097e-06
3732.16	0.528229	3.33557e-05
3733.02	-0.697754	-0.0160095
3733.9	0.528748	7.84302e-06
3734.8	0.529327	2.09961e-05
3735.68	-0.000674438	0.00870361
3736.54	0.528534	8.69751e-06
3737.44	0.528046	2.63977e-05
3738.32	-1.2207e-05	0.00560669
3739.18	0.52951	2.68555e-06
3740.08	0.528046	2.33459e-05
3740.98	0.528656	0.0160919
3741.82	0.529083	5.31006e-06
3742.72	0.52948	1.04065e-05
3743.62	0.528595	0.00701355
3744.46	0.529633	-3.05176e-08
3745.36	0.528473	1.53198e-05
3746.26	0.528076	0.000394073
3747.1	0.528961	4.60815e-06
3748	0.529327	9.61304e-06
3748.9	0.529602	0.000124359
3749.74	0.528015	1.08032e-05
3750.64	0.529449	6.83594e-06
3751.54	0.527985	7.7301e-05
3752.38	0.529541	5.49316e-07
3753.28	0.528015	1.57166e-05
3754.18	0.52948	4.36401e-05
3755.02	0.528046	1.02844e-05
3755.92	0.528168	1.28784e-05
3756.82	0.528564	3.85437e-05
3757.68	-0.698975	-0.0231049
3758.56	0.529541	4.21143e-06
3759.46	0.529572	2.40479e-05
3760.32	-0.699432	-0.01604
3761.2	0.528076	1.42822e-05
3762.1	0.52832	2.79541e-05
3762.98	0.000109863	0.0086792
3763.84	0.528259	1.08032e-05
3764.74	0.529602	1.51062e-05
3765.62	0.000695801	0.00558044
3766.48	0.529541	1.15967e-06
3767.38	0.528168	2.16675e-05
3768.28	0.527435	0.0161194
3769.12	0.529541	1.95313e-06
3770.02	0.528839	1.60217e-05
3770.92	0.529541	0.00717773
3771.76	0.528046	1.17798e-05
3772.66	0.528229	1.8219e-05
3773.56	0.527893	0.000406952
3774.4	0.527985	1.17798e-05
3775.3	0.528015	1.74866e-05
3776.2	0.527924	0.000138
3777.04	0.528778	5.43213e-06
3777.94	0.528198	1.474e-05
3778.84	0.528076	7.8186e-05
3779.68	0.528595	6.68335e-06
3780.58	0.528015	1.67542e-05
3781.48	0.528534	5.36499e-05
3782.32	0.529419	2.13623e-06
3783.22	0.528992	7.69043e-06
3784.12	0.528137	4.25415e-05
3784.98	-0.697968	-0.0231415
3785.86	0.529694	1.12915e-06
3786.76	0.528168	3.57056e-05
3787.62	-0.69928	-0.0160919
3788.5	0.529358	6.50024e-06
3789.4	0.528137	2.70691e-05
3790.28	-0.000830078	0.00863342
3791.14	0.527863	1.28784e-05
3792.04	0.528778	2.3468e-05
3792.92	-6.10352e-05	0.00557037
3793.78	0.529694	1.06812e-06
3794.68	0.52832	1.86462e-05
3795.58	0.528534	0.0161377
3796.42	0.529388	-7.62939e-07
3797.32	0.529175	1.14136e-05
3798.22	0.529266	0.00733887
3799.06	0.52832	1.15051e-05
3799.96	0.529633	1.00098e-05
3800.86	0.529175	0.000409058
3801.7	0.527832	1.16882e-05
3802.6	0.528015	1.81885e-05
3803.5	0.528015	0.000140015
3804.34	0.529358	6.10352e-08
3805.24	0.528473	1.50452e-05
3806.14	0.529541	6.84814e-05
3806.98	0.528961	2.71606e-06
3807.88	0.528046	1.48315e-05
3808.78	0.529205	4.55933e-05
3809.62	0.529419	2.74658e-06
3810.52	0.529327	4.73022e-06
3811.42	0.529236	3.39355e-05
3812.28	-0.697357	-0.0232025
3813.16	0.52948	4.08936e-06
3814.06	0.528259	3.42102e-05
3814.92	-0.698944	-0.0161377
3815.8	0.529541	3.2959e-06
3816.7	0.528595	2.64282e-05
3817.58	-0.000704956	0.00860596
3818.44	0.529083	6.43921e-06
3819.34	0.52832	2.30713e-05
3820.22	0.000909424	0.00554993
3821.08	0.528137	1.10779e-05
3821.98	0.528351	2.0874e-05
3822.88	0.528503	0.0161682
3823.72	0.528107	1.08337e-05
3824.62	0.528412	2.01416e-05
3825.52	0.529144	0.00749817
3826.36	0.528076	1.08948e-05
3827.26	0.528473	1.51672e-05
3828.16	0.529236	0.000424805
3829	0.529358	1.06812e-06
3829.9	0.528076	1.77612e-05
3830.8	0.529541	0.000131866
3831.64	0.529358	7.62939e-07
3832.54	0.529388	7.26318e-06
3833.44	0.528076	7.85522e-05
3834.28	0.528076	1.01624e-05
3835.18	0.528595	1.2207e-05
3836.08	0.52948	4.57153e-05
3836.92	0.529388	2.53296e-06
3837.82	0.529572	3.75366e-06
3838.72	0.528198	4.23889e-05
3839.58	-0.697723	-0.0232452
3840.46	0.529297	5.61523e-06
3841.36	0.528534	3.19824e-05
3842.22	-0.698242	-0.0162109
3843.1	0.529388	4.24194e-06
3844	0.528625	2.68555e-05
3844.88	0.000204468	0.00857544
3845.74	0.528046	1.15051e-05
3846.64	0.529633	1.62048e-05
3847.52	-0.000274658	0.00554047
3848.38	0.528503	9.79614e-06
3849.28	0.528259	2.23999e-05
3850.18	0.528076	0.0161896
3851.02	0.528229	9.91821e-06
3851.92	0.528442	1.84326e-05
3852.82	0.528625	0.0076416
3853.66	0.52829	9.24683e-06
3854.56	0.529419	1.1322e-05
3855.46	0.529327	0.000435059
3856.3	0.529022	2.31934e-06
3857.2	0.528961	1.33972e-05
3858.1	0.528076	0.000143707
3858.94	0.528198	9.12476e-06
3859.84	0.528839	1.05591e-05
3860.74	0.529114	7.36694e-05
3861.58	0.52829	8.02612e-06
3862.48	0.52951	5.31006e-06
3863.38	0.529053	5.09949e-05
3864.22	0.529419	2.13623e-07
3865.12	0.529114	7.59888e-06
3866.02	0.528473	4.36096e-05
3866.88	-0.698486	-0.0232666
3867.76	0.529297	4.57764e-06
3868.66	0.528198	3.2959e-05
3869.52	-0.698914	-0.0162598
3870.4	0.528442	8.8501e-06
3871.3	0.529175	2.46582e-05
3872.18	-0.000283813	0.00853271
3873.04	0.528625	5.76782e-06
3873.94	0.528717	1.98669e-05
3874.82	-0.000158691	0.00552521
3875.68	0.529053	1.89209e-06
3876.58	0.529724	1.2146e-05
3877.48	0.527252	0.016214
3878.32	0.528412	7.78198e-06
3879.22	0.5289	1.59302e-05
3880.12	0.528503	0.00777588
3880.96	0.528809	4.30298e-06
3881.86	0.528168	1.90735e-05
3882.76	0.529022	0.000450317
3883.6	0.528076	1.00708e-05
3884.5	0.528503	1.50452e-05
3885.4	0.528015	0.000145294
3886.24	0.52832	9.82666e-06
3887.14	0.528839	1.09253e-05
3888.04	0.529388	7.04041e-05
3888.88	0.5289	5.24902e-06
3889.78	0.529541	5.46265e-06
3890.68	0.528839	5.23987e-05
3891.52	0.528992	3.02124e-06
3892.42	0.529419	6.2561e-06
3893.32	0.528107	4.35791e-05
3894.18	-0.697479	-0.0233185
3895.06	0.528534	1.08032e-05
3895.96	0.529327	2.57568e-05
3896.82	-0.698059	-0.0163055
3897.7	0.528137	1.38245e-05
3898.6	0.528717	2.67029e-05
3899.48	9.15527e-06	0.0085022
3900.34	0.529205	6.40869e-06
3901.24	0.52887	1.95618e-05
3902.12	-0.000601196	0.00551575
3902.98	0.528351	1.01013e-05
3903.88	0.529541	1.44653e-05
3904.78	0.527618	0.0162292
3905.62	0.529419	3.60107e-06
3906.52	0.529572	1.06506e-05
3907.42	0.529175	0.00788879
3908.26	0.528046	1.10779e-05
3909.16	0.529114	1.33667e-05
3910.06	0.528442	0.000469208
3910.9	0.529602	1.52588e-06
3911.8	0.529205	1.19934e-05
3912.7	0.529602	0.000139099
3913.54	0.529633	6.10352e-07
3914.44	0.529175	8.27026e-06
3915.34	0.528656	7.79724e-05
3916.18	0.529236	1.7395e-06
3917.08	0.528534	1.05591e-05
3917.98	0.529602	4.6875E-05
3918.82	0.529419	4.27246e-07
3919.72	0.529572	6.28662e-06
3920.62	0.528168	4.19617e-05
3921.48	-0.697906	-0.023349
3922.36	0.528442	1.39465e-05
3923.26	0.529663	2.47192e-05
3924.12	-0.6987	-0.0163544
3925	0.527924	1.36414e-05
3925.9	0.529266	2.19727e-05
3926.78	-0.000854492	0.00848389
3927.64	0.529297	4.24194e-06
3928.54	0.529449	1.76392e-05
3929.42	0.000390625	0.00549774
3930.28	0.528259	1.04675e-05
3931.18	0.528992	1.64185e-05
3932.08	0.527832	0.0162689
3932.92	0.528992	7.44629e-06
3933.82	0.528198	2.02637e-05
3934.72	0.527771	0.00803833
3935.56	0.529572	4.88281e-07
3936.46	0.528656	1.61133e-05
3937.36	0.528229	0.000485352
3938.2	0.52951	1.09863e-06
3939.1	0.529205	1.21155e-05
3940	0.529572	0.000141418
3940.84	0.528351	9.30786e-06
3941.74	0.528015	1.70898e-05
3942.64	0.528992	7.60498e-05
3943.48	0.528259	7.99561e-06
3944.38	0.527985	1.56555e-05
3945.28	0.528931	5.16052e-05
3946.12	0.528198	8.23975e-06
3947.02	0.528503	1.2207e-05
3947.92	0.52948	3.36304e-05
3948.78	-0.698578	-0.0233826
3949.66	0.529602	3.90625e-06
3950.56	0.528534	3.2959e-05
3951.42	-0.697723	-0.016394
3952.3	0.52832	1.15356e-05
3953.2	0.528442	2.45972e-05
3954.08	0.000494385	0.00846558
3954.94	0.52948	2.7771e-06
3955.84	0.529327	1.58386e-05
3956.72	-0.000183105	0.00549622
3957.58	0.528259	1.3855e-05
3958.48	0.529602	1.29089e-05
3959.38	0.527374	0.0162964
3960.22	0.528107	1.26038e-05
3961.12	0.528229	1.92566e-05
3962.02	0.527985	0.00816956
3962.86	0.529114	5.58472e-06
3963.76	0.528259	1.70898e-05
3964.66	0.528137	0.000502228
3965.5	0.528839	4.60815e-06
3966.4	0.528076	1.94397e-05
3967.3	0.528229	0.000153687
3968.14	0.529083	4.27246e-06
3969.04	0.529572	7.23267e-06
3969.94	0.529602	7.22961e-05
3970.78	0.528198	1.00098e-05
3971.68	0.529327	6.83594e-06
3972.58	0.528168	5.6366e-05
3973.42	0.528351	8.11768e-06
3974.32	0.528625	8.63647e-06
3975.22	0.5289	3.68958e-05
3976.08	-0.697723	-0.0234222
3976.96	0.529175	4.85229e-06
3977.86	0.528503	3.39661e-05
3978.72	-0.698822	-0.0164429
3979.6	0.528107	1.12915e-05
3980.5	0.529633	2.06604e-05
3981.38	-6.71387e-05	0.0084259
3982.24	0.528931	8.20923e-06
3983.14	0.529175	1.82495e-05
3984.02	1.83105e-05	0.00548737
3984.88	0.528564	8.27026e-06
3985.78	0.529083	1.651e-05
3986.68	0.527954	0.0163116
3987.52	0.528778	7.08008e-06
3988.42	0.528778	1.68762e-05
3989.32	0.529114	0.00827026
3990.16	0.52951	1.89209e-06
3991.06	0.528381	2.005e-05
3991.96	0.528564	0.000517578
3992.8	0.52829	9.73511e-06
3993.7	0.528625	1.1322e-05
3994.6	0.528992	0.000151245
3995.44	0.528961	6.28662e-06
3996.34	0.529419	5.49316e-06
3997.24	0.528748	8.01392e-05
3998.08	0.528046	1.1261e-05
3998.98	0.528839	1.11389e-05
3999.88	0.52829	5.7373e-05
4000.72	0.528961	2.83813e-06
4001.62	0.529633	5.24902e-06
4002.52	0.528107	4.40979e-05
4003.38	-0.697388	-0.0234528
4004.26	0.528015	1.31226e-05
4005.16	0.528687	3.09448e-05
4006.02	-0.698914	-0.0164917
4006.9	0.528595	7.93457e-06
4007.8	0.529663	2.005e-05
4008.68	-0.000979614	0.00841064
4009.54	0.528809	6.86646e-06
4010.44	0.528809	2.17285e-05
4011.32	-0.000549316	0.00548065
4012.18	0.52832	1.07117e-05
4013.08	0.528412	2.14844e-05
4013.98	0.528809	0.0163391
4014.82	0.528412	9.15527e-06
4015.72	0.529358	1.29089e-05
4016.62	0.529327	0.00838928
4017.46	0.529297	3.479e-06
4018.36	0.528198	1.87988e-05
4019.26	0.528961	0.000527649
4020.1	0.529541	-7.62939e-07
4021	0.528381	1.62964e-05
4021.9	0.529266	0.000156067
4022.74	0.52829	7.17163e-06
4023.64	0.529572	7.23267e-06
4024.54	0.529633	7.31506e-05
4025.38	0.528839	5.58472e-06
4026.28	0.529449	9.73511e-06
4027.18	0.528625	5.44128e-05
4028.02	0.527954	1.08337e-05
4028.92	0.528595	8.8501e-06
4029.82	0.529236	3.57971e-05
4030.68	-0.698822	-0.0234772
4031.56	0.529297	4.39453e-06
4032.46	0.529572	2.66113e-05
4033.32	-0.698273	-0.0165405
4034.2	0.529053	7.35474e-06
4035.1	0.52948	2.10571e-05
4035.98	-3.96729e-05	0.00838928
4036.84	0.52829	1.09253e-05
4037.74	0.528168	2.69165e-05
4038.62	-0.000558472	0.0054715
4039.48	0.528992	6.40869e-06
4040.38	0.528076	2.6123e-05
4041.28	0.52774	0.0163757
4042.12	0.528046	1.3031e-05
4043.02	0.529175	1.35803e-05
4043.92	0.529327	0.00849915
4044.76	0.528992	6.28662e-06
4045.66	0.528839	1.44958e-05
4046.56	0.529327	0.000538025
4047.4	0.529602	-1.2207e-07
4048.3	0.528687	1.33972e-05
4049.2	0.528748	0.000158508
4050.04	0.529602	-3.35693e-07
4050.94	0.528351	1.50757e-05
4051.84	0.528656	8.28857e-05
4052.68	0.52832	9.765625E-06
4053.58	0.529114	6.74438e-06
4054.48	0.527954	5.62134e-05
4055.32	0.528198	1.00708e-05
4056.22	0.529297	5.00488e-06
4057.12	0.528015	4.36707e-05
4057.98	-0.698792	-0.0235016
4058.86	0.529205	3.78418e-06
4059.76	0.528107	3.6438e-05
4060.62	-0.698639	-0.0165649
4061.5	0.528412	1.12305e-05
4062.4	0.529144	2.22168e-05
4063.28	0.00015564	0.00835876
4064.14	0.529144	6.10352e-06
4065.04	0.528107	2.56348e-05
4065.92	0.000320435	0.00544891
4066.78	0.528748	8.45337e-06
4067.68	0.529144	1.651e-05
4068.58	0.527802	0.0163971
4069.42	0.529297	2.19727e-06
4070.32	0.528961	1.651e-05
4071.22	0.527954	0.0085968
4072.06	0.528717	5.98145e-06
4072.96	0.528381	1.82495e-05
4073.86	0.528839	0.000556946
4074.7	0.528198	9.91821e-06
4075.6	0.529358	1.02234e-05
4076.5	0.528046	0.00016687
4077.34	0.528381	7.59888e-06
4078.24	0.529633	5.64575e-06
4079.14	0.528748	8.04443e-05
4079.98	0.529694	-5.49316e-07
4080.88	0.528473	1.14746e-05
4081.78	0.527954	5.89294e-05
4082.62	0.529724	1.2207e-06
4083.52	0.529694	3.78418e-06
4084.42	0.529541	3.34167e-05
4085.28	-0.698059	-0.0235565
4086.16	0.529022	8.42285e-06
4087.06	0.528229	3.43323e-05
4087.92	-0.697876	-0.0166443
4088.8	0.529388	3.87573e-06
4089.7	0.5289	2.5238e-05
4090.58	0.000140381	0.0083313
4091.44	0.528503	9.70459e-06
4092.34	0.528015	2.72217e-05
4093.22	0.000979614	0.00544617
4094.08	0.529175	5.24902e-06
4094.98	0.528259	2.19421e-05
4095.88	0.528534	0.0164154
4096.72	0.529541	1.5564e-06
4097.62	0.528473	1.84326e-05
4098.52	0.528931	0.00870056
4099.36	0.528717	6.22559e-06
4100.26	0.52948	1.01929e-05
4101.16	0.528137	0.000581055
4102	0.528442	8.20923e-06
4102.9	0.528748	1.04675e-05
4103.8	0.528503	0.000165283
4104.64	0.528259	1.14746e-05
4105.54	0.528992	9.18579e-06
4106.44	0.529572	7.79114e-05
4107.28	0.529419	7.62939e-07
4108.18	0.528351	1.29395e-05
4109.08	0.529602	4.85229e-05
4109.92	0.528168	8.27026e-06
4110.82	0.529388	6.34766e-06
4111.72	0.529297	3.58582e-05
4112.58	-0.697571	-0.023584
4113.46	0.528656	8.97217e-06
4114.36	0.528809	3.25928e-05
4115.22	-0.69931	-0.0166809
4116.1	0.52951	3.35693e-06
4117	0.529602	2.03552e-05
4117.88	0	0.00830688
4118.74	0.528076	1.33362e-05
4119.64	0.527985	2.6001e-05
4120.52	-0.000585937	0.00544861
4121.38	0.528229	1.24512e-05
4122.28	0.529327	1.31531e-05
4123.18	0.52829	0.016449
4124.02	0.529572	7.01904e-07
4124.92	0.528198	2.03857e-05
4125.82	0.527771	0.00877991
4126.66	0.528107	9.91821e-06
4127.56	0.529144	1.03455e-05
4128.46	0.529633	0.000583496
4129.3	0.528442	7.47681e-06
4129.44	0.529541	-5.79834e-07