File: Edgar/20240529/20240529/electrodeposition_pulsed_potential_20240529_A/pulses_1000_to_2000.txt
Time (s)	WE(1).Potential (V)	WE(1).Current (A)
1506.52	-0.698456	-0.0163269
1507.4	0.527954	8.08716e-06
1508.3	0.528656	1.28174e-05
1509.16	-0.698212	-0.00906677
1510.04	0.529602	-1.98364e-06
1510.94	0.527924	1.58386e-05
1511.82	0.000708008	0.0105225
1512.68	0.529175	-1.31226e-06
1513.58	0.52832	1.22986e-05
1514.46	0.000735474	0.00461639
1515.32	0.529785	-2.74658e-06
1516.22	0.529694	3.35693e-06
1517.12	0.528381	0.00192596
1517.96	0.529541	-2.50244e-06
1518.86	0.52951	1.34277e-06
1519.76	0.528809	0.000141022
1520.6	0.528442	4.79126e-06
1521.5	0.52948	3.96729e-06
1522.4	0.528442	7.06177e-05
1523.24	0.529236	-4.88281e-07
1524.14	0.528992	4.73022e-06
1525.04	0.528503	4.82178e-05
1525.88	0.529724	-1.64795e-06
1526.78	0.529083	2.62451e-06
1527.68	0.529236	2.83813e-05
1528.52	0.52832	4.85229e-06
1529.42	0.527924	1.0437e-05
1530.32	0.529144	2.10571e-05
1531.16	0.528564	3.32642e-06
1532.06	0.528381	7.87354e-06
1532.96	0.528931	1.80664e-05
1533.82	-0.697723	-0.0161713
1534.7	0.529083	1.98364e-06
1535.6	0.528595	1.81274e-05
1536.46	-0.69931	-0.00904236
1537.34	0.528046	8.94165e-06
1538.24	0.529266	1.0498e-05
1539.12	-0.000561523	0.0106628
1539.98	0.529266	-3.57056e-06
1540.88	0.528473	1.26648e-05
1541.76	0.00105591	0.0047403
1542.62	0.528046	7.56836e-06
1543.52	0.529694	4.91333e-06
1544.42	0.5289	0.00225983
1545.26	0.529388	-1.89209e-06
1546.16	0.528412	1.12915e-05
1547.06	0.528839	0.000145142
1547.9	0.528748	2.44141e-06
1548.8	0.529022	6.04248e-06
1549.7	0.528778	6.87866e-05
1550.54	0.528442	4.48608e-06
1551.44	0.529633	-1.83105e-07
1552.34	0.528625	4.73022e-05
1553.18	0.529663	-3.57056e-06
1554.08	0.529816	-1.19019e-06
1554.98	0.529236	3.05481e-05
1555.82	0.528168	5.46265e-06
1556.72	0.528778	6.22559e-06
1557.62	0.529785	2.00195e-05
1558.46	0.527985	8.69751e-06
1559.36	0.529663	-9.15527e-07
1560.26	0.529114	1.54114e-05
1561.12	-0.697906	-0.0162689
1562	0.527924	9.21631e-06
1562.9	0.529144	1.32446e-05
1563.76	-0.698059	-0.0091095
1564.64	0.527893	9.15527e-06
1565.54	0.52832	1.53198e-05
1566.42	-0.000747681	0.0106995
1567.28	0.527954	9.46045e-06
1568.18	0.529449	6.56128e-06
1569.06	-0.000271606	0.00481598
1569.92	0.528351	4.5166e-06
1570.82	0.528107	1.57776e-05
1571.72	0.529816	0.00257233
1572.56	0.529694	-4.3335e-06
1573.46	0.528229	1.15356e-05
1574.36	0.528259	0.000155701
1575.2	0.529419	-2.19727e-06
1576.1	0.528564	1.13831e-05
1577	0.528748	7.08618e-05
1577.84	0.527985	7.41577e-06
1578.74	0.528259	9.552e-06
1579.64	0.528412	4.63867e-05
1580.48	0.527924	9.21631e-06
1581.38	0.529663	-6.10352e-07
1582.28	0.528076	3.84521e-05
1583.12	0.528015	8.11768e-06
1584.02	0.527863	1.14441e-05
1584.92	0.529602	1.92566e-05
1585.76	0.529175	1.52588e-07
1586.66	0.529236	1.46484e-06
1587.56	0.529663	1.26953e-05
1588.42	-0.698242	-0.0163544
1589.3	0.528625	3.35693e-06
1590.2	0.529266	1.33057e-05
1591.06	-0.698547	-0.00918884
1591.94	0.528595	5.85937e-06
1592.84	0.529114	1.36108e-05
1593.72	0.000683594	0.0107117
1594.58	0.528046	8.8501e-06
1595.48	0.528046	1.75171e-05
1596.36	0.000708008	0.00486328
1597.22	0.529572	-3.11279e-06
1598.12	0.528961	9.21631e-06
1599.02	0.529846	0.00303619
1599.86	0.528076	9.33838e-06
1600.76	0.527924	1.44958e-05
1601.66	0.529541	0.000148193
1602.5	0.528809	4.30298e-06
1603.4	0.52829	1.2085e-05
1604.3	0.529236	6.87256e-05
1605.14	0.528564	2.01416e-06
1606.04	0.528717	5.76782e-06
1606.94	0.527985	5.34668e-05
1607.78	0.529663	-4.97437e-06
1608.68	0.529663	6.40869e-07
1609.58	0.529785	2.56958e-05
1610.42	0.529175	1.28174e-06
1611.32	0.52951	4.88281e-07
1612.22	0.529724	1.93787e-05
1613.06	0.52951	-4.39453e-06
1613.96	0.529694	1.28174e-06
1614.86	0.529419	1.5686e-05
1615.72	-0.699219	-0.0164612
1616.6	0.528107	8.14819e-06
1617.5	0.528839	1.34888e-05
1618.36	-0.69812	-0.00926514
1619.24	0.529419	4.27246e-07
1620.14	0.527924	2.005e-05
1621.02	-0.000115967	0.0107178
1621.88	0.528931	1.49536e-06
1622.78	0.528809	1.53809e-05
1623.66	0.000372314	0.00490265
1624.52	0.52832	7.17163e-06
1625.42	0.529755	3.60107e-06
1626.32	0.529907	0.00356018
1627.16	0.52829	7.14111e-06
1628.06	0.529541	4.3335e-06
1628.96	0.528961	0.000159058
1629.8	0.529816	-3.479e-06
1630.7	0.529144	4.57764e-06
1631.6	0.529663	6.87256e-05
1632.44	0.528046	8.81958e-06
1633.34	0.528748	6.19507e-06
1634.24	0.529724	4.09851e-05
1635.08	0.528198	7.93457e-06
1635.98	0.528381	1.00708e-05
1636.88	0.529907	2.87781e-05
1637.72	0.528137	6.53076e-06
1638.62	0.528198	1.22681e-05
1639.52	0.528503	2.73132e-05
1640.36	0.528778	2.53296e-06
1641.26	0.52887	7.17163e-06
1642.16	0.529114	1.88293e-05
1643.02	-0.69931	-0.0165649
1643.9	0.529297	9.76562e-07
1644.8	0.529358	1.43738e-05
1645.66	-0.6987	-0.00934448
1646.54	0.529724	-1.70898e-06
1647.44	0.52951	7.20215e-06
1648.32	0.000149536	0.0107178
1649.18	0.529633	-1.77002e-06
1650.08	0.528076	1.78833e-05
1650.96	0.000839233	0.00494415
1651.82	0.528717	3.08228e-06
1652.72	0.527893	1.75476e-05
1653.62	0.528503	0.00427826
1654.46	0.528442	6.19507e-06
1655.36	0.528015	1.51062e-05
1656.26	0.528015	0.000167572
1657.1	0.529327	4.57764e-07
1658	0.528412	1.10168e-05
1658.9	0.528992	7.44629e-05
1659.74	0.529694	-1.92261e-06
1660.64	0.528625	8.81958e-06
1661.54	0.529419	4.18091e-05
1662.38	0.528778	3.8147e-06
1663.28	0.52887	8.57544e-06
1664.18	0.528015	3.84827e-05
1665.02	0.528046	7.87354e-06
1665.92	0.528656	7.96509e-06
1666.82	0.528748	2.6001e-05
1667.66	0.528625	3.05176e-06
1668.56	0.52829	9.21631e-06
1669.46	0.529572	1.51978e-05
1670.32	-0.699402	-0.0166626
1671.2	0.529572	-1.06812e-06
1672.1	0.529663	1.03149e-05
1672.96	-0.699097	-0.00941467
1673.84	0.528198	8.63647e-06
1674.74	0.528351	1.84937e-05
1675.62	-0.000979614	0.0107391
1676.48	0.528809	4.02832e-06
1677.38	0.528381	1.42212e-05
1678.26	0.000958252	0.00497559
1679.12	0.528564	5.64575e-06
1680.02	0.529694	4.73022e-06
1680.92	0.528687	0.00494507
1681.76	0.52951	-1.15967e-06
1682.66	0.529572	2.80762e-06
1683.56	0.528015	0.000170959
1684.4	0.529602	-1.28174e-06
1685.3	0.52887	6.50024e-06
1686.2	0.528046	8.16345e-05
1687.04	0.528442	4.79126e-06
1687.94	0.528076	1.16272e-05
1688.84	0.528442	5.02014e-05
1689.68	0.529205	1.83105e-07
1690.58	0.529388	3.54004e-06
1691.48	0.528107	3.93066e-05
1692.32	0.528076	8.78906e-06
1693.22	0.528015	1.07422e-05
1694.12	0.528656	2.69165e-05
1694.96	0.527924	9.27734e-06
1695.86	0.529633	-3.05176e-07
1696.76	0.529602	1.47095e-05
1697.62	-0.698151	-0.0167419
1698.5	0.528992	3.87573e-06
1699.4	0.528107	2.20032e-05
1700.26	-0.698273	-0.00951233
1701.14	0.52887	4.27246e-06
1702.04	0.528381	1.66626e-05
1702.92	-0.000396729	0.0107361
1703.78	0.529327	-1.64795e-06
1704.68	0.528351	1.46484e-05
1705.56	-0.000613403	0.00502014
1706.42	0.527802	1.07117e-05
1707.32	0.528198	1.39465e-05
1708.22	0.528595	0.00567993
1709.06	0.529144	1.98364e-06
1709.96	0.529358	3.69263e-06
1710.86	0.529419	0.000164276
1711.7	0.529633	-1.67847e-06
1712.6	0.528412	1.06506e-05
1713.5	0.528351	8.10242e-05
1714.34	0.529724	-3.96729e-06
1715.24	0.529144	3.38745e-06
1716.14	0.528107	5.5603e-05
1716.98	0.527954	8.36182e-06
1717.88	0.528015	1.34277e-05
1718.78	0.528412	3.8269e-05
1719.62	0.528015	7.53784e-06
1720.52	0.528137	1.03455e-05
1721.42	0.529755	2.00195e-05
1722.26	0.528656	4.88281e-07
1723.16	0.529419	6.71387e-07
1724.06	0.52948	1.64185e-05
1724.92	-0.69754	-0.0168549
1725.8	0.528625	9.27734e-06
1726.7	0.528839	1.75476e-05
1727.56	-0.698639	-0.00959778
1728.44	0.528564	7.47681e-06
1729.34	0.528168	1.86768e-05
1730.22	-0.000469971	0.0107422
1731.08	0.52951	-6.10352e-07
1731.98	0.528168	1.60522e-05
1732.86	0.000759888	0.00504517
1733.72	0.528168	4.60815e-06
1734.62	0.527985	1.68152e-05
1735.52	0.529266	0.00631165
1736.36	0.528168	8.27026e-06
1737.26	0.52832	1.12915e-05
1738.16	0.529205	0.000169739
1739	0.528778	2.01416e-06
1739.9	0.529114	6.31714e-06
1740.8	0.527893	8.64868e-05
1741.64	0.528839	5.64575e-06
1742.54	0.529572	3.479e-06
1743.44	0.528534	5.2063e-05
1744.28	0.528564	4.36401e-06
1745.18	0.529236	2.31934e-06
1746.08	0.528442	3.63159e-05
1746.92	0.529358	-1.12915e-06
1747.82	0.529327	2.19727e-06
1748.72	0.528625	2.99988e-05
1749.56	0.528107	7.17163e-06
1750.46	0.52951	2.74658e-07
1751.36	0.529358	1.93481e-05
1752.22	-0.697906	-0.0169403
1753.1	0.52887	8.8501e-07
1754	0.529419	1.49536e-05
1754.86	-0.698975	-0.00967407
1755.74	0.529633	-1.00708e-06
1756.64	0.529266	9.24683e-06
1757.52	-0.000366211	0.0107513
1758.38	0.528229	8.63647e-06
1759.28	0.528198	1.63879e-05
1760.16	0.000567627	0.00507355
1761.02	0.529144	-1.80054e-06
1761.92	0.529236	7.04956e-06
1762.82	0.529541	0.00679352
1763.66	0.52951	-1.80054e-06
1764.56	0.528381	1.53198e-05
1765.46	0.528137	0.000179443
1766.3	0.528961	1.19019e-06
1767.2	0.528839	9.33838e-06
1768.1	0.529755	7.3822e-05
1768.94	0.528015	5.95093e-06
1769.84	0.528778	7.53784e-06
1770.74	0.528046	5.63049e-05
1771.58	0.52829	3.90625e-06
1772.48	0.529205	3.78418e-06
1773.38	0.529114	3.60413e-05
1774.22	0.528137	5.7373e-06
1775.12	0.528748	6.89697e-06
1776.02	0.528442	2.97546e-05
1776.86	0.529724	-3.72314e-06
1777.76	0.528992	2.62451e-06
1778.66	0.529602	1.55334e-05
1779.52	-0.697754	-0.017038
1780.4	0.52887	5.24902e-06
1781.3	0.528961	1.76086e-05
1782.16	-0.699097	-0.00976257
1783.04	0.528046	1.09558e-05
1783.94	0.52829	1.98059e-05
1784.82	0.000161743	0.0107452
1785.68	0.528656	7.44629e-06
1786.58	0.528839	1.31531e-05
1787.46	0.00103149	0.0051004
1788.32	0.529236	1.00708e-06
1789.22	0.527924	1.76392e-05
1790.12	0.529297	0.00726807
1790.96	0.528015	1.02844e-05
1791.86	0.528564	1.20239e-05
1792.76	0.527893	0.000187195
1793.6	0.527924	9.94873e-06
1794.5	0.527954	1.55029e-05
1795.4	0.528839	7.9834e-05
1796.24	0.529236	-5.18799e-07
1797.14	0.529541	6.073e-06
1798.04	0.528809	4.953e-05
1798.88	0.52887	1.67847e-06
1799.78	0.529663	2.86865e-06
1800.68	0.528046	3.87268e-05
1801.52	0.529236	-3.14331e-06
1802.42	0.527954	1.19629e-05
1803.32	0.527954	3.32642e-05
1804.16	0.529175	-7.32422e-07
1805.06	0.529724	-1.46484e-06
1805.96	0.528961	2.10876e-05
1806.82	-0.698395	-0.0171417
1807.7	0.529602	1.00708e-06
1808.6	0.528625	1.97449e-05
1809.46	-0.698151	-0.00985107
1810.34	0.528137	9.3689e-06
1811.24	0.528809	1.58081e-05
1812.12	-5.79834e-05	0.0107361
1812.98	0.52829	7.59888e-06
1813.88	0.528015	2.05994e-05
1814.76	0.00108337	0.00513245
1815.62	0.528717	6.2561e-06
1816.52	0.528015	1.49231e-05
1817.42	0.529297	0.00768433
1818.26	0.528351	4.3335e-06
1819.16	0.528046	1.651e-05
1820.06	0.528229	0.000188232
1820.9	0.529663	-2.2583e-06
1821.8	0.527832	1.56555e-05
1822.7	0.528015	8.73413e-05
1823.54	0.528046	8.8501e-06
1824.44	0.528992	6.13403e-06
1825.34	0.527863	5.76477e-05
1826.18	0.528412	2.83813e-06
1827.08	0.528046	1.31531e-05
1827.98	0.529602	3.00598e-05
1828.82	0.528198	8.11768e-06
1829.72	0.529816	-5.49316e-07
1830.62	0.529297	2.50244e-05
1831.46	0.528992	1.49536e-06
1832.36	0.529022	3.17383e-06
1833.26	0.528351	2.5177e-05
1834.12	-0.698944	-0.0172333
1835	0.527954	1.11389e-05
1835.9	0.528198	2.31018e-05
1836.76	-0.699707	-0.00993347
1837.64	0.528534	8.17871e-06
1838.54	0.528473	1.76086e-05
1839.42	0.000823975	0.0107147
1840.28	0.528015	1.02234e-05
1841.18	0.529785	7.47681e-06
1842.06	-0.000619507	0.00516754
1842.92	0.527954	1.02234e-05
1843.82	0.528076	1.57471e-05
1844.72	0.52829	0.00803528
1845.56	0.529633	-2.41089e-06
1846.46	0.527863	1.61133e-05
1847.36	0.528107	0.000191681
1848.2	0.528198	7.59888e-06
1849.1	0.529633	2.22778e-06
1850	0.528381	8.63037e-05
1850.84	0.529816	-1.5564e-06
1851.74	0.528168	1.20239e-05
1852.64	0.529541	4.66003e-05
1853.48	0.529236	-1.15967e-06
1854.38	0.528107	9.18579e-06
1855.28	0.528717	3.73535e-05
1856.12	0.528961	3.26538e-06
1857.02	0.529114	4.30298e-06
1857.92	0.528351	3.2135e-05
1858.76	0.52951	-4.91333e-06
1859.66	0.527954	1.24817e-05
1860.56	0.528748	2.40784e-05
1861.42	-0.69751	-0.017334
1862.3	0.528503	6.073e-06
1863.2	0.527924	2.39258e-05
1864.06	-0.698151	-0.0100372
1864.94	0.52948	8.23975e-07
1865.84	0.529694	9.24683e-06
1866.72	0.000524902	0.0106995
1867.58	0.529602	-4.57764e-07
1868.48	0.529297	9.52148e-06
1869.36	-0.000473022	0.00519165
1870.22	0.529572	-3.35693e-07
1871.12	0.529694	4.85229e-06
1872.02	0.529388	0.00837097
1872.86	0.529663	-2.2583e-06
1873.76	0.527924	1.5686e-05
1874.66	0.527802	0.000197296
1875.5	0.527832	1.03149e-05
1876.4	0.527924	1.43433e-05
1877.3	0.528503	8.58459e-05
1878.14	0.527985	1.06201e-05
1879.04	0.528412	8.8501e-06
1879.94	0.528198	5.56335e-05
1880.78	0.529633	-2.01416e-06
1881.68	0.528076	1.2085e-05
1882.58	0.527985	4.31824e-05
1883.42	0.528015	9.46045e-06
1884.32	0.528931	4.05884e-06
1885.22	0.529663	2.4353e-05
1886.06	0.528656	4.02832e-06
1886.96	0.528778	3.63159e-06
1887.86	0.528076	2.44141e-05
1888.72	-0.697723	-0.0174377
1889.6	0.529236	1.86157e-06
1890.5	0.528687	1.92871e-05
1891.36	-0.69873	-0.0101318
1892.24	0.5289	7.14111e-06
1893.14	0.527954	2.11487e-05
1894.02	0.000125122	0.0107025
1894.88	0.528656	5.31006e-06
1895.78	0.52829	1.26038e-05
1896.66	0.00100403	0.00520752
1897.52	0.52948	-7.93457e-07
1898.42	0.5289	1.0376e-05
1899.32	0.528442	0.00867004
1900.16	0.52951	-9.46045e-07
1901.06	0.527954	1.58081e-05
1901.96	0.527924	0.000200043
1902.8	0.529236	9.15527e-07
1903.7	0.528229	1.19934e-05
1904.6	0.529175	8.54492e-05
1905.44	0.529175	3.02124e-06
1906.34	0.527954	1.36719e-05
1907.24	0.529572	4.76379e-05
1908.08	0.529633	-2.65503e-06
1908.98	0.52887	1.05591e-05
1909.88	0.5289	3.64685e-05
1910.72	0.528778	3.11279e-06
1911.62	0.528229	1.0437e-05
1912.52	0.528046	3.57361e-05
1913.36	0.529022	3.38745e-06
1914.26	0.52832	8.5144e-06
1915.16	0.528503	2.24304e-05
1916.02	-0.698853	-0.0175446
1916.9	0.527924	9.82666e-06
1917.8	0.528198	2.29797e-05
1918.66	-0.698181	-0.0102295
1919.54	0.529053	3.20435e-06
1920.44	0.528076	2.13318e-05
1921.32	0.000332642	0.010675
1922.18	0.528107	7.99561e-06
1923.08	0.52832	1.62964e-05
1923.96	-0.000149536	0.005242
1924.82	0.529449	-7.32422e-07
1925.72	0.528107	1.9104e-05
1926.62	0.529419	0.0089386
1927.46	0.529541	-5.18799e-07
1928.36	0.527985	1.56555e-05
1929.26	0.52832	0.000202362
1930.1	0.529755	-1.00708e-06
1931	0.528381	1.1322e-05
1931.9	0.527985	9.35364e-05
1932.74	0.529541	-2.04468e-06
1933.64	0.527863	1.37024e-05
1934.54	0.528992	5.09338e-05
1935.38	0.529572	-1.58691e-06
1936.28	0.529602	2.01416e-06
1937.18	0.529083	3.65906e-05
1938.02	0.527985	1.19629e-05
1938.92	0.528107	1.14441e-05
1939.82	0.529602	2.40173e-05
1940.66	0.529144	2.34985e-06
1941.56	0.529266	3.35693e-07
1942.46	0.528687	2.19727e-05
1943.32	-0.697662	-0.0176514
1944.2	0.5289	3.72314e-06
1945.1	0.529572	1.52283e-05
1945.96	-0.699615	-0.0103271
1946.84	0.529785	-1.34277e-06
1947.74	0.528717	1.63879e-05
1948.62	-0.000906372	0.0106659
1949.48	0.528503	5.31006e-06
1950.38	0.528107	1.65405e-05
1951.26	0.00071106	0.00525208
1952.12	0.528625	3.63159e-06
1953.02	0.529175	8.97217e-06
1953.92	0.52771	0.00921936
1954.76	0.528992	5.34058e-06
1955.66	0.528076	1.52588e-05
1956.56	0.528534	0.000206909
1957.4	0.528625	4.08936e-06
1958.3	0.529663	3.66211e-06
1959.2	0.529633	8.2489e-05
1960.04	0.529449	-2.01416e-06
1960.94	0.529358	6.37817e-06
1961.84	0.528442	5.62134e-05
1962.68	0.529175	-3.05176e-07
1963.58	0.528992	5.00488e-06
1964.48	0.529175	3.60107e-05
1965.32	0.528625	4.48608e-06
1966.22	0.528412	9.12476e-06
1967.12	0.529816	2.33765e-05
1967.96	0.528046	9.3689e-06
1968.86	0.528534	9.06372e-06
1969.76	0.528137	2.81677e-05
1970.62	-0.698303	-0.0177734
1971.5	0.528259	1.22681e-05
1972.4	0.529633	1.33667e-05
1973.26	-0.699524	-0.0104553
1974.14	0.528473	5.7373e-06
1975.04	0.529694	1.0376e-05
1975.92	-0.000631714	0.0106232
1976.78	0.52829	7.8125e-06
1977.68	0.528809	1.37939e-05
1978.56	-0.000109863	0.00528107
1979.42	0.529236	1.37329e-06
1980.32	0.529266	8.94165e-06
1981.22	0.527649	0.00948486
1982.06	0.528625	5.46265e-06
1982.96	0.529022	8.78906e-06
1983.86	0.529327	0.000208344
1984.7	0.529633	-9.15527e-07
1985.6	0.528137	1.43738e-05
1986.5	0.528748	8.91724e-05
1987.34	0.528015	9.46045e-06
1988.24	0.529114	9.70459e-06
1989.14	0.528687	5.60913e-05
1989.98	0.528015	8.54492e-06
1990.88	0.528809	9.70459e-06
1991.78	0.527954	4.52576e-05
1992.62	0.528198	8.39233e-06
1993.52	0.528748	8.39233e-06
1994.42	0.527924	3.44543e-05
1995.26	0.527954	7.99561e-06
1996.16	0.529633	3.35693e-07
1997.06	0.529633	1.88293e-05
1997.92	-0.698517	-0.0178802
1998.8	0.529572	6.40869e-07
1999.7	0.527985	2.57874e-05
2000.56	-0.69809	-0.0105865
2001.44	0.527832	1.22681e-05
2002.34	0.527924	2.33459e-05
2003.22	0.000704956	0.0105988
2004.08	0.528534	5.7373e-06
2004.98	0.527863	2.07214e-05
2005.86	0.000640869	0.00528778
2006.72	0.528259	1.00403e-05
2007.62	0.529663	6.65283e-06
2008.52	0.528961	0.00974121
2009.36	0.52951	-1.19019e-06
2010.26	0.528931	9.21631e-06
2011.16	0.528137	0.000219025
2012	0.528076	9.79614e-06
2012.9	0.529083	7.01904e-06
2013.8	0.528778	8.86536e-05
2014.64	0.52887	3.11279e-06
2015.54	0.529633	2.74658e-06
2016.44	0.528259	5.96313e-05
2017.28	0.528564	5.52368e-06
2018.18	0.528015	1.2207e-05
2019.08	0.529053	3.5553e-05
2019.92	0.528961	1.15967e-06
2020.82	0.528656	9.85718e-06
2021.72	0.529724	2.56348e-05
2022.56	0.52829	1.01318e-05
2023.46	0.529419	3.32642e-06
2024.36	0.528076	2.8595e-05
2025.22	-0.699432	-0.0180176
2026.1	0.529633	-1.28174e-06
2027	0.528076	2.4292e-05
2027.86	-0.698334	-0.0107178
2028.74	0.528839	5.64575e-06
2029.64	0.528168	2.10266e-05
2030.52	0.000466919	0.0105591
2031.38	0.529541	-1.80054e-06
2032.28	0.528076	1.94092e-05
2033.16	-0.000619507	0.00531494
2034.02	0.528229	7.99561e-06
2034.92	0.529816	6.34766e-06
2035.82	0.528931	0.00999756
2036.66	0.527954	9.73511e-06
2037.56	0.529083	7.84302e-06
2038.46	0.528412	0.000222687
2039.3	0.529449	-6.10352e-08
2040.2	0.528198	1.29089e-05
2041.1	0.529663	8.53577e-05
2041.94	0.528931	1.52588e-06
2042.84	0.529663	2.92969e-06
2043.74	0.528503	5.66711e-05
2044.58	0.528259	1.05286e-05
2045.48	0.528015	1.24207e-05
2046.38	0.528503	4.14734e-05
2047.22	0.528046	9.58252e-06
2048.12	0.529236	5.24902e-06
2049.02	0.529694	2.30713e-05
2049.86	0.528717	2.53296e-06
2050.76	0.528961	3.54004e-06
2051.66	0.528717	2.45972e-05
2052.52	-0.699158	-0.0181366
2053.4	0.528473	8.08716e-06
2054.3	0.528748	1.78528e-05
2055.16	-0.698029	-0.0108459
2056.04	0.528259	1.0498e-05
2056.94	0.528809	1.34888e-05
2057.82	-5.79834e-05	0.0105194
2058.68	0.529358	1.83105e-06
2059.58	0.527985	1.92261e-05
2060.46	-0.000598145	0.00533386
2061.32	0.529816	-2.96021e-06
2062.22	0.529663	6.13403e-06
2063.12	0.52832	0.0102631
2063.96	0.529236	2.59399e-06
2064.86	0.529785	3.479e-06
2065.76	0.52951	0.000222809
2066.6	0.529083	2.41089e-06
2067.5	0.528748	7.75146e-06
2068.4	0.528351	9.63745e-05
2069.24	0.529694	-2.62451e-06
2070.14	0.529572	2.47192e-06
2071.04	0.528015	6.38733e-05
2071.88	0.528107	7.84302e-06
2072.78	0.529633	1.52588e-06
2073.68	0.527924	4.75769e-05
2074.52	0.529266	-1.7395e-06
2075.42	0.529175	5.82886e-06
2076.32	0.527954	3.66821e-05
2077.16	0.528748	2.38037e-06
2078.06	0.528717	8.02612e-06
2078.96	0.529419	2.00195e-05
2079.82	-0.697662	-0.0182922
2080.7	0.528564	9.30786e-06
2081.6	0.527985	2.63672e-05
2082.46	-0.698639	-0.0109924
2083.34	0.528625	4.48608e-06
2084.24	0.529083	1.44348e-05
2085.12	0.000543213	0.0104828
2085.98	0.528564	6.53076e-06
2086.88	0.529144	1.01929e-05
2087.76	0.000372314	0.00535156
2088.62	0.528992	2.34985e-06
2089.52	0.527893	1.88904e-05
2090.42	0.52948	0.0105164
2091.26	0.52832	3.17383e-06
2092.16	0.529663	3.87573e-06
2093.06	0.529663	0.000231018
2093.9	0.528625	5.00488e-06
2094.8	0.529388	5.52368e-06
2095.7	0.527924	0.000100403
2096.54	0.528748	3.2959e-06
2097.44	0.529419	4.79126e-06
2098.34	0.529572	5.29175e-05
2099.18	0.527924	8.94165e-06
2100.08	0.527954	1.55029e-05
2100.98	0.529449	3.59192e-05
2101.82	0.527924	9.27734e-06
2102.72	0.527954	1.33057e-05
2103.62	0.528839	3.40881e-05
2104.46	0.527832	9.61304e-06
2105.36	0.528137	9.18579e-06
2106.26	0.528473	2.58179e-05
2107.12	-0.699432	-0.0184296
2108	0.529114	3.32642e-06
2108.9	0.528168	2.43225e-05
2109.76	-0.699066	-0.0111115
2110.64	0.527893	1.16272e-05
2111.54	0.529572	1.18408e-05
2112.42	-0.000665283	0.0104553
2113.28	0.52829	1.1322e-05
2114.18	0.529694	9.64355e-06
2115.06	-0.00032959	0.00538788
2115.92	0.529541	-1.7395e-06
2116.82	0.528503	1.18103e-05
2117.72	0.5289	0.0107422
2118.56	0.528046	9.73511e-06
2119.46	0.528198	1.51367e-05
2120.36	0.528839	0.000244781
2121.2	0.528839	3.44849e-06
2122.1	0.529724	3.78418e-06
2123.01	0.529602	8.94775e-05
2123.85	0.527985	9.97925e-06
2124.75	0.528107	1.3031e-05
2125.65	0.529236	5.26733e-05
2126.49	0.529144	7.62939e-07
2127.39	0.52951	2.10571e-06
2128.29	0.528198	4.55322e-05
2129.13	0.528992	1.31226e-06
2130.03	0.528107	1.30615e-05
2130.93	0.527954	3.75061e-05
2131.77	0.528992	2.38037e-06
2132.67	0.529053	4.79126e-06
2133.57	0.528137	2.948e-05
2134.43	-0.698364	-0.0185547
2135.31	0.528229	1.01929e-05
2136.21	0.52832	2.38342e-05
2137.07	-0.6987	-0.011261
2137.95	0.528564	6.62231e-06
2138.85	0.528534	1.79443e-05
2139.73	0.00045166	0.0104309
2140.59	0.528259	9.70459e-06
2141.49	0.529388	1.11084e-05
2142.37	-2.44141e-05	0.00540527
2143.23	0.528931	6.74438e-06
2144.13	0.529266	1.09558e-05
2145.03	0.528168	0.0109711
2145.87	0.529236	1.46484e-06
2146.77	0.529236	8.8501e-06
2147.67	0.529266	0.000250854
2148.51	0.52829	7.41577e-06
2149.41	0.52832	1.34583e-05
2150.31	0.52832	0.000100739
2151.15	0.528351	6.71387e-06
2152.05	0.529205	4.27246e-06
2152.95	0.529449	5.43518e-05
2153.79	0.528809	3.26538e-06
2154.69	0.529327	4.66919e-06
2155.59	0.528107	4.53796e-05
2156.43	0.528748	4.11987e-06
2157.33	0.52829	1.21765e-05
2158.23	0.528839	3.1189e-05
2159.07	0.528656	2.96021e-06
2159.97	0.529572	1.92261e-06
2160.87	0.529266	2.06604e-05
2161.73	-0.697601	-0.0186981
2162.61	0.529663	5.79834e-07
2163.51	0.52887	2.05078e-05
2164.37	-0.699615	-0.0113831
2165.25	0.528381	1.01624e-05
2166.15	0.529297	1.45874e-05
2167.03	0.000610352	0.0103851
2167.89	0.527893	1.08948e-05
2168.79	0.52832	2.03247e-05
2169.67	0.000146484	0.00542206
2170.53	0.529388	1.43433e-06
2171.43	0.528259	1.63574e-05
2172.33	0.528656	0.0111938
2173.17	0.528015	1.01318e-05
2174.07	0.5289	1.16577e-05
2174.97	0.528168	0.00026825
2175.81	0.5289	3.9978e-06
2176.71	0.528046	1.47095e-05
2177.61	0.528778	0.000102203
2178.45	0.529755	-2.71606e-06
2179.35	0.529083	6.86646e-06
2180.25	0.529602	5.50842e-05
2181.09	0.527893	8.91113e-06
2181.99	0.529388	4.08936e-06
2182.89	0.527985	4.86145e-05
2183.73	0.527985	1.02234e-05
2184.63	0.528259	1.24512e-05
2185.53	0.529388	2.63062e-05
2186.37	0.528076	9.97925e-06
2187.27	0.529419	1.37329e-06
2188.17	0.528839	2.6001e-05
2189.03	-0.699066	-0.0188232
2189.91	0.527985	1.18408e-05
2190.81	0.527954	2.36511e-05
2191.67	-0.698578	-0.0115387
2192.55	0.528961	3.72314e-06
2193.45	0.528442	2.07825e-05
2194.33	0.000164795	0.0103455
2195.19	0.529633	-6.10352e-07
2196.09	0.529144	1.01013e-05
2196.97	-0.000576782	0.00545898
2197.83	0.529449	6.40869e-07
2198.73	0.528931	1.09558e-05
2199.63	0.528412	0.0114044
2200.47	0.528564	7.56836e-06
2201.37	0.528229	1.45264e-05
2202.27	0.528015	0.000281433
2203.11	0.528473	5.09644e-06
2204.01	0.528046	1.51062e-05
2204.91	0.527802	0.000108398
2205.75	0.528076	6.10352e-06
2206.65	0.528198	1.45569e-05
2207.55	0.529663	5.52673e-05
2208.39	0.529449	-8.8501e-07
2209.29	0.528198	1.37634e-05
2210.19	0.52948	3.76282e-05
2211.03	0.527924	9.64355e-06
2211.93	0.527924	1.32751e-05
2212.83	0.528412	3.4729e-05
2213.67	0.529022	1.5564e-06
2214.57	0.527863	1.35803e-05
2215.47	0.528168	3.06702e-05
2216.33	-0.697601	-0.018985
2217.21	0.527985	1.21155e-05
2218.11	0.529633	1.39771e-05
2218.97	-0.699188	-0.0116577
2219.85	0.528717	6.13403e-06
2220.75	0.528687	1.84937e-05
2221.63	0.000115967	0.0103119
2222.49	0.529236	2.0752e-06
2223.39	0.529694	7.26318e-06
2224.27	0.000683594	0.00547058
2225.13	0.528076	9.85718e-06
2226.03	0.528015	1.84937e-05
2226.93	0.527557	0.0116333
2227.77	0.527985	1.07117e-05
2228.67	0.529785	5.12695e-06
2229.57	0.529053	0.000288239
2230.41	0.529633	-7.01904e-07
2231.31	0.52948	3.8147e-06
2232.21	0.527893	0.000108643
2233.05	0.528717	7.32422e-07
2233.95	0.528656	8.05664e-06
2234.85	0.529602	5.58167e-05
2235.69	0.528137	8.08716e-06
2236.59	0.529541	2.92969e-06
2237.49	0.5289	4.50745e-05
2238.33	0.528564	8.08716e-06
2239.23	0.528778	6.34766e-06
2240.13	0.528412	3.6438e-05
2240.97	0.527954	9.39941e-06
2241.87	0.528442	1.03455e-05
2242.77	0.529724	2.005e-05
2243.63	-0.697449	-0.0191193
2244.51	0.528046	1.08032e-05
2245.41	0.529633	1.50452e-05
2246.27	-0.698822	-0.0118011
2247.15	0.527863	1.19019e-05
2248.05	0.529541	1.21155e-05
2248.93	0.000238037	0.0102936
2249.79	0.529022	4.45557e-06
2250.69	0.528198	2.07214e-05
2251.57	-3.96729e-05	0.00550201
2252.43	0.529144	3.72314e-06
2253.33	0.527954	1.85852e-05
2254.23	0.528503	0.0118347
2255.07	0.527985	1.05591e-05
2255.97	0.529633	7.96509e-06
2256.87	0.527954	0.000313049
2257.71	0.527985	9.82666e-06
2258.61	0.529297	6.37817e-06
2259.51	0.528015	0.000110352
2260.35	0.527924	1.07117e-05
2261.25	0.529663	2.44141e-06
2262.15	0.529388	5.84412e-05
2262.99	0.52948	-7.93457e-07
2263.89	0.529053	6.04248e-06
2264.79	0.527771	5.01709e-05
2265.63	0.528809	4.91333e-06
2266.53	0.529144	3.93677e-06
2267.43	0.528412	3.55225e-05
2268.27	0.529053	4.88281e-07
2269.17	0.527924	1.28784e-05
2270.07	0.528992	2.71301e-05
2270.93	-0.699158	-0.0192474
2271.81	0.529022	3.96729e-06
2272.71	0.529663	1.64185e-05
2273.57	-0.699646	-0.0119324
2274.45	0.528473	1.07727e-05
2275.35	0.529388	1.32141e-05
2276.23	0.000543213	0.0102661
2277.09	0.528839	5.31006e-06
2277.99	0.528046	2.09961e-05
2278.87	8.23975e-05	0.00552765
2279.73	0.529846	-3.17383e-06
2280.63	0.529449	8.72803e-06
2281.53	0.529205	0.0120209
2282.37	0.529572	-2.80762e-06
2283.27	0.529541	6.95801e-06
2284.17	0.529846	0.000315796
2285.01	0.529205	-1.67847e-06
2285.91	0.528748	1.297e-05
2286.81	0.529022	0.000106567
2287.65	0.529327	6.10352e-07
2288.55	0.529083	5.27954e-06
2289.45	0.527954	6.69556e-05
2290.29	0.529663	-3.69263e-06
2291.19	0.529572	3.32642e-06
2292.09	0.529663	3.92151e-05
2292.93	0.529572	-4.5166e-06
2293.83	0.528473	7.50732e-06
2294.73	0.527985	4.07104e-05
2295.57	0.527954	7.17163e-06
2296.47	0.529572	2.96021e-06
2297.37	0.529663	1.94092e-05
2298.23	-0.697479	-0.0194061
2299.11	0.527924	1.26953e-05
2300.01	0.528046	2.62451e-05
2300.87	-0.699036	-0.0120789
2301.75	0.529053	2.59399e-06
2302.65	0.529816	1.34583e-05
2303.53	-0.00101318	0.0102356
2304.39	0.528564	6.71387e-06
2305.29	0.528198	2.06299e-05
2306.17	-0.000585937	0.00555817
2307.03	0.529602	0
2307.93	0.528809	1.06201e-05
2308.83	0.527649	0.0122223
2309.67	0.529297	2.0752e-06
2310.57	0.528381	1.5686e-05
2311.47	0.529053	0.000336761
2312.31	0.528534	6.16455e-06
2313.21	0.529449	6.80542e-06
2314.11	0.528778	0.000110138
2314.95	0.529175	7.93457e-07
2315.85	0.528381	1.32446e-05
2316.75	0.529449	5.87463e-05
2317.59	0.528015	7.90405e-06
2318.49	0.528656	9.12476e-06
2319.39	0.528046	4.87061e-05
2320.23	0.528931	1.2207e-06
2321.13	0.528046	1.45264e-05
2322.03	0.52951	2.99988e-05
2322.87	0.527832	7.96509e-06
2323.77	0.528748	9.09424e-06
2324.67	0.529388	2.21252e-05
2325.53	-0.698853	-0.0195221
2326.41	0.529388	1.2207e-06
2327.31	0.527832	2.83203e-05
2328.17	-0.699219	-0.0121765
2329.05	0.529602	5.79834e-07
2329.95	0.528992	1.651e-05
2330.83	-0.000494385	0.0102142
2331.69	0.529388	-3.96729e-07
2332.59	0.528717	1.75171e-05
2333.47	-0.000671387	0.00558319
2334.33	0.528778	4.60815e-06
2335.23	0.528015	1.85852e-05
2336.13	0.527374	0.0123871
2336.97	0.528656	5.21851e-06
2337.87	0.529388	1.02539e-05
2338.77	0.529633	0.000352051
2339.61	0.529175	2.28882e-06
2340.51	0.529236	1.04065e-05
2341.41	0.52951	0.000109039
2342.25	0.527954	1.01318e-05
2343.15	0.529327	5.40161e-06
2344.05	0.528107	7.15942e-05
2344.89	0.528076	9.58252e-06
2345.79	0.529846	2.38037e-06
2346.69	0.529694	3.86353e-05
2347.53	0.529663	-1.80054e-06
2348.43	0.528595	8.88062e-06
2349.33	0.52832	3.76587e-05
2350.17	0.527832	1.11694e-05
2351.07	0.528381	9.61304e-06
2351.97	0.529144	2.27661e-05
2352.83	-0.697327	-0.0196472
2353.71	0.528473	8.42285e-06
2354.61	0.528687	2.50549e-05
2355.47	-0.699585	-0.0123016
2356.35	0.528564	7.8125e-06
2357.25	0.528625	1.9989e-05
2358.13	-0.000933838	0.0101837
2358.99	0.52832	8.42285e-06
2359.89	0.529663	9.82666e-06
2360.77	-0.000402832	0.00560425
2361.63	0.528778	6.53076e-06
2362.53	0.529602	8.36182e-06
2363.43	0.528107	0.0125427
2364.27	0.527924	1.19324e-05
2365.17	0.528534	1.18713e-05
2366.07	0.528015	0.000385223
2366.91	0.528137	9.97925e-06
2367.81	0.528381	1.41296e-05
2368.71	0.5289	0.000116211
2369.55	0.528503	7.1106e-06
2370.45	0.529297	6.43921e-06
2371.35	0.528168	7.26929e-05
2372.19	0.528229	7.41577e-06
2373.09	0.52951	5.7373e-06
2373.99	0.529144	4.32129e-05
2374.83	0.529358	0
2375.73	0.528656	8.63647e-06
2376.63	0.528168	3.78113e-05
2377.47	0.529694	-2.28882e-06
2378.37	0.527802	1.3092e-05
2379.27	0.527954	3.17993e-05
2380.13	-0.698578	-0.0197601
2381.01	0.529663	-6.10352e-07
2381.91	0.528839	2.06604e-05
2382.77	-0.69812	-0.0124268
2383.65	0.529724	-3.66211e-07
2384.55	0.528351	2.16064e-05
2385.43	-0.00027771	0.0101685
2386.29	0.528778	6.31714e-06
2387.19	0.529755	8.81958e-06
2388.07	0.000158691	0.005625
2388.93	0.529724	-7.01904e-07
2389.83	0.528046	2.02637e-05
2390.73	0.528351	0.0127106
2391.57	0.527985	1.06812e-05
2392.47	0.528107	1.38245e-05
2393.37	0.528381	0.000400665
2394.21	0.529694	-1.46484e-06
2395.11	0.527893	1.57471e-05
2396.01	0.52832	0.000121674
2396.85	0.528259	7.65991e-06
2397.75	0.528839	7.47681e-06
2398.65	0.528931	6.54907e-05
2399.49	0.529327	8.8501e-07
2400.39	0.529449	3.17383e-06
2401.29	0.529297	4.13513e-05
2402.13	0.529694	-7.01904e-07
2403.03	0.529694	1.58691e-06
2403.93	0.529083	3.10974e-05
2404.77	0.527985	9.94873e-06
2405.67	0.527985	1.27258e-05
2406.57	0.528137	3.40271e-05
2407.43	-0.698059	-0.0198547
2408.31	0.529572	-1.00708e-06
2409.21	0.529663	1.71204e-05
2410.07	-0.698181	-0.0125214
2410.95	0.529114	5.7373e-06
2411.85	0.529327	1.49231e-05
2412.73	-0.000640869	0.0101196
2413.59	0.52832	8.66699e-06
2414.49	0.529388	1.36108e-05
2415.37	-0.000323486	0.00565338
2416.23	0.527771	1.19324e-05
2417.13	0.527985	2.04773e-05
2418.03	0.528687	0.012851
2418.87	0.528076	9.61304e-06
2419.77	0.527954	1.83716e-05
2420.67	0.529083	0.000419891
2421.51	0.529755	-2.16675e-06
2422.41	0.529358	6.10352e-06
2423.31	0.528534	0.000123169
2424.15	0.529633	-1.64795e-06
2425.05	0.529388	7.08008e-06
2425.95	0.527954	7.30591e-05
2426.79	0.529419	-2.13623e-06
2427.69	0.527863	1.36108e-05
2428.59	0.528748	4.62036e-05
2429.43	0.529449	-1.06812e-06
2430.33	0.528412	1.2085e-05
2431.23	0.528015	4.23279e-05
2432.07	0.529419	-5.18799e-07
2432.97	0.52887	8.11768e-06
2433.87	0.529633	2.11487e-05
2434.73	-0.698456	-0.0199707
2435.61	0.528442	8.81958e-06
2436.51	0.528015	2.90833e-05
2437.37	-0.697998	-0.0126129
2438.25	0.529083	2.13623e-06
2439.15	0.528046	2.6001e-05
2440.03	0.000540161	0.0101135
2440.89	0.529236	1.28174e-06
2441.79	0.529419	1.2085e-05
2442.67	-0.000234985	0.0056665
2443.53	0.527985	9.8877e-06
2444.43	0.529694	9.0332e-06
2445.33	0.528076	0.0129791
2446.17	0.528229	7.38525e-06
2447.07	0.528595	1.39465e-05
2447.97	0.527863	0.000449646
2448.81	0.529053	6.34766e-06
2449.71	0.52887	1.19629e-05
2450.61	0.52951	0.000119141
2451.45	0.529694	-1.31226e-06
2452.35	0.528015	1.58997e-05
2453.25	0.527924	7.50732e-05
2454.09	0.529022	2.50244e-06
2454.99	0.52832	1.12e-05
2455.89	0.529022	4.599e-05
2456.73	0.528229	7.8125e-06
2457.63	0.527954	1.11694e-05
2458.53	0.52832	3.86963e-05
2459.37	0.529602	-3.20435e-06
2460.27	0.528503	8.05664e-06
2461.17	0.528351	3.19824e-05
2462.03	-0.697754	-0.0200836
2462.91	0.528412	5.34058e-06
2463.81	0.527954	3.0426e-05
2464.67	-0.698914	-0.0127014
2465.55	0.529449	1.52588e-06
2466.45	0.528076	2.31628e-05
2467.33	-0.00102539	0.0101013
2468.19	0.529572	5.49316e-07
2469.09	0.529205	1.42212e-05
2469.97	0.000946045	0.00568115
2470.83	0.528137	1.02234e-05
2471.73	0.528931	1.11389e-05
2472.63	0.527496	0.0131256
2473.47	0.527954	1.07422e-05
2474.37	0.529663	7.20215e-06
2475.27	0.528717	0.000466949
2476.11	0.528473	5.98145e-06
2477.01	0.529541	7.26318e-06
2477.91	0.528503	0.00012973
2478.75	0.529327	-1.2207e-06
2479.65	0.527893	1.70593e-05
2480.55	0.529724	6.40564e-05
2481.39	0.529785	-2.56348e-06
2482.29	0.529327	7.41577e-06
2483.19	0.528809	4.74243e-05
2484.03	0.528961	1.70898e-06
2484.93	0.528687	8.88062e-06
2485.83	0.528381	3.96729e-05
2486.67	0.528015	6.50024e-06
2487.57	0.528717	8.69751e-06
2488.47	0.529541	2.25525e-05
2489.33	-0.698181	-0.0201782
2490.21	0.529205	4.69971e-06
2491.11	0.528748	2.48718e-05
2491.97	-0.699036	-0.0127991
2492.85	0.527985	1.15051e-05
2493.75	0.528107	2.4292e-05
2494.63	-0.000805664	0.01008
2495.49	0.527985	1.26648e-05
2496.39	0.529053	1.26953e-05
2497.27	0.000265503	0.00570801
2498.13	0.528503	7.96509e-06
2499.03	0.527924	1.9928e-05
2499.93	0.527252	0.0132568
2500.77	0.528076	1.09253e-05
2501.67	0.529663	6.31714e-06
2502.57	0.52951	0.000489502
2503.41	0.52948	1.00708e-06
2504.31	0.529633	4.30298e-06
2505.21	0.527893	0.000134949
2506.05	0.527893	1.23291e-05
2506.95	0.529602	5.76782e-06
2507.85	0.527985	7.61108e-05
2508.69	0.529358	9.76562e-07
2509.59	0.529083	8.17871e-06
2510.49	0.528107	5.22461e-05
2511.33	0.528442	5.7373e-06
2512.23	0.528595	9.09424e-06
2513.13	0.528046	4.01611e-05
2513.97	0.528381	6.74438e-06
2514.87	0.529694	9.46045e-07
2515.77	0.529572	2.12097e-05
2516.63	-0.698395	-0.020282
2517.51	0.52829	1.23901e-05
2518.41	0.529602	1.69983e-05
2519.27	-0.698639	-0.0129181
2520.15	0.529022	3.02124e-06
2521.05	0.529419	1.52588e-05
2521.93	-0.000289917	0.0100525
2522.79	0.529663	4.27246e-07
2523.69	0.528015	2.23083e-05
2524.57	0.000933838	0.00571442
2525.43	0.529114	5.06592e-06
2526.33	0.528046	1.98059e-05
2527.23	0.528015	0.0133728
2528.07	0.528107	9.58252e-06
2528.97	0.529663	7.04956e-06
2529.87	0.528595	0.00052124
2530.71	0.528442	7.78198e-06
2531.61	0.527985	1.57166e-05
2532.51	0.52948	0.000127258
2533.35	0.529144	3.66211e-06
2534.25	0.527954	1.73035e-05
2535.15	0.52948	6.80542e-05
2535.99	0.529633	-4.27246e-07
2536.89	0.528259	1.19629e-05
2537.79	0.527985	5.35278e-05
2538.63	0.528381	6.92749e-06
2539.53	0.527863	1.43433e-05
2540.43	0.529144	3.32336e-05
2541.27	0.528107	8.42285e-06
2542.17	0.529022	5.85937e-06
2543.07	0.52948	2.39868e-05
2543.93	-0.698456	-0.0203674
2544.81	0.528107	1.33667e-05
2545.71	0.528168	2.78931e-05
2546.57	-0.699127	-0.0129791
2547.45	0.529541	5.79834e-07
2548.35	0.529541	1.40686e-05
2549.23	-0.000518799	0.0100281
2550.09	0.528137	9.58252e-06
2550.99	0.52832	1.89514e-05
2551.87	0.000320435	0.00572968
2552.73	0.528412	9.24683e-06
2553.63	0.529297	1.0498e-05
2554.53	0.527832	0.0134918
2555.37	0.5289	2.74658e-06
2556.27	0.528381	1.46484e-05
2557.17	0.528137	0.000548401
2558.01	0.529388	3.35693e-07
2558.91	0.528107	1.84021e-05
2559.81	0.528015	0.000141083
2560.65	0.529541	9.15527e-08
2561.55	0.528351	1.36719e-05
2562.45	0.528076	7.76367e-05
2563.29	0.52887	4.82178e-06
2564.19	0.528931	5.24902e-06
2565.09	0.529358	4.44031e-05
2565.93	0.529449	5.79834e-07
2566.83	0.527985	1.297e-05
2567.73	0.529602	3.08228e-05
2568.57	0.529694	-1.37329e-06
2569.47	0.528137	1.22375e-05
2570.37	0.529266	2.70386e-05
2571.23	-0.69751	-0.0204559
2572.11	0.529633	2.74658e-07
2573.01	0.529572	1.83105e-05
2573.87	-0.699402	-0.0130585
2574.75	0.528046	1.28479e-05
2575.65	0.529266	1.62964e-05
2576.53	-9.15527e-05	0.0099823
2577.39	0.529633	3.05176e-07
2578.29	0.528625	2.01111e-05
2579.17	0.000793457	0.00574188
2580.03	0.528839	5.79834e-06
2580.93	0.529663	7.08008e-06
2581.83	0.528992	0.0135651
2582.67	0.529663	-1.06812e-06
2583.57	0.52948	5.64575e-06
2584.47	0.528107	0.000565491
2585.31	0.529449	1.52588e-07
2586.21	0.527924	1.67236e-05
2587.11	0.529602	0.000131378
2587.95	0.529663	-2.59399e-06
2588.85	0.527832	1.64795e-05
2589.75	0.528381	7.69958e-05
2590.59	0.529114	1.58691e-06
2591.49	0.529541	3.93677e-06
2592.39	0.528015	5.6427e-05
2593.23	0.527924	9.18579e-06
2594.13	0.529785	2.10571e-06
2595.03	0.529205	3.41797e-05
2595.87	0.529724	-2.41089e-06
2596.77	0.528625	8.69751e-06
2597.67	0.528107	3.39661e-05
2598.53	-0.697723	-0.0205139
2599.41	0.528046	1.37939e-05
2600.31	0.529602	1.78833e-05
2601.17	-0.698212	-0.0131378
2602.05	0.529053	4.73022e-06
2602.95	0.528381	2.29187e-05
2603.83	0.000500488	0.0099823
2604.69	0.529572	1.70898e-06
2605.59	0.528229	2.07214e-05
2606.47	0.000671387	0.00575012
2607.33	0.529602	-4.27246e-07
2608.23	0.528351	1.73645e-05
2609.13	0.527405	0.0136688
2609.97	0.529724	-1.98364e-06
2610.87	0.529022	1.0437e-05
2611.77	0.529663	0.000579529
2612.61	0.527985	1.08643e-05
2613.51	0.528717	1.04675e-05
2614.41	0.529175	0.000135773
2615.25	0.528412	9.552e-06
2616.15	0.529449	6.40869e-06
2617.05	0.528748	7.58667e-05
2617.89	0.529449	-1.83105e-07
2618.79	0.529694	2.7771e-06
2619.69	0.528778	4.88586e-05
2620.53	0.529694	-2.50244e-06
2621.43	0.528931	7.87354e-06
2622.33	0.529541	3.21045e-05
2623.17	0.529388	-4.88281e-07
2624.07	0.527954	1.42212e-05
2624.97	0.528381	3.06702e-05
2625.83	-0.697815	-0.0205841
2626.71	0.529358	3.479e-06
2627.61	0.528046	2.92664e-05
2628.47	-0.698578	-0.0132111
2629.35	0.528503	7.35474e-06
2630.25	0.527985	2.63367e-05
2631.13	-0.000991821	0.00994568
2631.99	0.52948	1.67847e-06
2632.89	0.529694	1.13831e-05
2633.77	0.000964355	0.00575134
2634.63	0.529602	-8.23975e-07
2635.53	0.527924	2.10266e-05
2636.43	0.527405	0.0137695
2637.27	0.529663	-5.49316e-07
2638.17	0.529083	1.29395e-05
2639.07	0.527924	0.000622253
2639.91	0.527893	1.25427e-05
2640.81	0.529083	9.27734e-06
2641.71	0.529663	0.000135803
2642.55	0.529297	1.19019e-06
2643.45	0.528625	1.30615e-05
2644.35	0.529694	7.1106e-05
2645.19	0.528015	1.09863e-05
2646.09	0.529388	5.58472e-06
2646.99	0.529297	4.73328e-05
2647.83	0.529633	-3.05176e-07
2648.73	0.529633	2.34985e-06
2649.63	0.528107	4.39148e-05
2650.47	0.528259	8.36182e-06
2651.37	0.527985	1.32446e-05
2652.27	0.52948	2.41089e-05
2653.13	-0.698608	-0.0206696
2654.01	0.528137	1.21155e-05
2654.91	0.529816	1.68152e-05
2655.77	-0.699493	-0.0133087
2656.65	0.528748	7.41577e-06
2657.55	0.52832	2.31018e-05
2658.43	0.000131226	0.00990906
2659.29	0.528107	1.11694e-05
2660.19	0.529755	1.23291e-05
2661.07	0.000964355	0.00574982
2661.93	0.528656	6.40869e-06
2662.83	0.528473	1.74255e-05
2663.73	0.527374	0.0138672
2664.57	0.528381	8.20923e-06
2665.47	0.528839	1.53809e-05
2666.37	0.527985	0.000658264
2667.21	0.528198	9.79614e-06
2668.11	0.529053	1.09253e-05
2669.01	0.529449	0.000139496
2669.85	0.528503	6.62231e-06
2670.75	0.527954	1.9165e-05
2671.65	0.528046	8.0719e-05
2672.49	0.529114	1.64795e-06
2673.39	0.529663	3.60107e-06
2674.29	0.529297	4.72107e-05
2675.13	0.529358	1.89209e-06
2676.03	0.529083	4.73022e-06
2676.93	0.527954	4.27856e-05
2677.77	0.529358	1.09863e-06
2678.67	0.528015	1.297e-05
2679.57	0.529663	2.1698e-05
2680.43	-0.698059	-0.0207855
2681.31	0.52829	9.67407e-06
2682.21	0.529266	2.09656e-05
2683.07	-0.698486	-0.0134216
2683.95	0.528015	1.18713e-05
2684.85	0.5289	2.03247e-05
2685.73	0.000491333	0.00984802
2686.59	0.529388	2.99072e-06
2687.49	0.529327	1.3855e-05
2688.37	0.000427246	0.0057489
2689.23	0.528198	8.88062e-06
2690.13	0.528198	1.651e-05
2691.03	0.527924	0.0139618
2691.87	0.529633	-9.76562e-07
2692.77	0.528442	1.55945e-05
2693.67	0.528198	0.000692749
2694.51	0.529541	1.37329e-06
2695.41	0.528259	1.31836e-05
2696.31	0.529053	0.000146423
2697.15	0.529327	2.62451e-06
2698.05	0.528198	1.25732e-05
2698.95	0.529266	7.48291e-05
2699.79	0.527954	9.24683e-06
2700.69	0.527863	1.25732e-05
2701.59	0.529663	4.64172e-05
2702.43	0.528748	5.00488e-06
2703.33	0.527924	1.38245e-05
2704.23	0.528839	3.67126e-05
2705.07	0.528534	6.7749e-06
2705.97	0.529175	8.17871e-06
2706.87	0.528046	3.50342e-05
2707.73	-0.697662	-0.020874
2708.61	0.528046	1.40076e-05
2709.51	0.528015	3.0304e-05
2710.37	-0.699371	-0.0134979
2711.25	0.529358	4.02832e-06
2712.15	0.527954	2.64282e-05
2713.03	-0.000991821	0.00982056
2713.89	0.52948	2.13623e-07
2714.79	0.528198	2.12402e-05
2715.67	-0.000442505	0.00574799
2716.53	0.529633	-1.19019e-06
2717.43	0.527954	2.11792e-05
2718.33	0.528748	0.0140381
2719.17	0.52948	-5.18799e-07
2720.07	0.529663	6.46973e-06
2720.97	0.528259	0.000741882
2721.81	0.528839	4.82178e-06
2722.71	0.528168	1.68152e-05
2723.61	0.528534	0.00015387
2724.45	0.528564	6.80542e-06
2725.35	0.528656	1.15967e-05
2726.25	0.529602	7.31201e-05
2727.09	0.52829	5.85937e-06
2727.99	0.528534	1.0376e-05
2728.89	0.527985	5.84106e-05
2729.73	0.528564	6.37817e-06
2730.63	0.528137	1.38855e-05
2731.53	0.529633	3.25928e-05
2732.37	0.527985	1.0498e-05
2733.27	0.527954	1.19629e-05
2734.17	0.528748	2.97852e-05
2735.03	-0.697449	-0.0209747
2735.91	0.528076	1.36719e-05
2736.81	0.528381	2.62146e-05
2737.67	-0.699493	-0.0136108
2738.55	0.528503	8.75854e-06
2739.45	0.529419	1.7334e-05
2740.33	-0.0010498	0.00977478
2741.19	0.529541	4.27246e-07
2742.09	0.528412	2.12097e-05
2742.97	0.000534058	0.00574402
2743.83	0.529358	5.79834e-07
2744.73	0.529327	1.25122e-05
2745.63	0.527557	0.014151
2746.47	0.527954	1.17798e-05
2747.37	0.52948	8.27026e-06
2748.27	0.529144	0.000785217
2749.11	0.528259	8.42285e-06
2750.01	0.529663	5.24902e-06
2750.91	0.528564	0.000157715
2751.75	0.529419	5.79834e-07
2752.65	0.529053	9.06372e-06
2753.55	0.528687	8.18787e-05
2754.39	0.529266	7.62939e-07
2755.29	0.528595	1.16272e-05
2756.19	0.528015	5.98145e-05
2757.03	0.529449	-2.22778e-06
2757.93	0.528656	1.08337e-05
2758.83	0.528107	4.40369e-05
2759.67	0.529602	-1.00708e-06
2760.57	0.529602	3.41797e-06
2761.47	0.528595	3.37524e-05
2762.33	-0.699066	-0.0210663
2763.21	0.528412	1.05286e-05
2764.11	0.529358	2.02332e-05
2764.97	-0.699371	-0.0136993
2765.85	0.528046	1.15967e-05
2766.75	0.529358	2.02637e-05
2767.63	-0.000549316	0.00971985
2768.49	0.529327	1.67847e-06
2769.39	0.529663	1.2207e-05
2770.27	0.000302124	0.00573456
2771.13	0.528015	1.08337e-05
2772.03	0.528198	1.91345e-05
2772.93	0.52887	0.0142334
2773.77	0.529388	1.98364e-06
2774.67	0.529419	1.0498e-05
2775.57	0.529449	0.000841064
2776.41	0.52829	6.95801e-06
2777.31	0.529388	9.46045e-06
2778.21	0.529236	0.000157593
2779.05	0.529297	-4.88281e-07
2779.95	0.527985	1.68457e-05
2780.85	0.529236	7.82166e-05
2781.69	0.529694	-1.37329e-06
2782.59	0.528076	1.48926e-05
2783.49	0.528412	5.49011e-05
2784.33	0.528351	9.0332e-06
2785.23	0.528046	1.39465e-05
2786.13	0.528107	4.33655e-05
2786.97	0.529663	-1.7395e-06
2787.87	0.529205	4.69971e-06
2788.77	0.527893	3.66516e-05
2789.63	-0.698425	-0.0211792
2790.51	0.529663	1.09863e-06
2791.41	0.528656	2.46277e-05
2792.27	-0.697815	-0.0138153
2793.15	0.528839	4.85229e-06
2794.05	0.528198	2.31628e-05
2794.93	6.10352e-05	0.00969238
2795.79	0.528992	5.76782e-06
2796.69	0.529205	1.51062e-05
2797.57	0.000588989	0.00573395
2798.43	0.529602	-2.74658e-07
2799.33	0.528381	2.09961e-05
2800.23	0.527405	0.0143402
2801.07	0.529419	2.38037e-06
2801.97	0.528351	1.76697e-05
2802.87	0.529297	0.00090271
2803.71	0.528046	1.01318e-05
2804.61	0.528839	1.6571e-05
2805.51	0.528687	0.000165375
2806.35	0.52951	-3.66211e-07
2806.49	0.529572	-2.2583e-06