File: Edgar/20240529/20240529/electrodeposition_pulsed_potential_20240529_A/pulses_0_to_1000.txt
Time (s)	WE(1).Potential (V)	WE(1).Current (A)
183.233	-0.699768	-0.00219788
184.113	0.528015	3.96729e-06
185.013	0.528076	3.9978e-06
185.873	-0.699524	-0.0014917
186.753	0.527985	4.42505e-06
187.653	0.529083	-1.95313e-06
188.533	-0.000201416	0.000117249
189.393	0.528137	4.05884e-06
190.293	0.52951	-5.88989e-06
191.173	-9.76562e-05	3.81775e-05
192.033	0.52832	3.08228e-06
192.933	0.529785	-3.72314e-06
193.833	0.529053	6.14929e-05
194.673	0.52832	4.27246e-06
195.573	0.528656	1.19019e-06
196.473	0.528534	1.92566e-05
197.313	0.529785	-7.35474e-06
198.213	0.529572	-4.3335e-06
199.113	0.528778	1.15051e-05
199.953	0.528839	6.10352e-08
200.853	0.52948	-5.85937e-06
201.753	0.528229	1.23901e-05
202.593	0.529541	-5.15747e-06
203.493	0.528473	2.65503e-06
204.393	0.529541	2.96021e-06
205.233	0.527893	3.54004e-06
206.133	0.52951	-2.38037e-06
207.033	0.529572	1.64795e-06
207.873	0.52948	-4.39453e-06
208.773	0.528564	9.15527e-07
209.673	0.528046	1.13525e-05
210.533	-0.699066	-0.00276398
211.413	0.528229	3.96729e-06
212.313	0.527954	9.82666e-06
213.173	-0.698517	-0.00206238
214.053	0.52951	-1.77002e-06
214.953	0.529633	7.32422e-07
215.833	6.40869e-05	0.000283569
216.693	0.528809	4.79126e-06
217.593	0.529541	-1.83105e-07
218.473	0.000683594	6.13403e-05
219.333	0.528259	7.99561e-06
220.233	0.529724	-1.40381e-06
221.133	0.528412	8.69446e-05
221.973	0.529388	-1.2207e-06
222.873	0.528473	7.23267e-06
223.773	0.528198	4.05884e-05
224.613	0.528687	5.18799e-06
225.513	0.529327	7.32422e-07
226.413	0.529053	2.30408e-05
227.253	0.528198	7.44629e-06
228.153	0.52829	9.24683e-06
229.053	0.528748	1.69067e-05
229.893	0.529388	6.10352e-08
230.793	0.529449	1.25122e-06
231.693	0.528351	1.91345e-05
232.533	0.529449	-1.86157e-06
233.433	0.528046	1.15356e-05
234.333	0.52832	1.80664e-05
235.173	0.529266	-2.86865e-06
236.073	0.52887	5.24902e-06
236.973	0.529724	6.10352e-06
237.833	-0.698273	-0.00435638
238.713	0.528168	1.12915e-05
239.613	0.529694	5.5542e-06
240.473	-0.699951	-0.00293182
241.353	0.528076	1.02844e-05
242.253	0.529663	3.72314e-06
243.133	2.13623e-05	0.00100861
243.993	0.529846	-2.34985e-06
244.893	0.528107	1.28784e-05
245.773	0.00020752	8.40454e-05
246.633	0.529297	-7.32422e-07
247.533	0.529694	1.80054e-06
248.433	0.527985	0.00011734
249.273	0.529083	-1.40381e-06
250.173	0.528076	1.16272e-05
251.073	0.529724	3.77808e-05
251.913	0.52948	-1.43433e-06
252.813	0.528809	5.92041e-06
253.713	0.529755	2.33154e-05
254.553	0.52829	3.23486e-06
255.453	0.529633	-9.46045e-07
256.353	0.529419	1.63879e-05
257.193	0.528992	2.74658e-07
258.093	0.529572	-1.2207e-06
258.993	0.529755	8.36182e-06
259.833	0.528107	8.05664e-06
260.733	0.529358	-2.44141e-07
261.633	0.529114	1.15967e-05
262.473	0.529083	-6.10352e-08
263.373	0.528412	5.31006e-06
264.273	0.527924	1.81274e-05
265.133	-0.698608	-0.00586578
266.013	0.528442	4.88281e-06
266.913	0.528198	1.31531e-05
267.773	-0.700073	-0.00353851
268.653	0.529175	1.43433e-06
269.553	0.528198	1.21155e-05
270.433	0.000146484	0.00314209
271.293	0.529724	-2.10571e-06
272.193	0.527985	1.2146e-05
273.073	-0.000686646	0.000107391
273.933	0.529266	3.66211e-07
274.833	0.529175	3.2959e-06
275.733	0.529602	0.000120728
276.573	0.529114	4.88281e-07
277.473	0.529236	3.32642e-06
278.373	0.529663	3.62549e-05
279.213	0.528381	3.54004e-06
280.113	0.528046	8.36182e-06
281.013	0.529541	2.02026e-05
281.853	0.52948	-3.50952e-06
282.753	0.528412	7.44629e-06
283.653	0.5289	1.87988e-05
284.493	0.529541	-6.53076e-06
285.393	0.528656	2.62451e-06
286.293	0.529572	7.41577e-06
287.133	0.529602	-5.58472e-06
288.033	0.529297	-1.28174e-06
288.933	0.528778	1.12e-05
289.773	0.52829	5.27954e-06
290.673	0.527985	8.05664e-06
291.573	0.529694	1.09863e-06
292.433	-0.699005	-0.00697845
293.313	0.529541	-1.58691e-06
294.213	0.528168	1.08032e-05
295.073	-0.699799	-0.00389923
295.953	0.528015	6.86646e-06
296.853	0.527985	1.12915e-05
297.733	-0.000534058	0.00482758
298.593	0.528412	5.98145e-06
299.493	0.528076	8.81958e-06
300.373	0.000854492	0.00013205
301.233	0.529663	-4.63867e-06
302.133	0.529633	-3.35693e-06
303.033	0.528229	0.000141785
303.873	0.528107	6.34766e-06
304.773	0.528961	2.83813e-06
305.673	0.52887	3.79944e-05
306.513	0.52948	-3.63159e-06
307.413	0.528259	4.73022e-06
308.313	0.527954	2.89612e-05
309.153	0.529358	-2.99072e-06
310.053	0.527893	7.53784e-06
310.953	0.527954	1.49841e-05
311.793	0.529602	-4.69971e-06
312.693	0.527863	8.78906e-06
313.593	0.529602	3.93677e-06
314.433	0.527802	5.67627e-06
315.333	0.528076	6.13403e-06
316.233	0.528076	1.35193e-05
317.073	0.529358	-4.18091e-06
317.973	0.529022	-1.37329e-06
318.873	0.528351	9.06372e-06
319.733	-0.698334	-0.00777588
320.613	0.528015	6.37817e-06
321.513	0.529358	1.2207e-07
322.373	-0.698364	-0.00414673
323.253	0.529663	-5.40161e-06
324.153	0.527893	1.01318e-05
325.033	-0.000665283	0.00588348
325.893	0.528046	6.01196e-06
326.793	0.528656	5.79834e-07
327.673	0.000942993	0.000196167
328.533	0.528534	6.71387e-06
329.433	0.529144	-2.56348e-06
330.333	0.529633	0.000141388
331.173	0.528229	1.31226e-06
332.073	0.529572	-3.57056e-06
332.973	0.528534	4.00085e-05
333.813	0.529266	-1.00708e-06
334.713	0.528198	5.34058e-06
335.613	0.529266	1.69067e-05
336.453	0.528473	1.40381e-06
337.353	0.529297	-1.7395e-06
338.253	0.528076	1.8219e-05
339.093	0.529724	-6.62231e-06
339.993	0.527954	6.98853e-06
340.893	0.529633	3.44849e-06
341.733	0.527954	5.7373e-06
342.633	0.528656	1.25122e-06
343.533	0.529175	4.45557e-06
344.373	0.528015	4.54712e-06
345.273	0.528076	4.60815e-06
346.173	0.52887	6.22559e-06
347.033	-0.698364	-0.00834961
347.913	0.529541	-4.73022e-06
348.813	0.5289	2.68555e-06
349.673	-0.700012	-0.00432648
350.553	0.529297	-3.78418e-06
351.453	0.528381	6.95801e-06
352.333	0.000109863	0.00658691
353.193	0.529541	-4.39453e-06
354.093	0.529205	5.79834e-07
354.973	-0.000341797	0.000293396
355.833	0.52948	-3.84521e-06
356.733	0.528046	8.02612e-06
357.633	0.529022	0.000152679
358.473	0.529724	-6.43921e-06
359.373	0.528076	7.08008e-06
360.273	0.528625	3.76587e-05
361.113	0.529449	-4.69971e-06
362.013	0.529205	-2.96021e-06
362.913	0.529694	1.3855e-05
363.753	0.529633	-5.31006e-06
364.653	0.528656	1.67847e-06
365.553	0.529205	9.91821e-06
366.393	0.527954	6.10352e-06
367.293	0.52951	-3.87573e-06
368.193	0.529541	3.479e-06
369.033	0.528564	8.54492e-07
369.933	0.528015	5.7373e-06
370.833	0.529297	2.59399e-06
371.673	0.529633	-3.9978e-06
372.573	0.528076	6.073e-06
373.473	0.527954	9.09424e-06
374.333	-0.698181	-0.00883484
375.213	0.527954	7.78198e-06
376.113	0.528351	6.71387e-06
376.973	-0.700073	-0.00448608
377.853	0.528351	5.82886e-06
378.753	0.529785	-3.69263e-06
379.633	6.71387e-05	0.00710907
380.493	0.528961	-2.65503e-06
381.393	0.528046	5.24902e-06
382.273	0.0010437	0.000389069
383.133	0.529663	-6.34766e-06
384.033	0.528961	1.83105e-07
384.933	0.528137	0.000169739
385.773	0.529419	-3.54004e-06
386.673	0.529388	-1.19019e-06
387.573	0.529053	3.68347e-05
388.413	0.528412	2.99072e-06
389.313	0.529663	-5.40161e-06
390.213	0.528778	2.0874e-05
391.053	0.529236	-2.89917e-06
391.953	0.529266	-3.23486e-06
392.853	0.528107	1.59912e-05
393.693	0.529541	-4.54712e-06
394.593	0.528442	2.19727e-06
395.493	0.528778	9.52148e-06
396.333	0.528839	6.10352e-07
397.233	0.528259	4.48608e-06
398.133	0.529663	0
398.973	0.529724	-7.90405e-06
399.873	0.529541	-5.67627e-06
400.773	0.527924	1.08643e-05
401.633	-0.698151	-0.00924988
402.513	0.529175	-4.57764e-07
403.413	0.529205	-2.71606e-06
404.273	-0.69931	-0.00464813
405.153	0.529572	-5.58472e-06
406.053	0.529419	-2.0752e-06
406.933	0.000430298	0.00751648
407.793	0.528076	4.63867e-06
408.693	0.528229	5.82886e-06
409.573	0.000427246	0.000523987
410.433	0.529022	-2.96021e-06
411.333	0.528961	-1.58691e-06
412.233	0.52887	0.000173462
413.073	0.528564	1.52588e-07
413.973	0.529449	-3.96729e-06
414.873	0.527954	4.50134e-05
415.713	0.528229	6.40869e-06
416.613	0.529846	-5.31006e-06
417.513	0.527863	2.67334e-05
418.353	0.528473	1.70898e-06
419.253	0.529449	-4.02832e-06
420.153	0.527924	1.87378e-05
420.993	0.527954	4.79126e-06
421.893	0.527832	6.95801e-06
422.793	0.528198	1.22986e-05
423.633	0.529541	-6.50024e-06
424.533	0.529053	-1.00708e-06
425.433	0.528015	1.21765e-05
426.273	0.528107	-9.15527e-08
427.173	0.527771	5.58472e-06
428.073	0.528839	1.67847e-06
428.933	-0.698151	-0.00964355
429.813	0.529449	-5.18799e-06
430.713	0.528809	2.80762e-06
431.573	-0.698486	-0.00482056
432.453	0.528442	2.68555e-06
433.353	0.528931	1.06812e-06
434.233	0.000415039	0.00786438
435.093	0.528442	3.9978e-06
435.993	0.528137	7.65991e-06
436.873	-0.000180054	0.000671997
437.733	0.528259	4.30298e-06
438.633	0.52832	5.92041e-06
439.533	0.528259	0.000188232
440.373	0.528229	3.35693e-06
441.273	0.528198	5.49316e-06
442.173	0.527924	4.73633e-05
443.013	0.528107	3.87573e-06
443.913	0.529816	-4.57764e-06
444.813	0.527924	2.72827e-05
445.653	0.529449	-2.28882e-06
446.553	0.528259	7.23267e-06
447.453	0.528168	1.9165e-05
448.293	0.528931	4.88281e-07
449.193	0.528992	-1.28174e-06
450.093	0.528046	1.43127e-05
450.933	0.528809	-1.40381e-06
451.833	0.527954	7.01904e-06
452.733	0.528137	1.24207e-05
453.573	0.529724	-7.72095e-06
454.473	0.529327	-4.11987e-06
455.373	0.528839	3.9978e-06
456.233	-0.69812	-0.0100189
457.113	0.527954	5.88989e-06
458.013	0.529755	-2.68555e-06
458.873	-0.69986	-0.00498077
459.753	0.528656	2.83813e-06
460.653	0.529144	-2.01416e-06
461.533	0.000299072	0.00819092
462.393	0.528137	4.42505e-06
463.293	0.528931	1.06812e-06
464.173	0.00110474	0.000830994
465.033	0.529144	-3.32642e-06
465.933	0.52887	7.32422e-07
466.833	0.528351	0.000197418
467.673	0.529053	1.0376e-06
468.573	0.528931	4.27246e-07
469.473	0.529236	3.88184e-05
470.313	0.527863	5.31006e-06
471.213	0.528687	2.13623e-06
472.113	0.529633	1.49536e-05
472.953	0.528839	9.46045e-07
473.853	0.527802	7.69043e-06
474.753	0.527802	1.97754e-05
475.593	0.528473	9.46045e-07
476.493	0.528015	5.09644e-06
477.393	0.52948	3.479e-06
478.233	0.528442	4.57764e-07
479.133	0.527954	4.79126e-06
480.033	0.529144	6.65283e-06
480.873	0.529663	-7.59888e-06
481.773	0.529327	-3.14331e-06
482.673	0.528015	1.14746e-05
483.533	-0.698151	-0.0103668
484.413	0.529724	-6.40869e-06
485.313	0.527802	1.05896e-05
486.173	-0.698364	-0.00515106
487.053	0.527893	6.073e-06
487.953	0.528137	8.17871e-06
488.833	0.000695801	0.00844421
489.693	0.52948	-5.12695e-06
490.593	0.528137	5.46265e-06
491.473	-0.000402832	0.00102173
492.333	0.529541	-5.34058e-06
493.233	0.52948	-2.83813e-06
494.133	0.529022	0.000205292
494.973	0.529633	-5.92041e-06
495.873	0.527863	6.16455e-06
496.773	0.528656	4.11072e-05
497.613	0.528748	3.35693e-07
498.513	0.527985	7.08008e-06
499.413	0.528351	2.46887e-05
500.253	0.528412	-6.10352e-08
501.153	0.529663	-7.32422e-06
502.053	0.528809	1.58386e-05
502.893	0.528839	-2.59399e-06
503.793	0.528076	5.92041e-06
504.693	0.529388	5.31006e-06
505.533	0.527832	4.42505e-06
506.433	0.527954	6.40869e-06
507.333	0.528778	6.40869e-06
508.173	0.528015	4.45557e-06
509.073	0.529724	-6.04248e-06
509.973	0.528625	7.90405e-06
510.833	-0.699646	-0.010672
511.713	0.528046	6.16455e-06
512.613	0.528229	7.62939e-06
513.473	-0.698578	-0.00530273
514.353	0.529755	-5.15747e-06
515.253	0.529694	-2.31934e-06
516.133	0.000750732	0.0086853
516.993	0.529022	-2.89917e-06
517.893	0.528473	2.62451e-06
518.773	-0.000527954	0.00121124
519.633	0.528168	2.41089e-06
520.533	0.52948	-3.41797e-06
521.433	0.528473	0.000223328
522.273	0.52832	2.68555e-06
523.173	0.529785	-6.01196e-06
524.073	0.529724	4.22974e-05
524.913	0.528687	-3.05176e-07
525.813	0.527924	7.20215e-06
526.713	0.528778	2.45361e-05
527.553	0.529358	-4.69971e-06
528.453	0.528412	3.08228e-06
529.353	0.527985	1.9989e-05
530.193	0.529205	-4.97437e-06
531.093	0.528046	7.72095e-06
531.993	0.527954	1.78223e-05
532.833	0.528687	-1.37329e-06
533.733	0.528717	2.22778e-06
534.633	0.529602	9.76562e-07
535.473	0.529175	-2.80762e-06
536.373	0.528503	1.58691e-06
537.273	0.529266	2.96021e-06
538.133	-0.699066	-0.0109528
539.013	0.529907	-6.01196e-06
539.913	0.529694	-2.01416e-06
540.773	-0.698212	-0.00545197
541.653	0.529694	-6.31714e-06
542.553	0.529572	-1.92261e-06
543.433	0.000857544	0.00886841
544.293	0.529694	-6.5918e-06
545.193	0.529572	-3.41797e-06
546.073	-0.000299072	0.00139923
546.933	0.529205	-4.21143e-06
547.833	0.528503	3.60107e-06
548.733	0.528625	0.00023526
549.573	0.52774	6.86646e-06
550.473	0.529785	-4.88281e-06
551.373	0.527924	5.52673e-05
552.213	0.528473	7.01904e-07
553.113	0.529694	-4.76074e-06
554.013	0.528381	2.93579e-05
554.853	0.529572	-6.22559e-06
555.753	0.529633	-5.34058e-06
556.653	0.529694	8.91113e-06
557.493	0.528931	-7.01904e-07
558.393	0.52948	-2.47192e-06
559.293	0.528168	1.5625e-05
560.133	0.528107	6.40869e-06
561.033	0.527954	6.89697e-06
561.933	0.529083	6.53076e-06
562.773	0.528046	4.57764e-06
563.673	0.529297	-4.82178e-06
564.573	0.529755	-1.64795e-06
565.433	-0.699738	-0.0112213
566.313	0.529602	-5.40161e-06
567.213	0.527863	1.09863e-05
568.073	-0.700073	-0.00558685
568.953	0.528839	-1.64795e-06
569.853	0.529327	-1.31226e-06
570.733	-0.000878906	0.00904846
571.593	0.529694	-6.16455e-06
572.493	0.528839	1.70898e-06
573.373	-0.000610352	0.00158691
574.233	0.527924	5.88989e-06
575.133	0.527893	8.05664e-06
576.033	0.528229	0.00025177
576.873	0.529724	-8.42285e-06
577.773	0.529175	-3.35693e-07
578.673	0.527985	5.57556e-05
579.513	0.529572	-6.28662e-06
580.413	0.529266	-5.46265e-06
581.313	0.529755	1.97144e-05
582.153	0.529663	-6.86646e-06
583.053	0.529694	-6.40869e-06
583.953	0.528931	1.18408e-05
584.793	0.528748	8.23975e-07
585.693	0.529053	-1.67847e-06
586.593	0.527924	1.62354e-05
587.433	0.528625	-2.13623e-07
588.333	0.52832	3.14331e-06
589.233	0.527985	1.4801e-05
590.073	0.527893	4.5166e-06
590.973	0.528015	5.46265e-06
591.873	0.529694	1.2207e-07
592.733	-0.699585	-0.0114807
593.613	0.529602	-5.27954e-06
594.513	0.528107	1.03149e-05
595.373	-0.698212	-0.00574188
596.253	0.529694	-5.95093e-06
597.153	0.528503	5.79834e-06
598.033	0.000964355	0.009198
598.893	0.528107	9.15527e-07
599.793	0.529358	-8.54492e-07
600.673	0.00115051	0.00176056
601.533	0.528351	4.76074e-06
602.433	0.529327	-2.16675e-06
603.333	0.528137	0.000269623
604.173	0.527924	6.073e-06
605.073	0.529846	-4.42505e-06
605.973	0.527985	5.9082e-05
606.813	0.52951	-5.67627e-06
607.713	0.528381	7.17163e-06
608.613	0.527924	3.35388e-05
609.453	0.528656	1.2207e-07
610.353	0.528473	5.0354e-06
611.253	0.529541	1.40381e-05
612.093	0.528931	-4.88281e-07
612.993	0.528198	6.34766e-06
613.893	0.529846	6.01196e-06
614.733	0.528381	2.53296e-06
615.633	0.52832	4.05884e-06
616.533	0.528198	1.19019e-05
617.373	0.529694	-6.62231e-06
618.273	0.527954	6.80542e-06
619.173	0.528687	6.10352e-06
620.033	-0.699615	-0.011734
620.913	0.527893	6.68335e-06
621.813	0.529327	4.57764e-07
622.673	-0.699799	-0.00587585
623.553	0.5289	-9.15527e-07
624.453	0.527954	1.0437e-05
625.333	-0.000646973	0.00933838
626.193	0.527954	6.62231e-06
627.093	0.528381	5.7373e-06
627.973	-2.74658e-05	0.00195007
628.833	0.528046	6.10352e-06
629.733	0.529694	-4.08936e-06
630.633	0.529755	0.000275055
631.473	0.528687	2.71606e-06
632.373	0.528015	7.65991e-06
633.273	0.528076	5.95398e-05
634.113	0.528107	5.64575e-06
635.013	0.528839	8.54492e-07
635.913	0.528534	3.06702e-05
636.753	0.529144	-3.23486e-06
637.653	0.527924	7.1106e-06
638.553	0.529663	1.14441e-05
639.393	0.528076	4.82178e-06
640.293	0.528198	4.94385e-06
641.193	0.529266	9.79614e-06
642.033	0.528778	5.79834e-07
642.933	0.528778	2.7771e-06
643.833	0.528534	1.19629e-05
644.673	0.52951	-7.01904e-06
645.573	0.529144	-4.27246e-07
646.473	0.528076	1.30005e-05
647.333	-0.698639	-0.0119934
648.213	0.529297	-2.28882e-06
649.113	0.527954	1.10779e-05
649.973	-0.69809	-0.00602814
650.853	0.529022	-5.18799e-07
651.753	0.527954	1.05591e-05
652.633	-0.000488281	0.00946045
653.493	0.529572	-4.94385e-06
654.393	0.528503	4.21143e-06
655.273	-0.000588989	0.00213135
656.133	0.528351	3.08228e-06
657.033	0.529602	-2.44141e-06
657.933	0.528076	0.000305084
658.773	0.528473	2.96021e-06
659.673	0.529816	-4.21143e-06
660.573	0.529114	5.62134e-05
661.413	0.527985	6.19507e-06
662.313	0.528748	-6.71387e-07
663.213	0.528564	3.00903e-05
664.053	0.528015	4.60815e-06
664.953	0.529633	-6.01196e-06
665.853	0.528473	2.10876e-05
666.693	0.528564	1.7395e-06
667.593	0.529419	-1.15967e-06
668.493	0.529419	8.08716e-06
669.333	0.52887	-1.25122e-06
670.233	0.527802	7.1106e-06
671.133	0.529724	3.72314e-06
671.973	0.527985	6.28662e-06
672.873	0.527924	6.80542e-06
673.773	0.528717	8.3313e-06
674.633	-0.698761	-0.012207
675.513	0.529053	-4.27246e-07
676.413	0.528656	7.50732e-06
677.273	-0.698761	-0.00616577
678.153	0.529297	-3.20435e-06
679.053	0.528137	9.09424e-06
679.933	-0.000723267	0.00957031
680.793	0.529541	-4.69971e-06
681.693	0.528137	9.58252e-06
682.573	-0.000140381	0.0023056
683.433	0.528046	5.98145e-06
684.333	0.529541	-1.70898e-06
685.233	0.528748	0.0003172
686.073	0.528656	1.64795e-06
686.973	0.527985	8.81958e-06
687.873	0.527802	6.77185e-05
688.713	0.528259	3.78418e-06
689.613	0.529755	-3.93677e-06
690.513	0.529785	2.37122e-05
691.353	0.529602	-5.52368e-06
692.253	0.529175	-2.65503e-06
693.153	0.529358	1.8219e-05
693.993	0.527893	4.39453e-06
694.893	0.529358	-1.2207e-06
695.793	0.52948	8.91113e-06
696.633	0.52887	-1.37329e-06
697.533	0.529663	-7.08008e-06
698.433	0.529205	7.62939e-06
699.273	0.529236	-4.5166e-06
700.173	0.528198	6.83594e-06
701.073	0.529083	6.31714e-06
701.933	-0.698486	-0.0124237
702.813	0.52951	-4.02832e-06
703.713	0.52951	1.00708e-06
704.573	-0.69989	-0.00628906
705.453	0.528564	1.40381e-06
706.353	0.5289	4.94385e-06
707.233	-0.000875854	0.00967102
708.093	0.529663	-5.88989e-06
708.993	0.528625	4.79126e-06
709.873	0.00114136	0.00246216
710.733	0.529663	-5.79834e-06
711.633	0.527985	9.0332e-06
712.533	0.52951	0.000329437
713.373	0.529633	-5.37109e-06
714.273	0.528778	1.89209e-06
715.173	0.528992	6.03027e-05
716.013	0.529694	-5.92041e-06
716.913	0.528778	5.52368e-06
717.813	0.528107	3.63159e-05
718.653	0.529633	-5.37109e-06
719.553	0.529266	-1.98364e-06
720.453	0.529419	1.54419e-05
721.293	0.527924	6.71387e-06
722.193	0.528259	4.85229e-06
723.093	0.529541	9.49097e-06
723.933	0.529449	-5.82886e-06
724.833	0.528564	4.57764e-06
725.733	0.528137	1.54114e-05
726.573	0.529724	-6.10352e-06
727.473	0.5289	0
728.373	0.528046	1.39771e-05
729.233	-0.697784	-0.0126251
730.113	0.529572	-4.69971e-06
731.013	0.528107	7.84302e-06
731.873	-0.699341	-0.00641571
732.753	0.528046	6.89697e-06
733.653	0.527954	1.16882e-05
734.533	0.000265503	0.00975952
735.393	0.528687	-2.53296e-06
736.293	0.527893	1.12305e-05
737.173	0.000180054	0.00262421
738.033	0.528381	3.41797e-06
738.933	0.527954	9.91821e-06
739.833	0.528107	0.000362305
740.673	0.528809	6.40869e-07
741.573	0.529205	-5.49316e-07
742.473	0.528351	7.08313e-05
743.313	0.529327	-3.69263e-06
744.213	0.52829	8.36182e-06
745.113	0.527954	3.91235e-05
745.953	0.527893	5.70679e-06
746.853	0.529602	-3.90625e-06
747.753	0.528748	2.22473e-05
748.593	0.528015	1.58691e-06
749.493	0.529724	-4.15039e-06
750.393	0.529449	1.14746e-05
751.233	0.529694	-6.13403e-06
752.133	0.529602	-3.9978e-06
753.033	0.529602	7.69043e-06
753.873	0.527985	5.52368e-06
754.773	0.528351	6.28662e-06
755.673	0.529388	4.82178e-06
756.533	-0.69931	-0.0128296
757.413	0.529266	4.88281e-07
758.313	0.528381	1.01624e-05
759.173	-0.699921	-0.0065332
760.053	0.527924	6.31714e-06
760.953	0.529419	6.10352e-07
761.833	-0.000582886	0.00984802
762.693	0.52948	-4.3335e-06
763.593	0.529602	1.15967e-06
764.473	0.000579834	0.00277618
765.333	0.529358	-3.54004e-06
766.233	0.527985	9.85718e-06
767.133	0.528809	0.000378632
767.973	0.529602	-6.10352e-06
768.873	0.527985	9.15527e-06
769.773	0.528259	7.40051e-05
770.613	0.527985	5.79834e-06
771.513	0.529114	-1.12915e-06
772.413	0.528961	3.40271e-05
773.253	0.529541	-4.48608e-06
774.153	0.528473	5.7373e-06
775.053	0.529358	1.76086e-05
775.893	0.527924	4.5166e-06
776.793	0.528198	5.88989e-06
777.693	0.528778	1.63879e-05
778.533	0.529633	-6.7749e-06
779.433	0.528198	5.34058e-06
780.333	0.528168	1.26648e-05
781.173	0.529755	-5.88989e-06
782.073	0.528839	-2.10571e-06
782.973	0.528259	1.23291e-05
783.833	-0.698669	-0.0129974
784.713	0.528381	3.23486e-06
785.613	0.529602	1.86157e-06
786.473	-0.69809	-0.00665161
787.353	0.529724	-5.31006e-06
788.253	0.529663	6.40869e-07
789.133	9.15527e-05	0.00994873
789.993	0.528931	6.10352e-08
790.894	0.528656	3.84521e-06
791.774	-0.000521851	0.00291412
792.634	0.529602	-4.30298e-06
793.534	0.529266	7.32422e-07
794.434	0.529755	0.000391083
795.274	0.527924	5.7373e-06
796.174	0.529327	3.35693e-07
797.074	0.528198	7.51343e-05
797.914	0.529358	-3.44849e-06
798.814	0.529144	-6.40869e-07
799.714	0.528961	3.6377e-05
800.554	0.529541	-6.073e-06
801.454	0.527863	9.52148e-06
802.354	0.528687	2.44141e-05
803.194	0.528198	1.58691e-06
804.094	0.528015	8.14819e-06
804.994	0.529175	1.39465e-05
805.834	0.528595	6.40869e-07
806.734	0.529694	-4.18091e-06
807.634	0.529144	1.06201e-05
808.474	0.527924	4.5166e-06
809.374	0.528015	7.04956e-06
810.274	0.529694	4.63867e-06
811.134	-0.699524	-0.0131531
812.014	0.528351	3.78418e-06
812.914	0.529572	7.93457e-07
813.774	-0.699738	-0.00674591
814.654	0.529816	-5.95093e-06
815.554	0.528229	1.02844e-05
816.434	-0.000854492	0.0100098
817.294	0.529083	-1.06812e-06
818.194	0.529572	-5.79834e-07
819.074	1.52588e-05	0.00304077
819.934	0.528748	9.76562e-07
820.834	0.528198	7.26318e-06
821.734	0.528168	0.000424957
822.574	0.529694	-5.09644e-06
823.474	0.52951	-1.67847e-06
824.374	0.529785	6.88171e-05
825.214	0.528534	7.01904e-07
826.114	0.528534	4.73022e-06
827.014	0.528931	3.58276e-05
827.854	0.529236	-3.96729e-06
828.754	0.528351	9.94873e-06
829.654	0.528412	2.48108e-05
830.494	0.528107	4.45557e-06
831.394	0.527863	7.44629e-06
832.294	0.528687	1.67847e-05
833.134	0.527893	7.35474e-06
834.034	0.527954	8.45337e-06
834.934	0.52887	9.91821e-06
835.774	0.528351	3.63159e-06
836.674	0.529755	-3.75366e-06
837.574	0.529633	4.45557e-06
838.434	-0.698792	-0.013324
839.314	0.528015	7.69043e-06
840.214	0.527985	1.23596e-05
841.074	-0.69989	-0.00684998
841.954	0.527893	9.30786e-06
842.854	0.529358	2.31934e-06
843.734	-0.000183105	0.010083
844.594	0.528778	3.02124e-06
845.494	0.528229	1.13525e-05
846.374	0.000473022	0.00315125
847.234	0.528717	4.08936e-06
848.134	0.528595	6.37817e-06
849.034	0.528412	0.000445099
849.874	0.529205	-3.17383e-06
850.774	0.527832	1.09558e-05
851.674	0.528015	8.24585e-05
852.514	0.529755	-5.0354e-06
853.414	0.527924	9.12476e-06
854.314	0.529541	3.36914e-05
855.154	0.527863	6.19507e-06
856.054	0.529846	-4.3335e-06
856.954	0.529419	2.10266e-05
857.794	0.528442	4.36401e-06
858.694	0.528473	6.073e-06
859.594	0.529816	1.1261e-05
860.434	0.52951	-5.95093e-06
861.334	0.528229	8.72803e-06
862.234	0.528198	1.86157e-05
863.074	0.528168	3.96729e-06
863.974	0.529327	-2.86865e-06
864.874	0.527954	1.43433e-05
865.734	-0.699554	-0.0134857
866.614	0.529144	-2.50244e-06
867.514	0.529266	5.43213e-06
868.374	-0.69989	-0.0069632
869.254	0.527954	7.47681e-06
870.154	0.527832	1.32141e-05
871.034	-0.000213623	0.0101349
871.894	0.528534	3.20435e-06
872.794	0.528442	7.17163e-06
873.674	0.00039978	0.0032785
874.534	0.52948	-3.8147e-06
875.434	0.528015	1.01929e-05
876.334	0.529205	0.000466003
877.174	0.529388	-4.60815e-06
878.074	0.529358	6.10352e-07
878.974	0.528259	8.23059e-05
879.814	0.529175	-5.00488e-06
880.714	0.529022	2.50244e-06
881.614	0.528809	3.96423e-05
882.454	0.529633	-7.26318e-06
883.354	0.528381	6.50024e-06
884.254	0.528564	2.87476e-05
885.094	0.529053	-2.2583e-06
885.994	0.528656	3.72314e-06
886.894	0.529266	1.85547e-05
887.734	0.52948	-4.08936e-06
888.634	0.528503	4.73022e-06
889.534	0.52832	1.71814e-05
890.374	0.529297	-4.11987e-06
891.274	0.527954	6.13403e-06
892.174	0.529083	8.69751e-06
893.034	-0.699432	-0.0136322
893.914	0.529266	-2.47192e-06
894.814	0.52951	4.21143e-06
895.674	-0.69989	-0.00705872
896.554	0.528076	1.58691e-06
897.454	0.529602	7.62939e-07
898.334	0.000643921	0.0101715
899.194	0.529236	-2.86865e-06
900.094	0.529114	5.27954e-06
900.974	0.000921631	0.00337433
901.834	0.527893	5.52368e-06
902.734	0.529572	2.44141e-07
903.634	0.528076	0.000499268
904.474	0.529816	-6.37817e-06
905.374	0.528992	6.40869e-07
906.274	0.527924	8.89587e-05
907.114	0.527924	7.59888e-06
908.014	0.529785	-7.62939e-07
908.914	0.528625	4.5166e-05
909.754	0.528839	8.54492e-07
910.654	0.529602	-1.89209e-06
911.554	0.529327	2.33765e-05
912.394	0.528534	1.25122e-06
913.294	0.528137	7.04956e-06
914.194	0.528015	2.41089e-05
915.034	0.527954	6.92749e-06
915.934	0.529846	-5.18799e-06
916.834	0.529022	1.26038e-05
917.674	0.528961	-1.09863e-06
918.574	0.528259	4.63867e-06
919.474	0.528198	1.54724e-05
920.334	-0.698669	-0.0137909
921.214	0.529541	-4.27246e-06
922.114	0.527924	1.33057e-05
922.974	-0.69989	-0.00715424
923.854	0.527863	5.88989e-06
924.754	0.529663	1.34277e-06
925.634	-0.000762939	0.0102417
926.494	0.528137	5.37109e-06
927.394	0.52829	8.91113e-06
928.274	-0.00045166	0.00348724
929.134	0.528351	2.92969e-06
930.034	0.527893	1.09253e-05
930.934	0.52829	0.000525818
931.774	0.529175	-1.70898e-06
932.674	0.528778	4.94385e-06
933.574	0.52951	7.91626e-05
934.414	0.529022	3.05176e-08
935.314	0.529144	9.15527e-07
936.214	0.52948	3.67737e-05
937.054	0.528961	0
937.954	0.529449	-3.66211e-06
938.854	0.528381	2.8656e-05
939.694	0.528656	1.31226e-06
940.594	0.528198	7.8125e-06
941.494	0.528809	1.94092e-05
942.334	0.529053	-3.84521e-06
943.234	0.529358	-2.80762e-06
944.134	0.529022	1.66016e-05
944.974	0.528809	-1.12915e-06
945.874	0.529236	-2.10571e-06
946.774	0.52951	5.43213e-06
947.634	-0.699615	-0.0139221
948.514	0.528839	-2.59399e-06
949.414	0.529297	6.40869e-06
950.274	-0.699554	-0.00725464
951.154	0.529205	-1.7395e-06
952.054	0.529327	3.63159e-06
952.934	0.00043335	0.0102753
953.794	0.529236	-2.83813e-06
954.694	0.528839	4.3335e-06
955.574	-0.000302124	0.00357422
956.434	0.529541	-4.73022e-06
957.334	0.52948	1.25122e-06
958.234	0.529419	0.000548706
959.074	0.529633	-4.88281e-06
959.974	0.528503	6.01196e-06
960.874	0.529663	8.25806e-05
961.714	0.529419	-5.0354e-06
962.614	0.528046	1.0376e-05
963.514	0.528015	4.95911e-05
964.354	0.529053	9.15527e-07
965.254	0.529419	1.34277e-06
966.154	0.52951	2.25525e-05
966.994	0.528564	1.89209e-06
967.894	0.52832	6.5918e-06
968.794	0.528748	1.98364e-05
969.634	0.529358	0
970.534	0.528168	6.86646e-06
971.434	0.529633	9.27734e-06
972.274	0.528076	7.23267e-06
973.174	0.529175	-1.2207e-07
974.074	0.528931	1.13831e-05
974.934	-0.698914	-0.0140656
975.814	0.529572	-1.98364e-06
976.714	0.528259	1.18408e-05
977.574	-0.69928	-0.0073468
978.454	0.528564	2.01416e-06
979.354	0.528839	8.94165e-06
980.234	-5.79834e-05	0.0103149
981.094	0.529572	-3.60107e-06
981.994	0.529633	1.34277e-06
982.874	-0.000320435	0.00366821
983.734	0.529175	-3.66211e-07
984.634	0.528717	8.57544e-06
985.534	0.52948	0.000575867
986.374	0.529236	-2.50244e-06
987.274	0.528076	1.08643e-05
988.174	0.528564	9.0332e-05
989.014	0.528503	2.44141e-06
989.914	0.529449	-2.13623e-06
990.814	0.528259	4.82788e-05
991.654	0.529541	-3.57056e-06
992.554	0.528809	2.89917e-06
993.454	0.529327	2.49329e-05
994.294	0.529541	-4.54712e-06
995.194	0.527954	9.70459e-06
996.094	0.529694	1.51367e-05
996.934	0.528168	4.60815e-06
997.834	0.529022	1.06812e-06
998.734	0.529297	1.25122e-05
999.574	0.527954	6.65283e-06
1000.47	0.528107	6.28662e-06
1001.37	0.529572	7.47681e-06
1002.23	-0.697845	-0.0141907
1003.11	0.528076	5.95093e-06
1004.01	0.528015	1.73035e-05
1004.87	-0.699432	-0.00743683
1005.75	0.528229	6.04248e-06
1006.65	0.528198	1.02539e-05
1007.53	-0.000143433	0.0103699
1008.39	0.529663	-6.16455e-06
1009.29	0.528687	9.12476e-06
1010.17	-0.000506592	0.00374756
1011.03	0.527954	5.52368e-06
1011.93	0.528076	1.17493e-05
1012.83	0.528015	0.000618591
1013.67	0.52832	4.48608e-06
1014.57	0.529449	-7.32422e-07
1015.47	0.52829	9.81445e-05
1016.31	0.528259	3.8147e-06
1017.21	0.527893	1.02234e-05
1018.11	0.528534	5.05981e-05
1018.95	0.527985	7.08008e-06
1019.85	0.529419	-1.25122e-06
1020.75	0.5289	2.90222e-05
1021.59	0.528107	5.37109e-06
1022.49	0.529449	-3.78418e-06
1023.39	0.528259	2.49634e-05
1024.23	0.528961	-3.84521e-06
1025.13	0.528473	4.45557e-06
1026.03	0.527893	2.21252e-05
1026.87	0.528687	2.89917e-06
1027.77	0.529236	9.76562e-07
1028.67	0.527985	1.89209e-05
1029.53	-0.699097	-0.0143005
1030.41	0.528168	6.74438e-06
1031.31	0.528076	1.58691e-05
1032.17	-0.699188	-0.00752563
1033.05	0.528809	-4.57764e-07
1033.95	0.528564	1.06201e-05
1034.83	0.000592041	0.0103973
1035.69	0.528442	2.62451e-06
1036.59	0.528625	1.01318e-05
1037.47	8.8501e-05	0.00382782
1038.33	0.528381	2.7771e-06
1039.23	0.52829	1.0376e-05
1040.13	0.528351	0.000647583
1040.97	0.529144	-1.49536e-06
1041.87	0.528503	8.02612e-06
1042.77	0.529419	9.07288e-05
1043.61	0.528931	1.46484e-06
1044.51	0.528229	6.83594e-06
1045.41	0.528137	5.31006e-05
1046.25	0.528839	7.32422e-07
1047.15	0.528656	6.68335e-06
1048.05	0.529236	2.88696e-05
1048.89	0.528442	2.86865e-06
1049.79	0.529175	-2.13623e-07
1050.69	0.528748	2.10571e-05
1051.53	0.528564	3.32642e-06
1052.43	0.528473	6.7749e-06
1053.33	0.528168	2.25525e-05
1054.17	0.528107	4.15039e-06
1055.07	0.52948	-9.76562e-07
1055.97	0.528198	2.005e-05
1056.83	-0.698547	-0.0144348
1057.71	0.529419	-1.28174e-06
1058.61	0.528137	1.67847e-05
1059.47	-0.699554	-0.00762024
1060.35	0.528229	6.04248e-06
1061.25	0.529144	8.17871e-06
1062.13	-0.000204468	0.010434
1062.99	0.528778	1.43433e-06
1063.89	0.529572	1.40381e-06
1064.77	-0.000134277	0.00389954
1065.63	0.529572	-5.37109e-06
1066.53	0.528046	1.19934e-05
1067.43	0.529785	0.000669861
1068.27	0.528503	4.05884e-06
1069.17	0.5289	5.06592e-06
1070.07	0.528534	0.000103271
1070.91	0.528717	2.86865e-06
1071.81	0.529327	2.86865e-06
1072.71	0.527863	5.6427e-05
1073.55	0.529633	-4.88281e-06
1074.45	0.528107	9.765625E-06
1075.35	0.528015	3.77197e-05
1076.19	0.529694	-5.61523e-06
1077.09	0.529327	-9.76562e-07
1077.99	0.529633	1.66931e-05
1078.83	0.528656	2.62451e-06
1079.73	0.528015	8.57544e-06
1080.63	0.528412	2.00806e-05
1081.47	0.528259	1.89209e-06
1082.37	0.527893	7.96509e-06
1083.27	0.529572	7.90405e-06
1084.13	-0.697876	-0.0145508
1085.01	0.529083	-3.05176e-08
1085.91	0.529602	7.90405e-06
1086.77	-0.698029	-0.00770874
1087.65	0.528015	1.06506e-05
1088.55	0.528717	1.02539e-05
1089.43	-0.000177002	0.0104553
1090.29	0.528534	1.77002e-06
1091.19	0.528198	1.39465e-05
1092.07	-0.000534058	0.00397064
1092.93	0.528229	5.21851e-06
1093.83	0.527924	1.297e-05
1094.73	0.529205	0.000707397
1095.57	0.529236	-1.64795e-06
1096.47	0.529358	2.44141e-06
1097.37	0.52829	0.000101654
1098.21	0.529419	-3.57056e-06
1099.11	0.529663	-6.40869e-07
1100.01	0.528473	5.2002e-05
1100.85	0.528229	4.21143e-06
1101.75	0.529449	-6.10352e-07
1102.65	0.528046	3.77808e-05
1103.49	0.529663	-5.82886e-06
1104.39	0.527924	1.01929e-05
1105.29	0.528046	2.80457e-05
1106.13	0.528595	3.66211e-06
1107.03	0.528503	5.85937e-06
1107.93	0.529083	1.62354e-05
1108.77	0.52887	1.80054e-06
1109.67	0.528442	6.46973e-06
1110.57	0.528198	1.80664e-05
1111.43	-0.697998	-0.0146759
1112.31	0.529633	-4.24194e-06
1113.21	0.528381	1.50146e-05
1114.07	-0.699188	-0.00778503
1114.95	0.52829	6.80542e-06
1115.85	0.528229	1.35498e-05
1116.73	0.000531006	0.0104889
1117.59	0.529694	-5.12695e-06
1118.49	0.528717	8.8501e-06
1119.37	0.000918579	0.00402649
1120.23	0.528748	-6.40869e-07
1121.13	0.527893	1.38245e-05
1122.03	0.529724	0.000750732
1122.87	0.528015	8.88062e-06
1123.77	0.529449	2.65503e-06
1124.67	0.528656	0.00010202
1125.51	0.529327	-9.15527e-08
1126.41	0.527985	1.10168e-05
1127.31	0.528351	5.61218e-05
1128.15	0.52948	-1.70898e-06
1129.05	0.528137	9.82666e-06
1129.95	0.527832	3.81775e-05
1130.79	0.529785	-3.96729e-06
1131.69	0.528412	7.26318e-06
1132.59	0.529663	1.54114e-05
1133.43	0.527985	7.65991e-06
1134.33	0.528442	5.5542e-06
1135.23	0.529724	1.08643e-05
1136.07	0.529022	-2.0752e-06
1136.97	0.528107	8.78906e-06
1137.87	0.529785	6.46973e-06
1138.73	-0.699524	-0.0147705
1139.61	0.528564	3.78418e-06
1140.51	0.527863	1.70288e-05
1141.37	-0.698303	-0.00788574
1142.25	0.527924	8.20923e-06
1143.15	0.5289	1.13525e-05
1144.03	0.000152588	0.0105225
1144.89	0.529144	1.19019e-06
1145.79	0.529358	3.66211e-06
1146.67	0.000222778	0.00408875
1147.53	0.528076	5.52368e-06
1148.43	0.529663	-6.40869e-07
1149.33	0.529327	0.000793457
1150.17	0.528259	5.95093e-06
1151.07	0.529846	-3.05176e-08
1151.97	0.528748	0.00010556
1152.81	0.528015	8.91113e-06
1153.71	0.528351	1.21765e-05
1154.61	0.528229	5.52673e-05
1155.45	0.528748	4.88281e-07
1156.35	0.529022	7.62939e-07
1157.25	0.529602	2.74963e-05
1158.09	0.52829	5.70679e-06
1158.99	0.529785	-1.2207e-06
1159.89	0.52829	2.6886e-05
1160.73	0.528748	9.15527e-07
1161.63	0.52951	2.53296e-06
1162.53	0.528015	2.28577e-05
1163.37	0.529633	-3.93677e-06
1164.27	0.527954	7.93457e-06
1165.17	0.529755	8.60596e-06
1166.03	-0.699371	-0.0148834
1166.91	0.528748	4.82178e-06
1167.81	0.529419	7.72095e-06
1168.67	-0.698151	-0.00798035
1169.55	0.528748	2.50244e-06
1170.45	0.528564	1.17493e-05
1171.33	-0.000125122	0.0105469
1172.19	0.528961	1.19019e-06
1173.09	0.529388	5.37109e-06
1173.97	0.000842285	0.00414764
1174.83	0.528198	8.57544e-06
1175.73	0.529022	9.12476e-06
1176.63	0.528992	0.000840149
1177.47	0.528595	3.60107e-06
1178.37	0.529755	1.83105e-07
1179.27	0.529022	0.000105682
1180.11	0.528412	5.52368e-06
1181.01	0.529419	3.14331e-06
1181.91	0.529663	4.72107e-05
1182.75	0.527954	9.33838e-06
1183.65	0.529266	-7.01904e-07
1184.55	0.528259	3.51868e-05
1185.39	0.52832	4.66919e-06
1186.29	0.528656	2.86865e-06
1187.19	0.529633	1.80969e-05
1188.03	0.528168	4.97437e-06
1188.93	0.529694	-3.50952e-06
1189.83	0.528168	2.38342e-05
1190.67	0.529633	-4.36401e-06
1191.57	0.528229	6.7749e-06
1192.47	0.528473	1.51062e-05
1193.33	-0.699371	-0.0150055
1194.21	0.528442	6.073e-06
1195.11	0.529358	6.7749e-06
1195.97	-0.698212	-0.00806274
1196.85	0.528168	8.57544e-06
1197.75	0.529663	4.73022e-06
1198.63	-0.000427246	0.0105652
1199.49	0.52948	-2.0752e-06
1200.39	0.527832	1.48621e-05
1201.27	0.000271606	0.00421326
1202.13	0.528687	1.86157e-06
1203.03	0.527863	1.43738e-05
1203.93	0.529724	0.000889893
1204.77	0.529785	-3.69263e-06
1205.67	0.527832	1.21155e-05
1206.57	0.528107	0.000114746
1207.41	0.529022	-8.23975e-07
1208.31	0.529602	-2.04468e-06
1209.21	0.529327	5.09338e-05
1210.05	0.529602	-4.82178e-06
1210.95	0.529266	1.37329e-06
1211.85	0.529663	3.00903e-05
1212.69	0.529236	-2.31934e-06
1213.59	0.528046	8.78906e-06
1214.49	0.529053	2.33154e-05
1215.33	0.528198	6.31714e-06
1216.23	0.528656	4.73022e-06
1217.13	0.528229	2.49939e-05
1217.97	0.528137	6.19507e-06
1218.87	0.528046	9.30786e-06
1219.77	0.529358	9.12476e-06
1220.63	-0.698944	-0.0151031
1221.51	0.529358	-1.52588e-06
1222.41	0.527954	1.87683e-05
1223.27	-0.699402	-0.00812683
1224.15	0.528351	5.88989e-06
1225.05	0.529572	2.53296e-06
1225.93	-0.000897217	0.0105743
1226.79	0.528473	5.06592e-06
1227.69	0.527954	1.42822e-05
1228.57	0.00062561	0.0042569
1229.43	0.529297	-7.93457e-07
1230.33	0.529633	1.52588e-07
1231.23	0.528931	0.000950317
1232.07	0.528137	6.34766e-06
1232.97	0.529266	3.32642e-06
1233.87	0.528473	0.000116943
1234.71	0.528595	3.63159e-06
1235.61	0.528717	7.20215e-06
1236.51	0.528259	5.78918e-05
1237.35	0.529572	-4.54712e-06
1238.25	0.529358	1.43433e-06
1239.15	0.528442	3.89404e-05
1239.99	0.528442	3.35693e-07
1240.89	0.52829	6.95801e-06
1241.79	0.529327	2.11792e-05
1242.63	0.529633	-5.06592e-06
1243.53	0.528473	6.01196e-06
1244.43	0.528015	2.54822e-05
1245.27	0.529266	-2.04468e-06
1246.17	0.529144	-3.05176e-08
1247.07	0.5289	1.57776e-05
1247.93	-0.697723	-0.0152191
1248.81	0.529846	-2.65503e-06
1249.71	0.528656	1.26038e-05
1250.57	-0.698975	-0.00820618
1251.45	0.527985	8.20923e-06
1252.35	0.529572	5.79834e-06
1253.23	-5.79834e-05	0.0105896
1254.09	0.529388	-2.0752e-06
1254.99	0.528473	1.00098e-05
1255.87	0.000396729	0.00432129
1256.73	0.528931	3.96729e-07
1257.63	0.527985	1.4801e-05
1258.53	0.528412	0.00101349
1259.37	0.528473	4.60815e-06
1260.27	0.528778	2.96021e-06
1261.17	0.529419	0.000112457
1262.01	0.528412	3.96729e-06
1262.91	0.528534	7.87354e-06
1263.81	0.52829	6.18896e-05
1264.65	0.529205	-2.65503e-06
1265.55	0.528931	4.30298e-06
1266.45	0.52948	3.07922e-05
1267.29	0.528351	3.84521e-06
1268.19	0.528015	9.15527e-06
1269.09	0.529541	2.0874e-05
1269.93	0.529724	-4.5166e-06
1270.83	0.528107	9.52148e-06
1271.73	0.52948	1.59912e-05
1272.57	0.528442	3.63159e-06
1273.47	0.529724	-4.82178e-06
1274.37	0.528656	1.70898e-05
1275.23	-0.697754	-0.0153259
1276.11	0.528717	1.43433e-06
1277.01	0.527954	1.9104e-05
1277.87	-0.699219	-0.00830078
1278.75	0.529663	-5.06592e-06
1279.65	0.529541	4.57764e-06
1280.53	-0.000671387	0.0105988
1281.39	0.529816	-4.02832e-06
1282.29	0.528473	1.06506e-05
1283.17	0.000601196	0.00436646
1284.03	0.529297	-1.37329e-06
1284.93	0.529633	1.98364e-06
1285.83	0.528381	0.00109222
1286.67	0.529663	-2.99072e-06
1287.57	0.527893	1.17798e-05
1288.47	0.528748	0.000119415
1289.31	0.528778	1.5564e-06
1290.21	0.529266	-3.05176e-08
1291.11	0.528809	5.90515e-05
1291.95	0.52829	4.60815e-06
1292.85	0.52951	1.77002e-06
1293.75	0.529175	3.60107e-05
1294.59	0.528625	3.11279e-06
1295.49	0.529724	-1.0376e-06
1296.39	0.528381	2.6886e-05
1297.23	0.52887	1.2207e-07
1298.13	0.528564	7.65991e-06
1299.03	0.529053	2.15149e-05
1299.87	0.529816	-2.89917e-06
1300.77	0.529358	-1.64795e-06
1301.67	0.527985	2.13013e-05
1302.53	-0.699249	-0.0154114
1303.41	0.529541	-4.02832e-06
1304.31	0.529633	8.36182e-06
1305.17	-0.699432	-0.00839233
1306.05	0.528015	4.11987e-06
1306.95	0.528229	1.52283e-05
1307.83	-0.000775146	0.010614
1308.69	0.528412	6.22559e-06
1309.59	0.529053	7.2937e-06
1310.47	0.000286865	0.00442505
1311.33	0.529297	-9.76562e-07
1312.23	0.527893	1.44043e-05
1313.13	0.528961	0.00116577
1313.97	0.529144	-3.05176e-08
1314.87	0.529724	2.01416e-06
1315.77	0.529694	0.000117676
1316.61	0.529327	-2.0752e-06
1317.51	0.52948	1.12915e-06
1318.41	0.528992	6.03638e-05
1319.25	0.529633	-4.36401e-06
1320.15	0.528351	9.39941e-06
1321.05	0.529541	3.21655e-05
1321.89	0.529236	-7.01904e-07
1322.79	0.528259	7.53784e-06
1323.69	0.528931	2.6001e-05
1324.53	0.528931	-1.34277e-06
1325.43	0.5289	3.26538e-06
1326.33	0.529541	1.52893e-05
1327.17	0.528259	5.52368e-06
1328.07	0.528107	1.00098e-05
1328.97	0.528046	2.15454e-05
1329.83	-0.699371	-0.0155212
1330.71	0.527985	6.86646e-06
1331.61	0.528168	1.828e-05
1332.47	-0.699066	-0.00846863
1333.35	0.528961	2.65503e-06
1334.25	0.52832	1.63574e-05
1335.13	-0.000637817	0.0106171
1335.99	0.528442	3.57056e-06
1336.89	0.528198	1.20239e-05
1337.77	0.000970459	0.00447479
1338.63	0.529541	-1.70898e-06
1339.53	0.528015	1.44348e-05
1340.43	0.528656	0.00126221
1341.27	0.52951	-2.50244e-06
1342.17	0.528442	1.07117e-05
1343.07	0.529205	0.000118744
1343.91	0.529755	-6.04248e-06
1344.81	0.529449	3.05176e-08
1345.71	0.529053	5.859375E-05
1346.55	0.529663	-6.10352e-06
1347.45	0.528046	1.18408e-05
1348.35	0.529236	3.59497e-05
1349.19	0.527893	6.7749e-06
1350.09	0.528259	1.08337e-05
1350.99	0.527924	3.48816e-05
1351.83	0.529663	-2.7771e-06
1352.73	0.529419	-1.52588e-06
1353.63	0.529419	1.80359e-05
1354.47	0.527954	7.75146e-06
1355.37	0.528046	9.09424e-06
1356.27	0.527832	2.37427e-05
1357.13	-0.698792	-0.0156128
1358.01	0.528534	5.67627e-06
1358.91	0.529327	1.15662e-05
1359.77	-0.699341	-0.00854797
1360.65	0.528412	5.43213e-06
1361.55	0.528229	1.66016e-05
1362.43	-4.88281e-05	0.0106445
1363.29	0.528656	3.66211e-06
1364.19	0.528137	1.45569e-05
1365.07	0.000320435	0.00452728
1365.93	0.529419	-2.71606e-06
1366.83	0.528992	8.63647e-06
1367.73	0.528442	0.00135986
1368.57	0.528442	4.82178e-06
1369.47	0.528168	1.20544e-05
1370.37	0.528381	0.000130585
1371.21	0.528046	6.89697e-06
1372.11	0.528381	6.01196e-06
1373.01	0.52829	6.66199e-05
1373.85	0.529602	-3.32642e-06
1374.75	0.529053	5.46265e-06
1375.65	0.529663	3.43323e-05
1376.49	0.528809	1.5564e-06
1377.39	0.528046	1.01624e-05
1378.29	0.52829	3.3905e-05
1379.13	0.52948	-5.27954e-06
1380.03	0.529572	-2.74658e-07
1380.93	0.52948	1.7334e-05
1381.77	0.52829	3.14331e-06
1382.67	0.529236	2.59399e-06
1383.57	0.528015	2.40173e-05
1384.43	-0.697723	-0.0157318
1385.31	0.527802	1.01929e-05
1386.21	0.528198	1.92566e-05
1387.07	-0.698334	-0.00863953
1387.95	0.528412	5.27954e-06
1388.85	0.529388	8.42285e-06
1389.73	0.000332642	0.010672
1390.59	0.529053	3.05176e-07
1391.49	0.527863	1.40686e-05
1392.37	0.000115967	0.00457153
1393.23	0.52887	9.46045e-07
1394.13	0.529175	7.69043e-06
1395.03	0.528564	0.00147247
1395.87	0.528259	4.69971e-06
1396.77	0.529694	2.28882e-06
1397.67	0.528809	0.000131531
1398.51	0.528748	-1.2207e-07
1399.41	0.528015	1.38245e-05
1400.31	0.529663	5.69763e-05
1401.15	0.528229	6.46973e-06
1402.05	0.529694	9.46045e-07
1402.95	0.528809	4.01917e-05
1403.79	0.528809	2.13623e-06
1404.69	0.528351	8.02612e-06
1405.59	0.529602	2.3407e-05
1406.43	0.529175	-4.27246e-07
1407.33	0.527924	9.94873e-06
1408.23	0.529572	1.4801e-05
1409.07	0.52948	-3.32642e-06
1409.97	0.529663	-1.52588e-06
1410.87	0.529663	1.07422e-05
1411.73	-0.697876	-0.0158295
1412.61	0.529449	-2.01416e-06
1413.51	0.529602	1.02844e-05
1414.37	-0.698883	-0.00872192
1415.25	0.529053	4.91333e-06
1416.15	0.529022	8.8501e-06
1417.03	-0.000656128	0.0106842
1417.89	0.529358	-9.76562e-07
1418.79	0.529724	4.73022e-06
1419.67	0.00057373	0.00462158
1420.53	0.529297	-3.05176e-08
1421.43	0.529755	2.89917e-06
1422.33	0.528473	0.00156952
1423.17	0.529266	-5.18799e-07
1424.07	0.529053	5.49316e-06
1424.97	0.527985	0.000139893
1425.81	0.528076	7.32422e-06
1426.71	0.529663	7.01904e-07
1427.61	0.529236	6.10962e-05
1428.45	0.52951	6.10352e-07
1429.35	0.527985	1.22681e-05
1430.25	0.529358	3.58582e-05
1431.09	0.529297	1.2207e-07
1431.99	0.52948	4.3335e-06
1432.89	0.528503	3.01819e-05
1433.73	0.528931	1.19019e-06
1434.63	0.529663	-5.18799e-07
1435.53	0.528168	2.61536e-05
1436.37	0.527954	8.48389e-06
1437.27	0.527985	9.97925e-06
1438.17	0.529877	1.08643e-05
1439.03	-0.698181	-0.0158936
1439.91	0.528015	1.06506e-05
1440.81	0.528259	1.86768e-05
1441.67	-0.699127	-0.00879211
1442.55	0.528412	4.97437e-06
1443.45	0.529419	6.83594e-06
1444.33	0.000637817	0.0106903
1445.19	0.527893	7.69043e-06
1446.09	0.528687	9.82666e-06
1446.97	0.000704956	0.00466522
1447.83	0.528717	3.54004e-06
1448.73	0.52951	3.96729e-06
1449.63	0.529205	0.00171356
1450.47	0.528625	4.02832e-06
1451.37	0.529419	3.54004e-06
1452.27	0.529083	0.000135071
1453.11	0.52948	-1.46484e-06
1454.01	0.528351	9.85718e-06
1454.91	0.528534	6.55823e-05
1455.75	0.529449	-3.26538e-06
1456.65	0.528534	8.91113e-06
1457.55	0.528198	4.6051e-05
1458.39	0.528107	8.05664e-06
1459.29	0.527954	1.28174e-05
1460.19	0.529602	2.39258e-05
1461.03	0.52948	-2.41089e-06
1461.93	0.529022	3.90625e-06
1462.83	0.529633	1.69678e-05
1463.67	0.529114	6.10352e-07
1464.57	0.528046	9.12476e-06
1465.47	0.529663	1.02844e-05
1466.33	-0.698212	-0.0159973
1467.21	0.528107	9.73511e-06
1468.11	0.528595	1.71509e-05
1468.97	-0.699402	-0.00886841
1469.85	0.529633	-2.47192e-06
1470.75	0.529297	9.82666e-06
1471.63	0.00022583	0.0106964
1472.49	0.529449	-2.10571e-06
1473.39	0.528778	1.0498e-05
1474.27	9.15527e-06	0.00472046
1475.13	0.528809	1.92261e-06
1476.03	0.529327	2.0752e-06
1476.93	0.529633	0.00190826
1477.77	0.529724	-3.02124e-06
1478.67	0.529175	2.99072e-06
1479.57	0.529144	0.000135223
1480.41	0.529602	-3.84521e-06
1481.31	0.527863	1.22681e-05
1482.21	0.529694	6.13708e-05
1483.05	0.528564	2.68555e-06
1483.19	0.529053	-1.58691e-06