File: Edgar/20240515/20240515/EC_measurements/Sample_20240502_C/CV/data/pulses_steps_m0p9V_1V.txt
Time (s)	WE(1).Potential (V)	WE(1).Current (A)	External(1).External 2 (V)
61.6963	-0.897827	-0.00134918	3.64136
62.1463	-0.899353	-0.000487152	3.6615
62.5963	-0.8984375	-0.000368805	3.64197
63.0463	-0.897827	-0.00029361	3.64166
63.4963	-0.8984375	-0.000246613	3.58276
63.9463	-0.898743	-0.000208374	3.64197
64.3963	-0.898132	-0.000185242	3.46558
64.8463	-0.899048	-0.000162537	3.62335
65.2963	-0.899353	-0.000143616	3.62213
65.7463	-0.8984375	-0.000131775	3.5437
66.1963	-0.898743	-0.000122955	3.52448
66.6463	-0.8984375	-0.000118591	3.42651
67.0963	-0.898743	-0.000110016	3.62244
67.5463	-0.8984375	-9.94263e-05	3.5437
67.9963	-0.8984375	-9.27429e-05	3.6026
68.4463	-0.897522	-9.04236e-05	3.60291
68.8963	-0.8984375	-8.43201e-05	3.46558
69.3463	-0.899353	-7.91016e-05	3.50494
69.7963	-0.898132	-7.93762e-05	3.58337
70.2463	-0.897827	-7.83081e-05	3.52356
70.6963	-0.8984375	-7.2937e-05	3.4256
71.1463	-0.899048	-7.00684e-05	3.46558
71.5963	-0.8984375	-7.21436e-05	3.52478
72.0463	-0.8984375	-6.79016e-05	3.68073
72.4963	-0.897827	-6.61011e-05	3.56354
72.9463	-0.898743	-6.44226e-05	3.40637
73.3963	-0.898132	-6.604e-05	3.50464
73.8463	-0.897827	-6.53381e-05	3.50464
74.2963	-0.898132	-6.10352e-05	3.52417
74.7463	-0.898743	-5.88379e-05	3.44574
75.1963	-0.898743	-5.88074e-05	3.46558
75.6463	-0.898132	-6.17676e-05	3.52478
76.0963	-0.898132	-5.896e-05	3.5437
76.5463	-0.8984375	-5.84717e-05	3.46558
76.9963	-0.899048	-5.67627e-05	3.54431
77.4463	-0.898743	-5.52063e-05	3.54309
77.8963	-0.897522	-5.86853e-05	3.68103
78.3463	-0.897522	-5.62439e-05	3.56354
78.7963	-0.897522	-5.50232e-05	3.5437
79.2463	-0.898132	-5.49927e-05	3.58398
79.6963	-0.8984375	-5.63354e-05	3.60291
80.1463	-0.899048	-5.33752e-05	3.52448
80.5963	-0.899353	-5.15442e-05	3.48572
81.0463	-0.898743	-5.17578e-05	3.56354
81.4963	-0.899048	-5.03845e-05	3.52386
81.9463	-0.8984375	-4.90723e-05	3.44574
82.3963	-0.8984375	-4.99878e-05	3.58307
82.8463	-0.897522	-5.0415e-05	3.42529
83.2963	-0.898743	-4.71802e-05	3.58307
83.7463	-0.898132	-4.91028e-05	3.52448
84.1963	-0.897522	-5.18494e-05	3.48541
84.6463	-0.898132	-5.0293e-05	3.48511
85.0963	-0.898743	-4.83093e-05	3.60229
85.5463	-0.898132	-4.91638e-05	3.44543
85.9963	-0.898743	-4.38538e-05	3.56354
86.4463	-0.897827	-4.61426e-05	3.52448
86.8963	-0.897827	-4.72412e-05	3.46558
87.3463	-0.898132	-4.70581e-05	3.50525
87.7963	-0.897827	-4.59595e-05	3.52417
88.2463	-0.899048	-4.08325e-05	3.5437
88.6963	-0.897827	-4.41284e-05	3.4848
89.1463	-0.898132	-4.41895e-05	3.52386
89.5963	-0.898132	-4.41284e-05	3.62244
90.0463	-0.8984375	-4.4342e-05	3.52417
90.4963	-0.897522	-4.29688e-05	3.46527
90.9463	-0.898132	-4.39148e-05	3.54401
91.3963	-0.898743	-4.245e-05	3.54401
91.8463	-0.8984375	-4.20227e-05	3.56323
92.2963	-0.8984375	-4.3335e-05	3.42651
92.7463	-0.898743	-4.11072e-05	3.5434
93.1963	-0.897827	-4.10156e-05	3.60291
93.6463	-0.898743	-4.08325e-05	3.46588
94.0963	-0.899048	-3.93066e-05	3.5434
94.5463	-0.899048	-3.75977e-05	3.52386
94.9963	-0.8984375	-3.86963e-05	3.46588
95.4463	-0.8984375	-3.52173e-05	3.52448
95.8963	-0.899048	-3.54309e-05	3.56384
96.3463	-0.899048	-3.50952e-05	3.46588
96.7963	-0.897827	-3.79028e-05	3.44574
97.2463	-0.899048	-3.48511e-05	3.52356
97.6963	-0.897827	-3.83606e-05	3.44574
98.1463	-0.897522	-3.77197e-05	3.38684
98.5963	-0.897827	-3.76587e-05	3.54309
99.0463	-0.898743	-3.72314e-05	3.62274
99.4963	-0.897827	-3.72314e-05	3.62305
99.9463	-0.898743	-3.69873e-05	3.46588
100.396	-0.898743	-3.62854e-05	3.54401
100.846	-0.899048	-3.36304e-05	3.44513
101.296	-0.898132	-3.35388e-05	3.48511
101.746	-0.898132	-3.38135e-05	3.54401
102.196	-0.898132	-3.25928e-05	3.44543
102.646	-0.898132	-3.46375e-05	3.48511
103.096	-0.898132	-3.73535e-05	3.58246
103.546	-0.899048	-3.28064e-05	3.50494
103.996	-0.899048	-3.10364e-05	3.5437
104.446	-0.899353	-3.38745e-05	3.52478
104.896	-0.899048	-3.12805e-05	3.48511
105.346	-0.898132	-3.41187e-05	3.52417
105.796	-0.899048	-3.16162e-05	3.52386
106.246	-0.898743	-3.07007e-05	3.56354
106.696	-0.899048	-3.31116e-05	3.52417
107.146	-0.899353	-3.08838e-05	3.54401
107.596	-0.898132	-3.19214e-05	3.58368
108.046	-0.898132	-3.53394e-05	3.5434
108.496	-0.897827	-3.53699e-05	3.46588
108.946	-0.897827	-3.36304e-05	3.58246
109.396	-0.8984375	-3.5553e-05	3.62183
109.846	-0.8984375	-3.14941e-05	3.48572
110.296	-0.897522	-3.63464e-05	3.44482
110.746	-0.898132	-3.34778e-05	3.44513
111.196	-0.897827	-3.43018e-05	3.48541
111.646	-0.898743	-3.28064e-05	3.64197
112.096	-0.8984375	-3.54614e-05	3.6026
112.546	-0.898743	-3.93982e-05	3.58246
112.996	-0.899353	-3.50647e-05	3.54431
113.446	-0.898132	-3.57971e-05	3.5437
113.896	-0.899048	-3.15247e-05	3.56293
114.346	-0.897827	-3.43933e-05	3.64197
114.796	-0.899353	-3.05176e-05	3.52478
115.246	-0.897827	-3.33557e-05	3.68011
115.696	-0.899658	-2.98157e-05	3.58307
116.146	-0.8984375	-3.07617e-05	3.56323
116.596	-0.8984375	-3.16772e-05	3.6618
117.046	-0.899048	-2.70691e-05	3.5437
117.496	-0.8984375	-3.06702e-05	3.48511
117.946	-0.8984375	-2.62146e-05	3.58246
118.396	-0.898132	-3.09448e-05	3.52417
118.846	-0.899048	-2.6123e-05	3.62244
119.296	-0.8984375	-2.94495e-05	3.44574
119.746	-0.898743	-2.56042e-05	3.62274
120.196	-0.897827	-2.94495e-05	3.58246
120.646	-0.899353	-2.63672e-05	3.50494
121.096	-0.898743	-2.60315e-05	3.46558
121.546	-0.898743	-2.56042e-05	3.64197
122.006	1.00037	0.000722046	3.52264
122.456	1.00037	0.000397949	3.5614
122.906	1.00098	0.000275848	3.64105
123.356	1.00128	0.000217194	3.60046
123.806	1.00006	0.000183289	3.62061
124.256	1.00037	0.000159149	3.64044
124.706	1.00189	0.00013504	3.65967
125.156	1.00098	0.000119537	3.71796
125.606	1.00006	0.000110657	3.69781
126.056	1.00098	9.73816e-05	3.56171
126.506	1.00006	8.8623e-05	3.73779
126.956	1.00128	7.85217e-05	3.62061
127.406	1.00159	7.4646e-05	3.65936
127.856	1.00128	6.640625E-05	3.58124
128.306	0.999756	6.50024e-05	3.7381
128.756	1.00128	5.80139e-05	3.63983
129.206	1.00037	5.77087e-05	3.71796
129.656	1.00006	5.23376e-05	3.81989
130.106	1.00037	5.16357e-05	3.60077
130.556	1.00067	4.8584e-05	3.78143
131.006	1.00098	4.29688e-05	3.73749
131.456	0.999756	4.52881e-05	3.78204
131.906	1.00159	4.0741e-05	3.89801
132.356	1.00128	3.82996e-05	3.65906
132.806	1.00128	3.50342e-05	3.73718
133.256	0.999756	3.74756e-05	3.83942
133.706	1.00067	3.45154e-05	3.71826
134.156	1.00128	3.2196e-05	3.73688
134.606	1.00098	3.07617e-05	3.73718
135.056	1.00098	2.76794e-05	3.62091
135.506	1.00098	2.83813e-05	3.89801
135.956	1.00098	2.61536e-05	3.87878
136.406	1.00159	2.59399e-05	3.87878
136.856	1.00128	2.59705e-05	3.80005
137.306	1.00128	2.29492e-05	3.75641
137.756	1.00128	2.22473e-05	3.69843
138.206	1.00159	2.33765e-05	3.75702
138.656	1.00006	2.4353e-05	3.78174
139.106	1.00037	2.52075e-05	3.80096
139.556	1.00037	2.43225e-05	3.75671
140.006	1.00006	2.18811e-05	3.65906
140.456	1.00037	2.2522e-05	3.78143
140.906	1.00067	1.80054e-05	3.71796
141.356	1.00189	1.74866e-05	3.69812
141.806	1.00067	2.00806e-05	3.73749
142.256	1.00067	1.96228e-05	3.78174
142.706	1.00037	2.00806e-05	3.73688
143.156	1.00098	1.66016e-05	3.89801
143.606	0.999756	1.9043e-05	3.69843
144.056	1.00006	1.53503e-05	3.81958
144.506	1.00067	1.51978e-05	3.71765
144.956	0.999756	1.35498e-05	3.7561
145.406	1.00006	8.63647e-06	3.71796
145.856	1.00067	1.19934e-05	3.8208
146.306	1.00037	1.44653e-05	3.78204
146.756	1.00128	1.11694e-05	3.8205
147.206	0.999756	1.39771e-05	3.60046
147.656	1.00037	1.20544e-05	3.80127
148.106	1.00098	1.14746e-05	3.80066
148.556	1.00159	1.27563e-05	3.6792
149.006	0.999451	1.51672e-05	3.67889
149.456	1.00128	1.22681e-05	3.84003
149.906	1.00098	1.18408e-05	3.73718
150.356	1.00159	1.14136e-05	3.69812
150.806	1.00159	1.17798e-05	3.75641
151.256	1.00006	1.63879e-05	3.75641
151.706	1.00128	1.10779e-05	3.75641
152.156	1.00128	1.06812e-05	3.73749
152.606	1.00098	1.05591e-05	3.7558
153.056	1.00159	1.01318e-05	3.79822
153.506	1.00037	1.50452e-05	3.82019
153.956	1.00037	8.17871e-06	3.69843
154.406	1.00067	5.12695e-06	3.81958
154.856	1.00067	8.5144e-06	3.64075
155.306	0.999756	1.31226e-05	3.87848
155.756	0.999756	1.39771e-05	3.80096
156.206	1.00098	1.25732e-05	3.73749
156.656	1.00098	1.40991e-05	3.73749
157.106	1.00006	1.29089e-05	3.8205
157.556	1.00128	1.14441e-05	3.78113
158.006	1.00037	1.39771e-05	3.71704
158.456	1.00098	8.54492e-06	3.64044
158.906	1.00189	9.67407e-06	3.78113
159.356	1.00128	1.13525e-05	3.80096
159.806	1.00098	1.03455e-05	3.75702
160.256	0.999756	1.32141e-05	3.65997
160.706	1.00006	1.14136e-05	3.80096
161.156	1.00006	9.97925e-06	3.73688
161.606	1.00067	9.39941e-06	3.87848
162.056	1.00098	9.61304e-06	3.80066
162.506	1.00098	7.84302e-06	3.75702
162.956	1.00098	7.72095e-06	3.69812
163.406	1.00128	8.27026e-06	3.73779
163.856	1.00098	7.72095e-06	3.73688
164.306	1.00098	8.08716e-06	3.83942
164.756	1.00128	7.84302e-06	3.75671
165.206	1.00067	9.0332e-06	3.81989
165.656	1.00128	6.71387e-06	3.75671
166.106	1.00128	6.46973e-06	3.6792
166.556	1.00037	8.11768e-06	3.73718
167.006	1.00006	1.10779e-05	3.7381
167.456	1.00159	7.17163e-06	3.63983
167.906	1.00006	8.8501e-06	3.80066
168.356	0.999756	1.12305e-05	3.85925
168.806	1.00067	1.1322e-05	3.80066
169.256	1.00098	8.11768e-06	3.67859
169.706	1.00098	5.64575e-06	3.85895
170.156	0.999756	8.45337e-06	3.6792
170.606	0.999756	1.16882e-05	3.85925
171.056	1.00128	5.5542e-06	3.63983
171.506	1.00098	8.72803e-06	3.82019
171.956	1.00037	1.22375e-05	3.80157
172.406	1.00067	6.95801e-06	3.64044
172.856	1.00006	1.01624e-05	3.75671
173.306	1.00159	6.01196e-06	3.75641
173.756	1.00037	8.54492e-06	3.8205
174.206	1.00067	6.65283e-06	3.65997
174.656	1.00067	7.35474e-06	3.63983
175.106	1.00006	1.03455e-05	3.93707
175.556	1.00159	6.43921e-06	3.73749
176.006	1.00006	1.04065e-05	3.80127
176.456	1.00006	1.0376e-05	3.80066
176.906	0.999451	1.0376e-05	3.83972
177.356	1.00037	1.01318e-05	3.69812
177.806	0.999756	9.8877e-06	3.71735
178.256	1.00037	1.02844e-05	3.71796
178.706	1.00098	9.18579e-06	3.82019
179.156	1.00067	1.00403e-05	3.80127
179.606	1.00067	8.81958e-06	3.80127
180.056	1.00067	7.72095e-06	3.67889
180.506	1.00098	1.01318e-05	3.75641
180.956	1.00128	6.68335e-06	3.69812
181.406	1.00067	6.65283e-06	3.78113
181.866	-0.898743	-0.000314911	3.91998
182.316	-0.899353	-0.000291046	3.75824
182.766	-0.897827	-0.000268616	3.84125
183.216	-0.8984375	-0.000240631	3.58307
183.666	-0.898132	-0.000222961	3.78357
184.116	-0.897827	-0.00020993	3.6618
184.566	-0.898132	-0.000197693	3.4256
185.016	-0.899353	-0.000181946	3.73932
185.466	-0.8984375	-0.000171326	3.70026
185.916	-0.899048	-0.000161804	3.6618
186.366	-0.898132	-0.000154419	3.73932
186.816	-0.898743	-0.000149353	3.62305
187.266	-0.898743	-0.000139496	3.58276
187.716	-0.897522	-0.000134918	3.58215
188.166	-0.899048	-0.000125183	3.48511
188.616	-0.897827	-0.000118958	3.68042
189.066	-0.898743	-0.000119415	3.58246
189.516	-0.898132	-0.000117554	3.58337
189.966	-0.898743	-0.000107452	3.54431
190.416	-0.898132	-0.000106537	3.62305
190.866	-0.897827	-0.000104736	3.6026
191.316	-0.898743	-0.000100342	3.6615
191.766	-0.899353	-9.38416e-05	3.62274
192.216	-0.899353	-9.11255e-05	3.58307
192.666	-0.899353	-8.65784e-05	3.6615
193.116	-0.898132	-8.63953e-05	3.4848
193.566	-0.897827	-8.52051e-05	3.60229
194.016	-0.898132	-8.20618e-05	3.52448
194.466	-0.899353	-7.78809e-05	3.6026
194.916	-0.898743	-7.26929e-05	3.62244
195.366	-0.897827	-7.15942e-05	3.58276
195.816	-0.898743	-7.22046e-05	3.52448
196.266	-0.897827	-6.95496e-05	3.52417
196.716	-0.8984375	-6.79016e-05	3.48602
197.166	-0.899048	-6.21643e-05	3.46527
197.616	-0.897522	-6.39954e-05	3.60321
198.066	-0.898132	-6.26526e-05	3.50494
198.516	-0.898132	-5.79224e-05	3.52478
198.966	-0.899048	-5.77393e-05	3.64227
199.416	-0.898132	-5.80444e-05	3.64227
199.866	-0.8984375	-5.21851e-05	3.62274
200.316	-0.897522	-5.65491e-05	3.62274
200.766	-0.897522	-5.75256e-05	3.52417
201.216	-0.897522	-5.55115e-05	3.52356
201.666	-0.897827	-5.25513e-05	3.62244
202.116	-0.898743	-5.20935e-05	3.60229
202.566	-0.897827	-5.50842e-05	3.62274
203.016	-0.899353	-5.26123e-05	3.64227
203.466	-0.897827	-4.86145e-05	3.62244
203.916	-0.898743	-4.5166e-05	3.56354
204.366	-0.897827	-4.74854e-05	3.5437
204.816	-0.898132	-4.68445e-05	3.4256
205.266	-0.898743	-4.22058e-05	3.66119
205.716	-0.8984375	-4.55017e-05	3.54401
206.166	-0.897522	-4.35791e-05	3.46588
206.616	-0.898132	-4.11987e-05	3.6026
207.066	-0.898132	-4.15955e-05	3.56354
207.516	-0.8984375	-4.10156e-05	3.56323
207.966	-0.897827	-4.04663e-05	3.58337
208.416	-0.897827	-3.87268e-05	3.68073
208.866	-0.897827	-3.78113e-05	3.6026
209.316	-0.897522	-3.87573e-05	3.60199
209.766	-0.899048	-3.56445e-05	3.54431
210.216	-0.8984375	-3.67737e-05	3.5437
210.666	-0.898132	-3.54309e-05	3.64166
211.116	-0.898743	-3.40881e-05	3.56323
211.566	-0.899048	-3.38135e-05	3.54401
212.016	-0.898132	-3.80859e-05	3.54401
212.466	-0.8984375	-3.53699e-05	3.56323
212.916	-0.898132	-3.68958e-05	3.6026
213.366	-0.898132	-3.60718e-05	3.58276
213.816	-0.898743	-3.35388e-05	3.56354
214.266	-0.897827	-3.58582e-05	3.58276
214.716	-0.898743	-3.34778e-05	3.56293
215.166	-0.898132	-3.44238e-05	3.64166
215.616	-0.898132	-3.38135e-05	3.46527
216.066	-0.899048	-2.96326e-05	3.62213
216.516	-0.898743	-3.05481e-05	3.5437
216.966	-0.897827	-3.36304e-05	3.60199
217.416	-0.899048	-3.00293e-05	3.60291
217.866	-0.8984375	-3.26538e-05	3.54401
218.316	-0.897522	-3.18298e-05	3.60229
218.766	-0.898743	-3.0426e-05	3.60321
219.216	-0.898132	-3.22876e-05	3.5437
219.666	-0.898132	-3.28979e-05	3.48511
220.116	-0.898743	-2.9541e-05	3.6026
220.566	-0.898743	-3.08533e-05	3.58337
221.016	-0.898132	-2.91443e-05	3.6026
221.466	-0.897827	-3.13721e-05	3.60291
221.916	-0.8984375	-2.84119e-05	3.52448
222.366	-0.897827	-3.19214e-05	3.71979
222.816	-0.899048	-2.93884e-05	3.6026
223.266	-0.898132	-3.04565e-05	3.64227
223.716	-0.898743	-3.04871e-05	3.56323
224.166	-0.898132	-3.302e-05	3.50525
224.616	-0.8984375	-3.23181e-05	3.46558
225.066	-0.8984375	-3.00293e-05	3.78326
225.516	-0.897827	-2.92358e-05	3.60291
225.966	-0.898743	-2.71301e-05	3.54431
226.416	-0.899048	-2.63367e-05	3.50494
226.866	-0.899048	-2.54517e-05	3.64258
227.316	-0.899048	-2.61536e-05	3.56323
227.766	-0.897522	-2.81982e-05	3.6026
228.216	-0.897827	-2.90527e-05	3.58276
228.666	-0.898743	-2.6123e-05	3.56354
229.116	-0.899048	-2.59399e-05	3.367
229.566	-0.897827	-2.62146e-05	3.58337
230.016	-0.899048	-2.13928e-05	3.64227
230.466	-0.897827	-2.44751e-05	3.48419
230.916	-0.898743	-1.75171e-05	3.52417
231.366	-0.8984375	-2.49939e-05	3.50433
231.816	-0.898743	-2.37427e-05	3.48572
232.266	-0.897217	-2.65503e-05	3.60229
232.716	-0.8984375	-2.70081e-05	3.46588
233.166	-0.899048	-2.42615e-05	3.48511
233.616	-0.898132	-2.41394e-05	3.58276
234.066	-0.897827	-2.63977e-05	3.58368
234.516	-0.897827	-2.64587e-05	3.58276
234.966	-0.898743	-2.48718e-05	3.82202
235.416	-0.898743	-2.39258e-05	3.62335
235.866	-0.899048	-2.24304e-05	3.46588
236.316	-0.897827	-2.57263e-05	3.52386
236.766	-0.897522	-2.57568e-05	3.56354
237.216	-0.899048	-2.49634e-05	3.56354
237.666	-0.899353	-2.09961e-05	3.62274
238.116	-0.898132	-2.23999e-05	3.56384
238.566	-0.898743	-2.24304e-05	3.62274
239.016	-0.897827	-2.37122e-05	3.71948
239.466	-0.898743	-2.3407e-05	3.64227
239.916	-0.899048	-2.03857e-05	3.56354
240.366	-0.898132	-1.98975e-05	3.48541
240.816	-0.899353	-1.84021e-05	3.68134
241.266	-0.897827	-2.29492e-05	3.68073
241.726	1.00037	0.00154938	3.48328
242.176	1.00128	0.000407959	3.56171
242.626	0.999756	0.000249634	3.67889
243.076	1.00067	0.00019281	3.58154
243.526	1.00037	0.000157715	3.62091
243.976	1.00098	0.000130066	3.69843
244.426	1.00037	0.000118713	3.65967
244.876	1.00098	0.000103943	3.73718
245.326	1.00067	9.83582e-05	3.69781
245.776	1.00067	8.92029e-05	3.84033
246.226	1.00098	8.2489e-05	3.83972
246.676	1.00006	7.61719e-05	3.7561
247.126	1.00037	6.81152e-05	3.71796
247.576	1.00098	6.49719e-05	3.73779
248.026	1.00128	6.05164e-05	3.75671
248.476	1.00037	5.96924e-05	3.64044
248.926	0.999756	5.69763e-05	3.71765
249.376	1.00098	5.43823e-05	3.75671
249.826	1.00067	5.20935e-05	3.75641
250.276	1.00098	4.74854e-05	3.73779
250.726	1.00006	4.57458e-05	3.69781
251.176	1.00098	4.38538e-05	3.71826
251.626	1.00098	3.96729e-05	3.73749
252.076	1.00006	4.11987e-05	3.78204
252.526	0.999756	4.20532e-05	3.78113
252.976	1.00098	3.71094e-05	3.75671
253.426	0.999756	4.19312e-05	3.65967
253.876	1.00098	4.02222e-05	3.78204
254.326	1.00098	3.36304e-05	3.6792
254.776	1.00037	3.57056e-05	3.65967
255.226	1.00067	3.00598e-05	3.69873
255.676	1.00037	3.09448e-05	3.78174
256.126	0.999756	3.09753e-05	3.78174
256.576	1.00128	2.75269e-05	3.80127
257.026	1.00067	2.74353e-05	3.73718
257.476	1.00128	2.62451e-05	3.85956
257.926	1.00037	2.60925e-05	3.58093
258.376	1.00067	2.66418e-05	3.78143
258.826	1.00128	2.38037e-05	3.7561
259.276	1.00067	2.3407e-05	3.82019
259.726	1.00037	2.40784e-05	3.65967
260.176	1.00037	2.45667e-05	3.80127
260.626	1.00098	2.10876e-05	3.8205
261.076	1.00006	2.22778e-05	3.62091
261.526	1.00067	2.23999e-05	3.83972
261.976	1.00159	2.18201e-05	3.83972
262.426	1.00128	1.89209e-05	3.83972
262.876	1.00067	1.97449e-05	3.78174
263.326	1.00037	2.12402e-05	3.6792
263.776	1.00006	2.12097e-05	3.73749
264.226	1.00128	1.77917e-05	3.75641
264.676	1.00006	1.8158e-05	3.67828
265.126	1.00006	2.0874e-05	3.84003
265.576	1.00128	1.67542e-05	3.80035
266.026	1.00128	1.53198e-05	3.78204
266.476	0.999756	1.78223e-05	3.85925
266.926	1.00067	1.97449e-05	3.87909
267.376	1.00098	1.58081e-05	3.75671
267.826	1.00006	1.57166e-05	3.87848
268.276	0.999756	1.90735e-05	3.73749
268.726	1.00037	1.63879e-05	3.80066
269.176	1.00128	1.297e-05	3.82019
269.626	1.00037	1.52283e-05	3.78174
270.076	1.00006	1.67542e-05	3.69904
270.526	1.00128	1.24207e-05	3.69873
270.976	1.00159	1.32141e-05	3.69843
271.426	1.00067	1.18713e-05	3.69873
271.876	0.999756	1.47095e-05	3.8208
272.326	1.00128	1.44653e-05	3.80035
272.776	1.00006	1.58386e-05	3.75671
273.226	0.999756	1.32141e-05	3.73779
273.676	1.00006	1.59912e-05	3.73779
274.126	1.00067	1.14441e-05	3.85925
274.576	1.00006	1.54419e-05	3.80066
275.026	1.00037	1.43433e-05	3.82111
275.476	1.00159	1.25122e-05	3.80127
275.926	1.00098	1.0376e-05	3.78204
276.376	0.999756	1.81274e-05	3.85925
276.826	1.00128	1.24817e-05	3.8205
277.276	1.00128	9.64355e-06	3.80096
277.726	1.00098	8.66699e-06	3.64044
278.176	1.00006	1.28479e-05	3.73749
278.626	1.00159	1.01318e-05	3.85895
279.076	1.00128	9.765625E-06	3.91815
279.526	1.00006	1.22375e-05	3.78143
279.976	1.00006	9.24683e-06	3.93738
280.426	1.00067	1.25732e-05	3.83972
280.876	1.00067	7.59888e-06	3.75641
281.326	1.00037	1.14746e-05	3.85986
281.776	1.00098	8.3313e-06	3.83972
282.226	1.00128	1.01013e-05	3.82019
282.676	0.999451	1.00098e-05	3.69873
283.126	1.00098	1.08337e-05	3.7561
283.576	1.00006	1.04065e-05	3.80127
284.026	1.00098	9.33838e-06	3.85895
284.476	1.00067	1.25427e-05	3.80096
284.926	1.00098	9.09424e-06	3.84064
285.376	1.00006	1.02234e-05	3.87878
285.826	1.00128	9.61304e-06	3.85895
286.276	1.00098	1.02234e-05	3.75641
286.726	1.00037	1.14441e-05	3.73779
287.176	1.00037	1.03455e-05	3.87909
287.626	1.00128	9.67407e-06	3.85925
288.076	1.00067	9.06372e-06	3.89801
288.526	1.00067	8.97217e-06	3.75671
288.976	1.00006	8.69751e-06	3.80096
289.426	1.00098	8.05664e-06	3.75671
289.876	1.00128	8.69751e-06	3.80096
290.326	1.00037	1.19629e-05	3.91724
290.776	1.00037	1.14441e-05	3.73749
291.226	1.00098	9.61304e-06	3.84003
291.676	1.00128	8.27026e-06	3.78174
292.126	1.00098	7.87354e-06	3.85895
292.576	0.999756	9.552e-06	3.69843
293.026	1.00098	8.20923e-06	3.75671
293.476	1.00098	7.04956e-06	3.64014
293.926	1.00006	9.21631e-06	3.71796
294.376	1.00006	1.02234e-05	3.67889
294.826	1.00006	9.46045e-06	3.8208
295.276	1.00037	7.01904e-06	3.89771
295.726	1.00006	7.96509e-06	3.80096
296.176	1.00037	8.05664e-06	3.78143
296.626	1.00037	7.59888e-06	3.71796
297.076	1.00098	6.37817e-06	3.85956
297.526	1.00159	7.1106e-06	3.64044
297.976	1.00098	8.3313e-06	3.82019
298.426	1.00128	8.75854e-06	3.93768
298.876	1.00006	1.05591e-05	3.78174
299.326	1.00128	6.31714e-06	3.93799
299.776	1.00098	5.64575e-06	3.78113
300.226	1.00067	6.40869e-06	3.78174
300.676	1.00098	6.50024e-06	3.91815
301.126	1.00128	7.65991e-06	3.87878
301.576	1.00037	6.92749e-06	3.80096
302.036	-0.8984375	-0.000224274	3.84186
302.486	-0.8984375	-0.000210114	3.8031
302.936	-0.898743	-0.000176544	3.8031
303.386	-0.899353	-0.000159241	3.66211
303.836	-0.8984375	-0.000149841	3.73932
304.286	-0.897827	-0.000141388	3.70026
304.736	-0.898743	-0.000130554	3.80341
305.186	-0.897827	-0.00012561	3.68011
305.636	-0.8984375	-0.000115143	3.6026
306.086	-0.898743	-0.000112518	3.68134
306.536	-0.897827	-0.00010733	3.6615
306.986	-0.898743	-0.000100403	3.68103
307.436	-0.898743	-9.88464e-05	3.78387
307.886	-0.898743	-9.23157e-05	3.86108
308.336	-0.897522	-9.21936e-05	3.78357
308.786	-0.899353	-8.5022e-05	3.75885
309.236	-0.898132	-8.73108e-05	3.64227
309.686	-0.899048	-8.01392e-05	3.71979
310.136	-0.897827	-8.08716e-05	3.68073
310.586	-0.898132	-8.11768e-05	3.56323
311.036	-0.897827	-7.85828e-05	3.64227
311.486	-0.898132	-7.73926e-05	3.64197
311.936	-0.899048	-7.33337e-05	3.66272
312.386	-0.898743	-7.09839e-05	3.62244
312.836	-0.898132	-7.12585e-05	3.66211
313.286	-0.897827	-7.02515e-05	3.64197
313.736	-0.8984375	-6.72302e-05	3.58276
314.186	-0.898132	-6.95496e-05	3.52417
314.636	-0.8984375	-6.89392e-05	3.72009
315.086	-0.898743	-6.47583e-05	3.68103
315.536	-0.898132	-6.73828e-05	3.68103
315.986	-0.898132	-7.04651e-05	3.5434
316.436	-0.898132	-6.29578e-05	3.8028
316.886	-0.899353	-5.92957e-05	3.56384
317.336	-0.899048	-5.59998e-05	3.60229
317.786	-0.897827	-6.08826e-05	3.60199
318.236	-0.897522	-5.86853e-05	3.62274
318.686	-0.897827	-5.60303e-05	3.64227
319.136	-0.898132	-5.4718e-05	3.58276
319.586	-0.898132	-5.53589e-05	3.72009
320.036	-0.898132	-5.18188e-05	3.58337
320.486	-0.898743	-5.03845e-05	3.54401
320.936	-0.898743	-5.05676e-05	3.71948
321.386	-0.899048	-5.02014e-05	3.71979
321.836	-0.899048	-4.75159e-05	3.6615
322.286	-0.898132	-4.93469e-05	3.6618
322.736	-0.898132	-4.57458e-05	3.6026
323.186	-0.898743	-4.6051e-05	3.62244
323.636	-0.898132	-4.75769e-05	3.78357
324.086	-0.897827	-4.56543e-05	3.64197
324.536	-0.8984375	-4.35181e-05	3.68103
324.986	-0.898132	-4.57153e-05	3.6615
325.436	-0.899048	-4.14429e-05	3.64227
325.886	-0.897827	-4.47083e-05	3.69995
326.336	-0.898743	-4.33044e-05	3.5437
326.786	-0.899048	-3.9978e-05	3.69995
327.236	-0.899658	-4.03137e-05	3.72009
327.686	-0.899048	-4.26636e-05	3.56293
328.136	-0.897522	-4.08325e-05	3.60291
328.586	-0.898743	-3.75366e-05	3.64227
329.036	-0.899353	-3.73535e-05	3.60229
329.486	-0.898132	-3.96729e-05	3.78326
329.936	-0.8984375	-3.9093e-05	3.64227
330.386	-0.899658	-3.41797e-05	3.5437
330.836	-0.8984375	-3.22571e-05	3.6615
331.286	-0.897522	-3.45154e-05	3.8031
331.736	-0.899048	-2.93884e-05	3.60291
332.186	-0.898132	-2.91138e-05	3.66119
332.636	-0.898132	-3.24402e-05	3.70056
333.086	-0.898132	-3.6499e-05	3.73871
333.536	-0.897827	-3.57361e-05	3.66119
333.986	-0.899048	-3.15552e-05	3.54401
334.436	-0.898132	-3.54309e-05	3.69995
334.886	-0.898132	-3.25012e-05	3.52417
335.336	-0.898132	-3.52783e-05	3.71948
335.786	-0.8984375	-3.07007e-05	3.62244
336.236	-0.898132	-3.43323e-05	3.64197
336.686	-0.899048	-2.93579e-05	3.6618
337.136	-0.8984375	-3.35693e-05	3.58276
337.586	-0.899048	-2.89001e-05	3.56293
338.036	-0.898743	-3.20129e-05	3.70056
338.486	-0.8984375	-3.13416e-05	3.5437
338.936	-0.898743	-3.0304e-05	3.73962
339.386	-0.898132	-3.04871e-05	3.68073
339.836	-0.898132	-3.125E-05	3.62274
340.286	-0.897827	-2.92358e-05	3.58337
340.736	-0.899353	-2.72217e-05	3.70087
341.186	-0.897522	-3.09448e-05	3.62274
341.636	-0.8984375	-2.53296e-05	3.78265
342.086	-0.899353	-2.53601e-05	3.62305
342.536	-0.897827	-2.8717e-05	3.66089
342.986	-0.898132	-2.78015e-05	3.62244
343.436	-0.899353	-2.47192e-05	3.60229
343.886	-0.899353	-2.49023e-05	3.60229
344.336	-0.8984375	-2.60925e-05	3.72009
344.786	-0.897522	-2.98157e-05	3.6618
345.236	-0.898743	-2.88696e-05	3.58246
345.686	-0.898743	-2.49329e-05	3.69995
346.136	-0.897827	-3.02429e-05	3.64166
346.586	-0.898132	-3.13721e-05	3.66089
347.036	-0.897827	-3.24707e-05	3.60199
347.486	-0.899048	-2.84729e-05	3.71979
347.936	-0.8984375	-2.72522e-05	3.6026
348.386	-0.899963	-2.51465e-05	3.75824
348.836	-0.899048	-2.52686e-05	3.6615
349.286	-0.899048	-2.54822e-05	3.56354
349.736	-0.898132	-2.84424e-05	3.56384
350.186	-0.899353	-2.49634e-05	3.68042
350.636	-0.898132	-2.771e-05	3.62244
351.086	-0.898132	-2.62451e-05	3.68042
351.536	-0.8984375	-2.48413e-05	3.56354
351.986	-0.897827	-2.76794e-05	3.5437
352.436	-0.899048	-2.53906e-05	3.64197
352.886	-0.897827	-2.82593e-05	3.62274
353.336	-0.897827	-2.58789e-05	3.68073
353.786	-0.899658	-2.35901e-05	3.5437
354.236	-0.897827	-2.55737e-05	3.62244
354.686	-0.8984375	-2.6062e-05	3.54401
355.136	-0.897217	-2.70996e-05	3.66089
355.586	-0.897522	-2.6947e-05	3.60168
356.036	-0.899658	-2.24609e-05	3.56323
356.486	-0.898132	-2.65503e-05	3.73871
356.936	-0.898743	-2.28271e-05	3.73962
357.386	-0.8984375	-2.37732e-05	3.68042
357.836	-0.898743	-2.46582e-05	3.56293
358.286	-0.898132	-2.771e-05	3.5434
358.736	-0.899048	-2.32849e-05	3.58276
359.186	-0.898132	-2.83203e-05	3.71948
359.636	-0.898743	-2.62146e-05	3.62274
360.086	-0.8984375	-2.40479e-05	3.70026
360.536	-0.899048	-2.55432e-05	3.66119
360.986	-0.898132	-2.83813e-05	3.62274
361.436	-0.898743	-2.2644e-05	3.70026
361.896	1.00128	0.000600281	3.6203
362.346	0.999756	0.000281494	3.75671
362.796	1.00006	0.000186157	3.54218
363.246	1.00037	0.000141998	3.65967
363.696	1.00006	0.000115784	3.6792
364.146	1.00098	9.92126e-05	3.71826
364.596	1.00098	8.97217e-05	3.80127
365.046	1.00006	8.36792e-05	3.8205
365.496	1.00037	7.79114e-05	3.69873
365.946	1.00098	7.06482e-05	3.78174
366.396	1.00037	6.32629e-05	3.78204
366.846	1.00037	6.29578e-05	3.80127
367.296	1.00067	5.40466e-05	3.8208
367.746	1.00098	5.55725e-05	3.78174
368.196	1.00037	5.49011e-05	3.71796
368.646	0.999756	5.08423e-05	3.78143
369.096	1.00189	4.54712e-05	3.75671
369.546	1.00098	4.78821e-05	3.67889
369.996	1.00006	4.48914e-05	3.80096
370.446	1.00006	4.27246e-05	3.75671
370.896	0.999451	4.15344e-05	3.65967
371.346	1.00037	4.09546e-05	3.80066
371.796	1.00098	3.64075e-05	3.91785
372.246	1.00128	3.43323e-05	3.67828
372.696	1.00098	3.32031e-05	3.63983
373.146	1.00128	3.33862e-05	3.80096
373.596	1.00128	3.06702e-05	3.71826
374.046	1.00037	3.2074e-05	3.6203
374.496	1.00067	3.33252e-05	3.69873
374.946	1.00159	2.97241e-05	3.67889
375.396	1.00128	2.70691e-05	3.60016
375.846	1.00098	2.771e-05	3.71826
376.296	0.999756	2.64893e-05	3.85834
376.746	1.00037	2.82288e-05	3.78143
377.196	1.00067	2.62146e-05	3.65997
377.646	1.00098	2.23999e-05	3.82019
378.096	1.00067	2.38953e-05	3.75641
378.546	1.00128	2.27356e-05	3.75671
378.996	1.00037	2.28577e-05	3.84033
379.446	0.999756	2.58789e-05	3.8205
379.896	1.00098	2.44446e-05	3.75671
380.346	1.00098	1.85852e-05	3.71796
380.796	0.999756	2.12402e-05	3.71796
381.246	1.00067	2.41394e-05	3.89862
381.696	1.00128	1.99585e-05	3.82019
382.146	1.00006	2.13623e-05	3.73749
382.596	1.00037	2.16675e-05	3.65936
383.046	1.00128	2.61536e-05	3.71765
383.496	1.00067	1.86462e-05	3.9386
383.946	1.00006	1.98364e-05	3.80096
384.396	1.00067	1.70593e-05	3.80096
384.846	1.00098	1.7334e-05	3.65967
385.296	1.00067	1.69678e-05	3.80096
385.746	1.00067	1.58081e-05	3.73718
386.196	0.999756	1.62048e-05	3.73749
386.646	0.999756	2.10266e-05	3.89832
387.096	1.00098	1.72729e-05	3.87817
387.546	1.00006	1.9165e-05	3.78204
387.996	1.00006	1.78528e-05	3.65967
388.446	1.00037	1.55945e-05	3.67889
388.896	1.00006	1.86157e-05	3.78143
389.346	1.00006	1.78833e-05	3.78143
389.796	1.00037	1.36719e-05	3.78143
390.246	1.00037	1.75781e-05	3.83972
390.696	1.00128	1.27258e-05	3.80096
391.146	1.00037	1.53198e-05	3.73779
391.596	1.00128	1.27869e-05	3.75671
392.046	0.999756	1.49841e-05	3.80066
392.496	1.00067	1.47095e-05	3.71765
392.946	1.00098	1.14441e-05	3.84033
393.396	0.999756	1.59607e-05	3.82019
393.846	1.00098	1.43738e-05	3.73779
394.296	1.00067	1.11084e-05	3.71826
394.746	1.00006	1.50146e-05	3.73749
395.196	1.00128	1.33057e-05	3.73779
395.646	1.00067	1.16882e-05	3.78174
396.096	1.00067	1.11389e-05	3.85925
396.546	1.00006	1.21155e-05	3.80157
396.996	1.00037	1.33667e-05	3.71826
397.446	1.00067	1.07117e-05	3.75671
397.896	1.00067	1.29089e-05	3.83972
398.346	1.00159	1.09863e-05	3.80127
398.796	1.00006	1.19324e-05	3.87848
399.246	1.00037	1.32751e-05	3.83942
399.696	1.00098	1.02539e-05	3.87909
400.146	1.00006	1.3855e-05	3.7561
400.596	1.00098	8.91113e-06	3.73688
401.046	1.00037	1.27258e-05	3.65997
401.496	1.00037	1.40686e-05	4.05487
401.946	1.00037	9.79614e-06	3.80127
402.396	1.00037	1.37939e-05	3.75641
402.846	1.00128	9.552e-06	3.81989
403.296	0.999756	1.12305e-05	3.75641
403.746	1.00006	1.27258e-05	3.71796
404.196	1.00098	8.78906e-06	3.78174
404.646	0.999756	1.27258e-05	3.78143
405.096	1.00067	1.17493e-05	3.7561
405.546	1.00128	8.94165e-06	3.71857
405.996	1.00067	1.01318e-05	3.73779
406.446	1.00128	8.11768e-06	3.80035
406.896	1.00128	8.17871e-06	3.75732
407.346	0.999756	1.00708e-05	3.80035
407.796	1.00098	1.11084e-05	3.67859
408.246	1.00128	8.57544e-06	3.80066
408.696	0.999756	1.31836e-05	3.85956
409.146	1.00098	1.08643e-05	3.75671
409.596	1.00098	7.65991e-06	3.73718
410.046	1.00037	1.19324e-05	3.85925
410.496	1.00006	1.33362e-05	3.78113
410.946	1.00067	1.33362e-05	3.78082
411.396	1.00067	1.33667e-05	3.85895
411.846	1.00128	9.85718e-06	3.6792
412.296	1.00037	1.04675e-05	3.81989
412.746	1.00037	1.12e-05	3.75671
413.196	1.00037	7.04956e-06	3.71765
413.646	0.999756	1.18408e-05	3.75671
414.096	1.00128	7.8125e-06	3.83972
414.546	1.00067	7.96509e-06	3.78143
414.996	1.00006	1.23596e-05	3.7561
415.446	1.00159	8.14819e-06	3.80127
415.896	0.999451	1.2207e-05	3.85834
416.346	1.00128	1.09558e-05	3.83972
416.796	1.00067	8.75854e-06	3.65967
417.246	1.00037	1.2085e-05	3.8205
417.696	1.00006	8.11768e-06	3.7561
418.146	1.00006	1.08643e-05	3.83972
418.596	1.00128	7.65991e-06	3.78204
419.046	1.00006	7.53784e-06	3.71826
419.496	1.00006	1.08337e-05	3.6792
419.946	1.00006	1.10779e-05	3.83972
420.396	1.00128	9.67407e-06	3.73718
420.846	1.00098	7.69043e-06	3.83942
421.296	1.00037	1.11389e-05	3.64014
421.756	-0.898132	-0.000228699	3.78326
422.206	-0.897827	-0.000205475	3.75885
422.656	-0.8984375	-0.000171204	3.91968
423.106	-0.899353	-0.000147827	3.73932
423.556	-0.898132	-0.000137299	3.70026
424.006	-0.899048	-0.000124268	3.84216
424.456	-0.898743	-0.000116821	3.68073
424.906	-0.898132	-0.000112183	3.71887
425.356	-0.8984375	-0.000106354	3.8031
425.806	-0.899658	-9.74731e-05	3.89984
426.256	-0.8984375	-9.41772e-05	3.88
426.706	-0.898743	-9.09729e-05	3.75885
427.156	-0.897827	-8.81653e-05	3.68134
427.606	-0.8984375	-8.06274e-05	3.8028
428.056	-0.898743	-8.01392e-05	3.62213
428.506	-0.899658	-7.47681e-05	3.66119
428.956	-0.898132	-7.37915e-05	3.82172
429.406	-0.897522	-7.35779e-05	3.69995
429.856	-0.899048	-6.81152e-05	3.68103
430.306	-0.897522	-6.92139e-05	3.78357
430.756	-0.898743	-6.58569e-05	3.69995
431.206	-0.8984375	-6.39648e-05	3.64258
431.656	-0.8984375	-6.43616e-05	3.8031
432.106	-0.899048	-5.89905e-05	3.75854
432.556	-0.897827	-6.23474e-05	3.73932
433.006	-0.899048	-5.76477e-05	3.70026
433.456	-0.898132	-6.02417e-05	3.82233
433.906	-0.899048	-5.50537e-05	3.78326
434.356	-0.898132	-5.61523e-05	3.60229
434.806	-0.898743	-5.5603e-05	3.64197
435.256	-0.898743	-5.29785e-05	3.64166
435.706	-0.899048	-5.18188e-05	3.68103
436.156	-0.898743	-5.47791e-05	3.5437
436.606	-0.898132	-5.42297e-05	3.6615
437.056	-0.899353	-4.94385e-05	3.56293
437.506	-0.898132	-5.15442e-05	3.64197
437.956	-0.898132	-5.15137e-05	3.66119
438.406	-0.897827	-4.96521e-05	3.56323
438.856	-0.899048	-4.6875E-05	3.71948
439.306	-0.8984375	-4.84619e-05	3.68103
439.756	-0.898743	-4.78821e-05	3.60168
440.206	-0.899048	-4.46777e-05	3.73871
440.656	-0.898132	-4.79431e-05	3.72009
441.106	-0.899048	-4.30908e-05	3.73932
441.556	-0.898132	-4.73328e-05	3.66089
442.006	-0.899048	-4.29993e-05	3.56323
442.456	-0.899048	-4.14124e-05	3.68073
442.906	-0.8984375	-4.14734e-05	3.70026
443.356	-0.899048	-4.38538e-05	3.64166
443.806	-0.898743	-4.03442e-05	3.56354
444.256	-0.8984375	-4.33655e-05	3.73901
444.706	-0.899353	-4.03137e-05	3.6026
445.156	-0.899048	-4.07715e-05	3.75854
445.606	-0.898132	-4.16565e-05	3.66089
446.056	-0.899048	-4.04358e-05	3.60229
446.506	-0.897522	-4.05884e-05	3.68073
446.956	-0.898132	-4.16565e-05	3.64166
447.406	-0.897522	-3.97339e-05	3.73871
447.856	-0.898743	-3.65601e-05	3.70026
448.306	-0.897522	-3.96118e-05	3.70056
448.756	-0.899048	-3.5614e-05	3.66089
449.206	-0.898743	-3.50037e-05	3.6615
449.656	-0.899048	-3.52173e-05	3.73932
450.106	-0.8984375	-3.99475e-05	3.60229
450.556	-0.8984375	-3.57666e-05	3.52386
451.006	-0.898743	-3.5553e-05	3.71918
451.456	-0.898132	-3.72925e-05	3.71979
451.906	-0.898132	-3.48511e-05	3.70026
452.356	-0.898743	-3.36609e-05	3.6615
452.806	-0.898743	-3.47595e-05	3.71979
453.256	-0.898743	-3.58887e-05	3.58337
453.706	-0.897827	-3.67432e-05	3.73932
454.156	-0.8984375	-3.32336e-05	3.58307
454.606	-0.898743	-3.28674e-05	3.64227
455.056	-0.899658	-3.36609e-05	3.71948
455.506	-0.899048	-3.46985e-05	3.58276
455.956	-0.898132	-3.54919e-05	3.68103
456.406	-0.8984375	-3.18604e-05	3.62274
456.856	-0.898743	-3.2959e-05	3.73901
457.306	-0.8984375	-3.36914e-05	3.68042
457.756	-0.898132	-3.16467e-05	3.5434
458.206	-0.899353	-3.00903e-05	3.64258
458.656	-0.898132	-3.00903e-05	3.68073
459.106	-0.899048	-3.35999e-05	3.70026
459.556	-0.898743	-2.96326e-05	3.60229
460.006	-0.898743	-3.00293e-05	3.73932
460.456	-0.897827	-3.37524e-05	3.60291
460.906	-0.898132	-3.03345e-05	3.7384
461.356	-0.898132	-3.24707e-05	3.68011
461.806	-0.899048	-2.96936e-05	3.64197
462.256	-0.898132	-2.99072e-05	3.73932
462.706	-0.897827	-3.14026e-05	3.56293
463.156	-0.898743	-3.15857e-05	3.6615
463.606	-0.898743	-2.88696e-05	3.70026
464.056	-0.898132	-2.80762e-05	3.6615
464.506	-0.897522	-3.21655e-05	3.68103
464.956	-0.899048	-3.06396e-05	3.60321
465.406	-0.898743	-2.84729e-05	3.68011
465.856	-0.898743	-2.6886e-05	3.70056
466.306	-0.897827	-2.78931e-05	3.75885
466.756	-0.899658	-2.62451e-05	3.64197
467.206	-0.898132	-3.00598e-05	3.68103
467.656	-0.898743	-2.70996e-05	3.73993
468.106	-0.898743	-2.6123e-05	3.68073
468.556	-0.898132	-2.91443e-05	3.56323
469.006	-0.898743	-2.52686e-05	3.68042
469.456	-0.898132	-2.92969e-05	3.70026
469.906	-0.898132	-2.90527e-05	3.54401
470.356	-0.897827	-2.79236e-05	3.6026
470.806	-0.897827	-2.94189e-05	3.48541
471.256	-0.898743	-2.57874e-05	3.71979
471.706	-0.898743	-2.5116e-05	3.68103
472.156	-0.898743	-2.92969e-05	3.52448
472.606	-0.897827	-2.72217e-05	3.71979
473.056	-0.8984375	-2.49329e-05	3.66119
473.506	-0.899353	-2.42615e-05	3.82172
473.956	-0.8984375	-2.52991e-05	3.62305
474.406	-0.898743	-2.66113e-05	3.75854
474.856	-0.8984375	-2.59705e-05	3.62244
475.306	-0.899048	-2.44446e-05	3.70026
475.756	-0.899353	-2.38037e-05	3.58276
476.206	-0.898743	-2.37732e-05	3.8623
476.656	-0.898132	-2.75269e-05	3.80249
477.106	-0.898132	-2.44751e-05	3.8028
477.556	-0.898132	-2.63977e-05	3.66119
478.006	-0.8984375	-2.64893e-05	3.75854
478.456	-0.897522	-2.71912e-05	3.64166
478.906	-0.897827	-2.56958e-05	3.69965
479.356	-0.8984375	-2.3468e-05	3.78326
479.806	-0.8984375	-2.74658e-05	3.62305
480.256	-0.8984375	-2.97241e-05	3.50464
480.706	-0.898743	-2.62451e-05	3.69995
481.156	-0.898132	-2.67029e-05	3.70056
481.606	-0.8984375	-2.62146e-05	3.6026
482.066	1.00006	0.000383636	3.71735
482.516	1.00128	0.000217499	3.69843
482.966	1.00128	0.000144531	3.67889
483.416	1.00128	0.000107422	3.71735
483.866	1.00037	9.17664e-05	3.67889
484.316	0.999451	7.89185e-05	3.60107
484.766	1.00006	7.18079e-05	3.67889
485.216	1.00006	6.70166e-05	3.65997
485.666	1.00067	5.9845e-05	3.75702
486.116	1.00037	5.78613e-05	3.71796
486.566	1.00037	5.42908e-05	3.58093
487.016	1.00006	5.34668e-05	3.73749
487.466	0.999756	5.22461e-05	3.67981
487.916	1.00067	4.65393e-05	3.7561
488.366	1.00037	4.37927e-05	3.71735
488.816	1.00006	4.21143e-05	3.69843
489.266	1.00006	4.40979e-05	3.75671
489.716	1.00098	4.12598e-05	3.7561
490.166	1.00128	3.71399e-05	3.58154
490.616	1.00128	3.57361e-05	3.73718
491.066	1.00067	3.61633e-05	3.71796
491.516	1.00098	3.48206e-05	3.71796
491.966	1.00159	3.25928e-05	3.71796
492.416	1.00006	3.33862e-05	3.78143
492.866	1.00006	3.4668e-05	3.69873
493.316	1.00006	3.25012e-05	3.65906
493.766	1.00067	3.28979e-05	3.83942
494.216	1.00006	3.13721e-05	3.69904
494.666	1.00067	2.96936e-05	3.69873
495.116	1.00189	2.76184e-05	3.83972
495.566	1.00098	2.6825e-05	3.91846
496.016	1.00067	2.98767e-05	3.82019
496.466	1.00128	2.52075e-05	3.80127
496.916	0.999756	2.63672e-05	3.69812
497.366	0.999756	2.72217e-05	3.73749
497.816	1.00006	2.6062e-05	3.73718
498.266	1.00067	2.39868e-05	3.8205
498.716	1.00128	2.55737e-05	3.65936
499.166	1.00098	2.14233e-05	3.83942
499.616	1.00037	2.29797e-05	3.83942
500.066	1.00006	2.32239e-05	3.65967
500.516	1.00098	2.01721e-05	3.83972
500.966	1.00067	2.24304e-05	3.6792
501.416	1.00037	1.92566e-05	3.73688
501.866	1.00067	1.88293e-05	3.75641
502.316	1.00006	2.10876e-05	3.71796
502.766	0.999756	2.03247e-05	3.80096
503.216	1.00128	1.74561e-05	3.73749
503.666	1.00006	1.79138e-05	3.85986
504.116	0.999756	1.95923e-05	3.71796
504.566	1.00006	2.08435e-05	3.87817
505.016	1.00159	1.59607e-05	3.71796
505.466	1.00037	1.77307e-05	3.85956
505.916	1.00037	1.92871e-05	3.71735
506.366	1.00098	1.56555e-05	3.80096
506.816	1.00037	1.68152e-05	3.75641
507.266	1.00037	1.72424e-05	3.6792
507.716	1.00006	1.77612e-05	3.91754
508.166	1.00098	1.4679e-05	3.71765
508.616	1.00067	1.48315e-05	3.80096
509.066	1.00006	1.78223e-05	3.8205
509.516	1.00037	1.71814e-05	3.84003
509.966	1.00098	1.49231e-05	3.78174
510.416	1.00067	1.26343e-05	3.69812
510.866	1.00037	1.651e-05	3.75671
511.316	1.00067	1.78528e-05	3.6795
511.766	1.00006	1.68457e-05	3.75641
512.216	1.00128	1.28479e-05	3.75641
512.666	1.00006	1.28479e-05	3.8208
513.116	1.00067	1.30005e-05	3.80157
513.566	1.00067	1.2085e-05	3.8974
514.016	1.00067	1.07727e-05	3.73749
514.466	1.00067	1.15967e-05	3.73779
514.916	1.00098	9.61304e-06	3.85895
515.366	1.00037	1.12305e-05	3.6792
515.816	1.00067	8.94165e-06	3.69843
516.266	1.00067	1.31531e-05	3.6792
516.716	1.00128	1.05286e-05	3.75671
517.166	1.00006	1.25732e-05	3.83911
517.616	1.00067	1.06812e-05	3.67889
518.066	1.00098	1.07422e-05	3.71826
518.516	1.00189	9.12476e-06	3.84003
518.966	1.00098	1.20239e-05	3.80096
519.416	1.00128	9.52148e-06	3.80127
519.866	1.00037	1.19629e-05	3.81989
520.316	1.00067	9.0332e-06	3.80066
520.766	1.00128	7.04956e-06	3.89801
521.216	1.00006	1.21155e-05	3.78113
521.666	1.00067	8.02612e-06	3.78143
522.116	1.00006	1.2207e-05	3.83972
522.566	1.00067	9.18579e-06	3.80066
523.016	1.00067	9.27734e-06	3.80096
523.466	1.00067	1.06201e-05	3.80096
523.916	1.00006	8.57544e-06	3.67889
524.366	1.00098	8.75854e-06	3.93768
524.816	1.00098	8.30078e-06	3.71826
525.266	1.00067	1.1261e-05	3.80096
525.716	1.00067	8.5144e-06	3.85956
526.166	1.00128	1.0437e-05	3.87878
526.616	1.00098	8.69751e-06	3.87848
527.066	1.00128	8.78906e-06	3.83972
527.516	1.00067	1.08643e-05	3.71796
527.966	1.00067	7.78198e-06	3.71826
528.416	1.00128	8.91113e-06	3.73688
528.866	0.999756	1.15662e-05	3.73749
529.316	1.00067	7.78198e-06	3.78143
529.766	1.00098	9.39941e-06	3.84003
530.216	1.00037	1.1322e-05	3.80096
530.666	1.00067	1.06812e-05	3.83942
531.116	1.00067	8.78906e-06	3.83942
531.566	1.00128	7.08008e-06	3.87787
532.016	1.00098	7.69043e-06	3.73749
532.466	1.00128	7.41577e-06	3.80096
532.916	1.00067	5.82886e-06	3.78174
533.366	0.999756	6.5918e-06	3.73779
533.816	1.00037	6.46973e-06	3.73718
534.266	1.00098	9.00269e-06	3.8208
534.716	1.00098	6.46973e-06	3.85864
535.166	1.00037	9.12476e-06	3.91754
535.616	1.00037	9.21631e-06	3.83972
536.066	1.00128	8.23975e-06	3.85895
536.516	1.00006	1.14746e-05	3.87878
536.966	1.00159	8.8501e-06	3.73718
537.416	1.00128	6.10352e-06	3.73688
537.866	1.00067	6.5918e-06	3.75702
538.316	1.00128	7.90405e-06	3.8205
538.766	0.999756	8.94165e-06	3.65875
539.216	1.00006	1.14136e-05	3.8205
539.666	1.00128	7.72095e-06	3.69812
540.116	1.00128	6.10352e-06	3.80035
540.566	1.00006	9.8877e-06	3.64044
541.016	1.00067	7.20215e-06	3.7561
541.466	1.00006	7.90405e-06	3.78143
541.926	-0.899048	-0.000200989	3.71979
542.376	-0.899048	-0.000176971	3.86047
542.826	-0.898132	-0.000154053	3.78326
543.276	-0.899353	-0.000133942	3.90045
543.726	-0.898743	-0.000124329	3.78326
544.176	-0.8984375	-0.000116974	3.84094
544.626	-0.898132	-0.000109375	3.88031
545.076	-0.897827	-0.000102783	3.88062
545.526	-0.898743	-9.8175e-05	3.73932
545.976	-0.897827	-9.21021e-05	3.73932
546.426	-0.898132	-8.69446e-05	3.69995
546.876	-0.899048	-8.22449e-05	3.73932
547.326	-0.8984375	-7.724e-05	3.80249
547.776	-0.897217	-7.48291e-05	3.78387
548.226	-0.899048	-6.92444e-05	3.8028
548.676	-0.899048	-6.56433e-05	3.84186
549.126	-0.898743	-6.43311e-05	3.73871
549.576	-0.899048	-6.21033e-05	3.78326
550.026	-0.897827	-6.29883e-05	3.6618
550.476	-0.899048	-5.85327e-05	3.7204
550.926	-0.898743	-6.02112e-05	3.82263
551.376	-0.898743	-5.96619e-05	3.78326
551.826	-0.897827	-5.83801e-05	3.82233
552.276	-0.897827	-5.59998e-05	3.73901
552.726	-0.8984375	-5.43823e-05	3.86108
553.176	-0.897827	-5.27039e-05	3.66089
553.626	-0.899048	-4.93469e-05	3.70026
554.076	-0.8984375	-5.11169e-05	3.8031
554.526	-0.898743	-4.77905e-05	3.62183
554.976	-0.898132	-4.953e-05	3.72009
555.426	-0.8984375	-5.14526e-05	3.75885
555.876	-0.8984375	-4.73938e-05	3.62213
556.326	-0.897522	-5.10559e-05	3.66119
556.776	-0.8984375	-4.81567e-05	3.80219
557.226	-0.899658	-4.55627e-05	3.82233
557.676	-0.899048	-4.422e-05	3.68073
558.126	-0.899048	-4.22363e-05	3.6615
558.576	-0.898132	-4.25415e-05	3.78387
559.026	-0.898132	-4.22363e-05	3.64227
559.476	-0.898132	-4.25415e-05	3.73871
559.926	-0.8984375	-4.40063e-05	3.70056
560.376	-0.899353	-4.01917e-05	3.73932
560.826	-0.899048	-4.19006e-05	3.68073
561.276	-0.898132	-4.47693e-05	3.78326
561.726	-0.897827	-4.61121e-05	3.71979
562.176	-0.8984375	-5.00183e-05	3.66119
562.626	-0.898132	-4.76379e-05	3.73871
563.076	-0.897522	-4.57764e-05	3.70026
563.526	-0.8984375	-4.05579e-05	3.6026
563.976	-0.8984375	-3.93066e-05	3.62244
564.426	-0.898743	-4.22363e-05	3.6615
564.876	-0.897827	-4.2511e-05	3.72009
565.326	-0.8984375	-4.01611e-05	3.70026
565.776	-0.898743	-3.94592e-05	3.82172
566.226	-0.897522	-4.14124e-05	3.66089
566.676	-0.899658	-3.79639e-05	3.64258
567.126	-0.898743	-3.51562e-05	3.73901
567.576	-0.898132	-3.68652e-05	3.68073
568.026	-0.898132	-3.8147e-05	3.62274
568.476	-0.897522	-3.76282e-05	3.68103
568.926	-0.898743	-3.33557e-05	3.71918
569.376	-0.898743	-3.31726e-05	3.73962
569.826	-0.898743	-3.20435e-05	3.75793
570.276	-0.899048	-3.32642e-05	3.64227
570.726	-0.897827	-3.35388e-05	3.64197
571.176	-0.899048	-3.05786e-05	3.56323
571.626	-0.897827	-3.52478e-05	3.8028
572.076	-0.897217	-3.35388e-05	3.64197
572.526	-0.899353	-3.00903e-05	3.71979
572.976	-0.898132	-3.32642e-05	3.60229
573.426	-0.898132	-3.31726e-05	3.64166
573.876	-0.899048	-2.91138e-05	3.75885
574.326	-0.899048	-3.03345e-05	3.66119
574.776	-0.8984375	-3.29285e-05	3.71948
575.226	-0.898132	-3.08533e-05	3.60199
575.676	-0.898743	-2.8656e-05	3.64258
576.126	-0.899658	-2.91748e-05	3.68073
576.576	-0.898743	-2.92969e-05	3.8028
577.026	-0.897522	-3.2074e-05	3.71948
577.476	-0.8984375	-2.8595e-05	3.70026
577.926	-0.8984375	-2.89612e-05	3.75793
578.376	-0.899048	-2.86255e-05	3.64166
578.826	-0.899353	-2.84729e-05	3.78357
579.276	-0.899048	-3.10669e-05	3.71979
579.726	-0.897522	-3.26233e-05	3.72009
580.176	-0.899353	-2.92358e-05	3.6618
580.626	-0.897827	-3.21045e-05	3.64227
581.076	-0.898132	-2.91138e-05	3.8031
581.526	-0.897827	-3.11279e-05	3.46619
581.976	-0.8984375	-2.89307e-05	3.75885
582.426	-0.898743	-2.6947e-05	3.69965
582.876	-0.899353	-2.74963e-05	3.71979
583.326	-0.899048	-2.54822e-05	3.6615
583.776	-0.898132	-2.8717e-05	3.73932
584.226	-0.898743	-2.75574e-05	3.70026
584.676	-0.898132	-2.67639e-05	3.78326
585.126	-0.898743	-2.75574e-05	3.71948
585.576	-0.898132	-2.71301e-05	3.56323
586.026	-0.899048	-2.56042e-05	3.66211
586.476	-0.8984375	-2.57263e-05	3.8031
586.926	-0.897827	-2.67029e-05	3.64197
587.376	-0.898743	-2.71301e-05	3.60229
587.826	-0.898743	-2.56042e-05	3.6618
588.276	-0.899048	-2.70691e-05	3.64227
588.726	-0.897827	-2.54517e-05	3.68103
589.176	-0.898743	-2.42615e-05	3.73932
589.626	-0.899048	-2.59705e-05	3.71948
590.076	-0.898132	-2.75269e-05	3.60199
590.526	-0.899048	-2.35901e-05	3.70056
590.976	-0.898743	-2.55432e-05	3.52448
591.426	-0.898132	-2.54211e-05	3.78357
591.876	-0.898132	-2.59094e-05	3.66089
592.326	-0.8984375	-2.35291e-05	3.60199
592.776	-0.899048	-2.4292e-05	3.69995
593.226	-0.898132	-2.63367e-05	3.64227
593.676	-0.898743	-2.26135e-05	3.64197
594.126	-0.898743	-2.07825e-05	3.71979
594.576	-0.898132	-2.15759e-05	3.69995
595.026	-0.8984375	-2.48413e-05	3.69995
595.476	-0.898132	-2.15149e-05	3.64197
595.926	-0.899048	-2.005e-05	3.70087
596.376	-0.899048	-2.33459e-05	3.68134
596.826	-0.897522	-2.56653e-05	3.56384
597.276	-0.898743	-2.17285e-05	3.68103
597.726	-0.898132	-2.4231e-05	3.8028
598.176	-0.898743	-2.30713e-05	3.68073
598.626	-0.898132	-2.40784e-05	3.69995
599.076	-0.898743	-2.04773e-05	3.68103
599.526	-0.8984375	-2.33765e-05	3.71979
599.976	-0.897827	-2.41089e-05	3.73932
600.426	-0.898132	-2.38342e-05	3.66119
600.876	-0.898132	-2.28577e-05	3.64227
601.326	-0.899048	-1.99585e-05	3.75885
601.786	1.00067	0.000957642	3.60046
602.236	1.00098	0.000300232	3.73749
602.686	1.00128	0.000148895	3.71765
603.136	1.00128	0.000112732	3.69843
603.586	1.00098	9.53674e-05	3.65936
604.036	1.00098	8.11768e-05	3.64014
604.486	1.00159	6.98853e-05	3.75702
604.936	1.00067	6.15845e-05	3.75671
605.386	1.00006	5.57251e-05	3.71735
605.836	1.00128	5.24597e-05	3.85925
606.286	1.00006	5.17273e-05	3.69843
606.736	1.00067	4.60205e-05	3.60016
607.186	1.00037	4.73022e-05	3.75641
607.636	1.00006	4.53491e-05	3.71796
608.086	0.999756	4.14124e-05	3.6795
608.536	1.00098	3.78418e-05	3.75641
608.986	1.00098	3.70483e-05	3.75671
609.436	1.00098	3.58582e-05	3.80157
609.886	0.999756	3.69873e-05	3.82019
610.336	1.00067	3.479e-05	3.62061
610.786	1.00098	3.29285e-05	3.75671
611.236	1.00067	3.12195e-05	3.73718
611.686	1.00098	3.16162e-05	3.73718
612.136	1.00098	2.84424e-05	3.71796
612.586	1.00037	2.80151e-05	3.78174
613.036	1.00006	2.7832e-05	3.8208
613.486	1.00006	2.83203e-05	3.87878
613.936	1.00006	2.66113e-05	3.80157
614.386	1.00006	2.74353e-05	3.69843
614.836	1.00159	2.2644e-05	3.73688
615.286	0.999756	2.59399e-05	3.71826
615.736	1.00067	2.2644e-05	3.84033
616.186	1.00098	2.10876e-05	3.75641
616.636	1.00128	2.11792e-05	3.75702
617.086	1.00037	2.50854e-05	3.73749
617.536	1.00128	2.15454e-05	3.89771
617.986	1.00037	2.52075e-05	3.75641
618.436	1.00037	2.86255e-05	3.71765
618.886	1.00037	2.08435e-05	3.73718
619.336	1.00037	2.14539e-05	3.64014
619.786	1.00067	2.24915e-05	3.71735
620.236	1.00067	1.90125e-05	3.71765
620.686	1.00067	2.18506e-05	3.67889
621.136	1.00098	1.96533e-05	3.82019
621.586	1.00098	1.77002e-05	3.78143
622.036	1.00128	1.72119e-05	3.7558
622.486	1.00098	1.66931e-05	3.80035
622.936	1.00098	1.60522e-05	3.65967
623.386	1.00067	1.6571e-05	3.78143
623.836	1.00067	1.53198e-05	3.7561
624.286	1.00067	1.66321e-05	3.78143
624.736	1.00067	1.69067e-05	3.91785
625.186	1.00098	1.47705e-05	3.85925
625.636	1.00067	1.55945e-05	3.80096
626.086	1.00006	1.67236e-05	3.75702
626.536	0.999756	1.82495e-05	3.80066
626.986	0.999756	1.86157e-05	3.85895
627.436	1.00098	1.31531e-05	3.83911
627.886	1.00067	1.44348e-05	3.99628
628.336	1.00037	1.3916e-05	3.83972
628.786	1.00006	1.40076e-05	3.7558
629.236	1.00098	9.94873e-06	3.83972
629.686	1.00006	1.39771e-05	3.84003
630.136	1.00067	1.10474e-05	3.67828
630.586	1.00098	1.40381e-05	3.83911
631.036	1.00006	1.40686e-05	3.82019
631.486	1.00037	1.45264e-05	3.91846
631.936	1.00037	1.07422e-05	3.87817
632.386	1.00006	1.48926e-05	3.78143
632.836	1.00128	1.05591e-05	3.78174
633.286	0.999756	1.33362e-05	3.78143
633.736	0.999451	1.40991e-05	3.80157
634.186	1.00128	1.04675e-05	3.87848
634.636	1.00006	1.08948e-05	3.80035
635.086	0.999451	1.32446e-05	3.6972
635.536	1.00067	1.08643e-05	3.75671
635.986	1.00098	1.06201e-05	3.80127
636.436	1.00006	1.25732e-05	3.87878
636.886	1.00067	1.29395e-05	3.73779
637.336	1.00098	1.10474e-05	3.84003
637.786	1.00128	8.88062e-06	3.67859
638.236	1.00067	1.00708e-05	3.85895
638.686	0.999756	1.10779e-05	3.75671
639.136	1.00037	1.12e-05	3.85925
639.586	1.00067	9.21631e-06	3.91815
640.036	1.00006	1.03149e-05	3.78143
640.486	1.00006	1.15662e-05	3.75671
640.936	1.00037	1.16272e-05	3.85925
641.386	1.00159	1.10779e-05	3.87878
641.836	1.00098	8.17871e-06	3.65997
642.286	1.00128	8.42285e-06	3.73718
642.736	1.00098	9.0332e-06	3.84003
643.186	1.00067	7.56836e-06	3.75671
643.636	1.00037	1.02539e-05	3.87909
644.086	1.00067	9.97925e-06	4.05457
644.536	1.00067	1.03455e-05	3.83972
644.986	1.00098	7.78198e-06	3.71765
645.436	1.00067	1.09558e-05	3.81989
645.886	1.00128	7.96509e-06	3.78143
646.336	1.00067	7.78198e-06	3.85925
646.786	1.00067	8.17871e-06	3.85895
647.236	1.00098	8.14819e-06	3.95691
647.686	1.00006	1.01318e-05	3.84003
648.136	0.999756	1.06812e-05	3.7561
648.586	1.00098	9.15527e-06	3.87878
649.036	1.00006	1.01318e-05	3.8205
649.486	1.00006	1.0498e-05	3.93677
649.936	1.00128	7.32422e-06	3.84003
650.386	1.00037	7.04956e-06	3.80096
650.836	1.00067	8.91113e-06	3.84003
651.286	1.00067	6.74438e-06	3.87878
651.736	1.00067	8.54492e-06	3.75671
652.186	1.00067	7.32422e-06	3.85956
652.636	1.00098	8.69751e-06	3.78143
653.086	1.00098	6.31714e-06	3.85925
653.536	1.00037	1.0376e-05	3.91815
653.986	1.00098	6.86646e-06	3.69843
654.436	1.00037	1.02844e-05	3.87848
654.886	1.00159	5.61523e-06	3.6792
655.336	1.00006	8.88062e-06	3.71796
655.786	1.00006	8.66699e-06	3.8205
656.236	1.00037	9.24683e-06	3.65967
656.686	1.00067	5.76782e-06	3.89832
657.136	1.00067	9.52148e-06	3.80127
657.586	1.00098	6.16455e-06	3.89771
658.036	1.00067	6.04248e-06	3.69843
658.486	1.00037	6.86646e-06	3.85956
658.936	1.00037	1.01013e-05	3.83972
659.386	1.00067	5.64575e-06	3.87878
659.836	1.00006	9.64355e-06	3.8208
660.286	1.00098	5.27954e-06	3.89771
660.736	1.00037	9.82666e-06	3.82019
661.186	1.00128	4.48608e-06	3.69843
661.636	0.999756	9.46045e-06	3.73688
661.676	1.00098	6.65283e-06	3.73749