File: Edgar/20240607/20240607/electrodeposition_pulsed_potential_20240607_E/pulses_2000_to_3000.txt
Time (s)	WE(1).Potential (V)	WE(1).Current (A)
1599.14	-0.698059	-0.018985
1599.6	0.00017395	0.00250458
1600.08	0.000415039	0.00597961
1600.54	-0.697418	-0.0171478
1601	0.00109253	0.00320953
1601.48	-0.000656128	0.00625549
1601.94	-0.697968	-0.0169983
1602.4	-0.000790405	0.00332886
1602.88	-0.000811768	0.00631897
1603.34	-0.69931	-0.0169312
1603.8	-0.000585937	0.00336823
1604.28	0.00100098	0.00634338
1604.74	-0.698029	-0.0169281
1605.2	0.000292969	0.00338409
1605.68	-3.05176e-06	0.00636902
1606.14	-0.697571	-0.0169128
1606.6	0.000979614	0.00339752
1607.08	0.00100098	0.00637238
1607.54	-0.697876	-0.0169037
1608	-0.000796509	0.00341583
1608.48	7.93457e-05	0.00638306
1608.94	-0.699188	-0.0168915
1609.4	-0.000506592	0.00342957
1609.88	-0.000250244	0.00639526
1610.34	-0.699615	-0.0168732
1610.8	0.000491333	0.00342621
1611.28	0.000393677	0.00640045
1611.74	-0.697723	-0.0168823
1612.2	-0.000759888	0.00343811
1612.68	-0.000946045	0.00640778
1613.14	-0.698212	-0.016864
1613.6	0.000134277	0.00344055
1614.08	0.000778198	0.00640198
1614.54	-0.698486	-0.0168579
1615	-0.000463867	0.00345123
1615.48	0.000375366	0.00640686
1615.94	-0.699127	-0.0168457
1616.4	-0.000750732	0.00345978
1616.88	-0.000167847	0.00641113
1617.34	-0.698029	-0.0168579
1617.8	-0.000714111	0.00345917
1618.28	-2.74658e-05	0.00641327
1618.74	-0.697601	-0.016861
1619.2	-0.000598145	0.00346588
1619.68	-0.000332642	0.00642242
1620.14	-0.699585	-0.0168457
1620.6	0.000946045	0.00345917
1621.08	0.00101318	0.00641357
1621.54	-0.699341	-0.0168427
1622	0.00115967	0.00346161
1622.48	0.00104675	0.00641937
1622.94	-0.698944	-0.0168457
1623.4	0.000805664	0.00346893
1623.88	-0.00072937	0.00642731
1624.34	-0.698944	-0.0168304
1624.8	-0.000775146	0.00347748
1625.28	0.00102539	0.00641937
1625.74	-0.699463	-0.0168335
1626.2	-0.00083313	0.00347961
1626.68	0.00108643	0.00641876
1627.14	-0.699097	-0.0168335
1627.6	0.00078125	0.00347687
1628.08	0.00104065	0.00642059
1628.54	-0.698608	-0.0168457
1629	0.000918579	0.00347565
1629.48	0.000915527	0.00642365
1629.94	-0.698914	-0.0168335
1630.4	0.000939941	0.00348083
1630.88	0.00057373	0.00642426
1631.34	-0.699432	-0.0168304
1631.8	0.000848389	0.00348877
1632.28	0.000878906	0.00642365
1632.74	-0.698364	-0.0168365
1633.2	-0.000723267	0.00349396
1633.68	0.000891113	0.0064209
1634.14	-0.697754	-0.0168243
1634.6	-0.000326538	0.00349518
1635.08	-0.00032959	0.00642731
1635.54	-0.699371	-0.0168152
1636	-0.00071106	0.00349976
1636.48	-0.000402832	0.00642303
1636.94	-0.698486	-0.0168213
1637.4	0.000137329	0.0034967
1637.88	-0.000759888	0.00643188
1638.34	-0.697601	-0.0168304
1638.8	0.00027771	0.00349335
1639.28	0.000970459	0.00642273
1639.74	-0.69754	-0.0168335
1640.2	-0.000619507	0.00349945
1640.68	0.000979614	0.00641968
1641.14	-0.69754	-0.0168182
1641.6	0.000317383	0.00349915
1642.08	0.000979614	0.00642059
1642.54	-0.699341	-0.0168121
1643	2.44141e-05	0.00349915
1643.48	-0.000314331	0.00642761
1643.94	-0.69931	-0.0168152
1644.4	-0.000418091	0.003508
1644.88	0.000375366	0.00642822
1645.34	-0.699341	-0.016806
1645.8	0.000830078	0.00349579
1646.28	6.40869e-05	0.0064209
1646.74	-0.699432	-0.0168121
1647.2	-0.000476074	0.00350586
1647.68	-0.000579834	0.00643188
1648.14	-0.698334	-0.016803
1648.6	-0.000262451	0.00350494
1649.08	-0.000265503	0.00643066
1649.54	-0.699371	-0.0168091
1650	0.000628662	0.00350098
1650.48	-0.000759888	0.0064328
1650.94	-0.697937	-0.0168121
1651.4	0.00101929	0.00350159
1651.88	-0.000332642	0.00642548
1652.34	-0.697601	-0.0168091
1652.8	-0.000357056	0.00350952
1653.28	3.96729e-05	0.006427
1653.74	-0.697479	-0.0168182
1654.2	0.000231934	0.00351288
1654.68	-0.000720215	0.00642609
1655.14	-0.699341	-0.0167999
1655.6	0.000369263	0.00350525
1656.08	-0.000732422	0.00642151
1656.54	-0.697632	-0.0168152
1657	-0.000701904	0.00351929
1657.48	0.000497437	0.00642181
1657.94	-0.697418	-0.0168121
1658.4	0.000662231	0.00350891
1658.88	-0.000799561	0.00643005
1659.34	-0.699402	-0.016803
1659.8	-0.00078125	0.00351959
1660.28	0.000744629	0.00642212
1660.74	-0.698364	-0.0168182
1661.2	0.00112	0.0035141
1661.68	0.000933838	0.00641876
1662.14	-0.698364	-0.016806
1662.6	0.000302124	0.00351257
1663.08	-0.000787354	0.00642944
1663.54	-0.699127	-0.0168182
1664	-0.00012207	0.0035202
1664.48	0.000341797	0.00641632
1664.94	-0.699402	-0.016806
1665.4	0.00124512	0.00351654
1665.88	5.79834e-05	0.00642548
1666.34	-0.697662	-0.0168213
1666.8	0.000604248	0.00351837
1667.28	0.000140381	0.00642151
1667.74	-0.699188	-0.0168121
1668.2	-3.05176e-06	0.00351929
1668.68	-0.000793457	0.00642395
1669.14	-0.697998	-0.016806
1669.6	0.00111084	0.00351715
1670.08	0.00106201	0.00641388
1670.54	-0.699219	-0.016803
1671	0.000579834	0.00352386
1671.48	-0.000112915	0.00641541
1671.94	-0.698761	-0.0168121
1672.4	0.000933838	0.00351929
1672.88	0.0010498	0.00641052
1673.34	-0.697357	-0.0168091
1673.8	6.10352e-05	0.00352051
1674.28	0.00105286	0.006409
1674.74	-0.698975	-0.016806
1675.2	-0.000735474	0.00352448
1675.68	-0.00090332	0.00641968
1676.14	-0.698395	-0.0167938
1676.6	0.00112915	0.0035202
1677.08	-0.000549316	0.00641968
1677.54	-0.69754	-0.016806
1678	0.0006073	0.00352142
1678.48	0.000234985	0.00641479
1678.94	-0.698151	-0.0167999
1679.4	2.44141e-05	0.00352631
1679.88	-0.000750732	0.00641937
1680.34	-0.698883	-0.0167908
1680.8	0.000680542	0.00353119
1681.28	-0.000836182	0.00641602
1681.74	-0.698517	-0.0167938
1682.2	-0.000302124	0.00352997
1682.68	0.00104065	0.00640472
1683.14	-0.699097	-0.0167877
1683.6	0.0009765625	0.00352325
1684.08	-0.000680542	0.00641632
1684.54	-0.698578	-0.016806
1685	-0.000112915	0.00353607
1685.48	0.000265503	0.00640198
1685.94	-0.697479	-0.016806
1686.4	-0.000665283	0.0035376
1686.88	-0.000830078	0.00641418
1687.34	-0.697754	-0.016803
1687.8	-0.000283813	0.00353363
1688.28	0.000289917	0.00640442
1688.74	-0.698914	-0.0167877
1689.2	0.000808716	0.00353394
1689.68	0.00071106	0.00640656
1690.14	-0.699341	-0.0167908
1690.6	0.000973511	0.00352936
1691.08	0.000942993	0.00640167
1691.54	-0.697845	-0.0167938
1692	-7.32422e-05	0.00354126
1692.48	-0.000585937	0.00640839
1692.94	-0.697571	-0.0167816
1693.4	0.000637817	0.00353577
1693.88	0.000524902	0.0064032
1694.34	-0.697876	-0.0167969
1694.8	0.00117493	0.00353119
1695.28	0.00122375	0.0063974
1695.74	-0.699005	-0.0167877
1696.2	0.000656128	0.00353271
1696.68	-0.000790405	0.00640686
1697.14	-0.698486	-0.0167969
1697.6	0.00105591	0.00353333
1698.08	-0.000817871	0.00640625
1698.54	-0.699188	-0.0167816
1699	-0.000695801	0.00354553
1699.48	-0.000415039	0.00640778
1699.94	-0.699005	-0.0167816
1700.4	-0.000695801	0.0035437
1700.88	0.000738525	0.00639679
1701.34	-0.6987	-0.0167816
1701.8	-0.000738525	0.00354767
1702.28	0.000924683	0.00639252
1702.74	-0.698975	-0.0167877
1703.2	-0.000714111	0.00354767
1703.68	-0.000799561	0.00640472
1704.14	-0.69754	-0.0167847
1704.6	0.00119324	0.00353699
1705.08	0.000283813	0.00640137
1705.54	-0.697906	-0.0167847
1706	-0.000119019	0.00354767
1706.48	2.13623e-05	0.00639923
1706.94	-0.698425	-0.0167755
1707.4	0.0010498	0.00353851
1707.88	0.000723267	0.00639008
1708.34	-0.697632	-0.0167908
1708.8	0.0013092	0.00353943
1709.28	0.000814819	0.00639587
1709.74	-0.697632	-0.0167908
1710.2	0.00110779	0.00354004
1710.68	0.000354004	0.00638947
1711.14	-0.69812	-0.0167725
1711.6	0.00108948	0.00354156
1712.08	0.000714111	0.00638855
1712.54	-0.699463	-0.0167755
1713	-0.000628662	0.00355194
1713.48	0.00101624	0.00638702
1713.94	-0.69931	-0.0167816
1714.4	0.00114746	0.00354553
1714.88	-0.000799561	0.00639648
1715.34	-0.698273	-0.0167908
1715.8	-0.000631714	0.00355469
1716.28	-0.000332642	0.00639069
1716.74	-0.697601	-0.0167694
1717.2	0.00100708	0.0035434
1717.68	-0.000280762	0.00639374
1718.14	-0.698608	-0.0167694
1718.6	-0.000265503	0.00355804
1719.08	-0.000646973	0.0063974
1719.54	-0.698334	-0.0167847
1720	-0.000787354	0.00355713
1720.48	0.00105591	0.00638336
1720.94	-0.697815	-0.0167664
1721.4	-0.000552368	0.00355774
1721.88	-0.000830078	0.00639404
1722.34	-0.697998	-0.0167877
1722.8	-0.000808716	0.00355682
1723.28	0.00116272	0.00638153
1723.74	-0.698364	-0.0167786
1724.2	0.00101929	0.00354736
1724.68	-0.000839233	0.00639313
1725.14	-0.699463	-0.0167694
1725.6	0.000497437	0.0035498
1726.08	-0.000622559	0.0063916
1726.54	-0.69931	-0.0167633
1727	-0.000491333	0.00355743
1727.48	0.000213623	0.0063855
1727.94	-0.699402	-0.0167694
1728.4	3.05176e-05	0.0035614
1728.88	-0.000698853	0.00638428
1729.34	-0.698212	-0.0167816
1729.8	-0.000772095	0.00356323
1730.28	-0.000344849	0.00638458
1730.74	-0.699463	-0.0167633
1731.2	-0.000488281	0.00355957
1731.68	-0.000735474	0.0063858
1732.14	-0.69754	-0.0167755
1732.6	0.00119324	0.00355347
1733.08	-0.00101013	0.00638275
1733.54	-0.697937	-0.0167694
1734	-0.000732422	0.00356537
1734.48	-0.000814819	0.00638428
1734.94	-0.698456	-0.0167572
1735.4	4.27246e-05	0.0035611
1735.88	0.00102539	0.00637726
1736.34	-0.697937	-0.0167694
1736.8	0.0009552	0.00355408
1737.28	-0.000750732	0.00638184
1737.74	-0.698578	-0.0167755
1738.2	-0.000918579	0.00356628
1738.68	-0.000878906	0.00638428
1739.14	-0.699371	-0.0167664
1739.6	0.000982666	0.00355469
1740.08	-0.000830078	0.00638275
1740.54	-0.69931	-0.0167572
1741	-0.000323486	0.00356415
1741.48	0.000756836	0.00637085
1741.94	-0.699158	-0.0167603
1742.4	0.00121765	0.00355865
1742.88	-0.000354004	0.00638123
1743.34	-0.69931	-0.0167603
1743.8	8.8501e-05	0.00356781
1744.28	0.000894165	0.00637238
1744.74	-0.697479	-0.0167755
1745.2	0.00103455	0.00355896
1745.68	-0.000531006	0.00638214
1746.14	-0.697632	-0.0167664
1746.6	-0.000772095	0.00357178
1747.08	0.00107117	0.0063678
1747.54	-0.699402	-0.0167572
1748	4.57764e-05	0.00357147
1748.48	0.000973511	0.00636932
1748.94	-0.697632	-0.0167664
1749.4	0.00114136	0.00356262
1749.88	0.000775146	0.00636841
1750.34	-0.698212	-0.0167664
1750.8	0.00083313	0.00356262
1751.28	-0.000726318	0.00637451
1751.74	-0.697754	-0.0167694
1752.2	0.001171875	0.00356323
1752.68	0.000543213	0.006362
1753.14	-0.697479	-0.0167694
1753.6	0.00107422	0.00356445
1754.08	-0.000811768	0.00637512
1754.54	-0.698181	-0.0167664
1755	-0.000445557	0.00357574
1755.48	0.00072937	0.00636597
1755.94	-0.698639	-0.0167572
1756.4	-0.00020752	0.00357086
1756.88	-0.00039978	0.00636566
1757.34	-0.698914	-0.016745
1757.8	0.000686646	0.00356445
1758.28	0.000582886	0.00635986
1758.74	-0.697418	-0.0167603
1759.2	0.00055542	0.0035672
1759.68	-0.000744629	0.0063678
1760.14	-0.699432	-0.0167419
1760.6	0.000213623	0.003573
1761.08	-0.00062561	0.00636993
1761.54	-0.698669	-0.0167603
1762	0.000256348	0.00357819
1762.48	0.00116577	0.00635864
1762.94	-0.69751	-0.0167603
1763.4	0.000234985	0.00357544
1763.88	-0.000332642	0.00636688
1764.34	-0.698456	-0.0167633
1764.8	-0.000363159	0.00357544
1765.28	-0.000717163	0.00636688
1765.74	-0.69751	-0.0167603
1766.2	0.000961304	0.00356934
1766.68	-0.000234985	0.00636047
1767.14	-0.698029	-0.016748
1767.6	-0.000637817	0.00358246
1768.08	0.000143433	0.00636108
1768.54	-0.698334	-0.016745
1769	-0.000650024	0.00358307
1769.48	0.00102539	0.00635437
1769.94	-0.697845	-0.0167419
1770.4	-6.71387e-05	0.00357727
1770.88	0.000906372	0.00635345
1771.34	-0.698639	-0.0167572
1771.8	0.000549316	0.00357208
1772.28	-0.000979614	0.00636353
1772.74	-0.698792	-0.0167542
1773.2	-0.000546265	0.00358398
1773.68	0.000735474	0.00635406
1774.14	-0.698608	-0.0167389
1774.6	-0.000698853	0.00358551
1775.08	-0.000878906	0.00636139
1775.54	-0.698059	-0.0167572
1776	0.000531006	0.00357941
1776.48	0.000994873	0.00635254
1776.94	-0.698944	-0.0167358
1777.4	-0.000463867	0.00357971
1777.88	0.000405884	0.00634979
1778.34	-0.697906	-0.0167542
1778.8	-0.000811768	0.00358795
1779.28	-0.000741577	0.00635712
1779.74	-0.698792	-0.0167511
1780.2	-0.000390625	0.00358765
1780.68	0.000671387	0.00634796
1781.14	-0.699371	-0.0167389
1781.6	-0.000485229	0.00358154
1782.08	-0.000836182	0.00635162
1782.54	-0.698242	-0.016748
1783	-0.000234985	0.00358429
1783.48	0.000863647	0.0063446
1783.94	-0.698761	-0.0167572
1784.4	-0.000741577	0.00359131
1784.88	0.000436401	0.0063446
1785.34	-0.697968	-0.0167511
1785.8	-0.000738525	0.00359283
1786.28	-0.00032959	0.00634796
1786.74	-0.698334	-0.016748
1787.2	0.000210571	0.00358856
1787.68	0.000524902	0.00634796
1788.14	-0.698029	-0.0167511
1788.6	0.000192261	0.00358917
1789.08	-0.000817871	0.00635284
1789.54	-0.69928	-0.0167328
1790	-0.000772095	0.00359314
1790.48	-0.000518799	0.00634979
1790.94	-0.697998	-0.0167267
1791.4	0.0009765625	0.00358917
1791.88	0.00119629	0.00634125
1792.34	-0.697815	-0.0167511
1792.8	0.000906372	0.00358276
1793.28	-0.000747681	0.00634918
1793.74	-0.697968	-0.0167328
1794.2	-0.000775146	0.00359528
1794.68	0.000601196	0.00633881
1795.14	-0.698334	-0.0167267
1795.6	0.000588989	0.00358459
1796.08	-0.00020752	0.00634064
1796.54	-0.698425	-0.0167419
1797	-0.000482178	0.00359253
1797.48	-0.000665283	0.00634827
1797.94	-0.698578	-0.0167297
1798.4	0.00083313	0.00358917
1798.88	1.83105e-05	0.00634003
1799.34	-0.699585	-0.0167267
1799.8	-0.000576782	0.00359467
1800.28	6.10352e-05	0.00634338
1800.74	-0.698822	-0.0167236
1801.2	0.00027771	0.00358643
1801.68	0.000717163	0.00634338
1802.14	-0.698242	-0.0167389
1802.6	-0.000512695	0.0035968
1803.08	-0.00015564	0.00634399
1803.54	-0.699066	-0.0167236
1804	0.00105591	0.00358856
1804.48	-0.000762939	0.00634247
1804.94	-0.699371	-0.0167267
1805.4	0.00111084	0.00358948
1805.88	0.0010437	0.00633392
1806.34	-0.698273	-0.0167389
1806.8	-0.000158691	0.00359619
1807.28	0.000827026	0.00633575
1807.74	-0.699097	-0.0167358
1808.2	-6.10352e-05	0.00359528
1808.68	0.00101013	0.0063324
1809.14	-0.69812	-0.0167358
1809.6	0.000109863	0.00359985
1810.08	-0.000839233	0.00634216
1810.54	-0.699432	-0.0167267
1811	0.000189209	0.00359344
1811.48	0.00112305	0.00633301
1811.94	-0.69754	-0.0167358
1812.4	0.00100708	0.00359406
1812.88	0.00108948	0.00632935
1813.34	-0.697662	-0.0167206
1813.8	-0.000704956	0.00360321
1814.28	0.000509644	0.00632935
1814.74	-0.699127	-0.0167267
1815.2	0.000970459	0.00359558
1815.68	-0.000448608	0.00634125
1816.14	-0.697601	-0.0167267
1816.6	-0.000192261	0.00360382
1817.08	0.000946045	0.00633118
1817.54	-0.699127	-0.0167328
1818	-0.000238037	0.00360229
1818.48	0.000695801	0.00632874
1818.94	-0.698456	-0.0167389
1819.4	-0.000698853	0.00360901
1819.88	0.000158691	0.00632935
1820.34	-0.698364	-0.0167389
1820.8	0.00129395	0.00359894
1821.28	-0.000524902	0.00633911
1821.74	-0.698608	-0.0167206
1822.2	-0.000506592	0.00361023
1822.68	-0.000802612	0.00633636
1823.14	-0.697937	-0.0167206
1823.6	2.44141e-05	0.00360413
1824.08	0.000695801	0.00633087
1824.54	-0.697479	-0.0167297
1825	0.000152588	0.00360016
1825.48	-0.000332642	0.00633636
1825.94	-0.698517	-0.0167328
1826.4	0.000891113	0.00359985
1826.88	0.00101318	0.00632294
1827.34	-0.699371	-0.0167206
1827.8	-0.000457764	0.00360901
1828.28	0.000720215	0.00632111
1828.74	-0.698273	-0.0167328
1829.2	-9.15527e-05	0.00361176
1829.68	-0.00020752	0.00632568
1830.14	-0.697906	-0.0167297
1830.6	0.000543213	0.00360168
1831.08	-0.000997925	0.00633026
1831.54	-0.697968	-0.0167389
1832	0.00110168	0.00360352
1832.48	0.000595093	0.00632385
1832.94	-0.699463	-0.0167114
1833.4	0.000396729	0.00360504
1833.88	-0.000561523	0.00632965
1834.34	-0.699402	-0.0167145
1834.8	-0.000408936	0.00361511
1835.28	0.000991821	0.00632263
1835.74	-0.698242	-0.0167145
1836.2	-0.000753784	0.00361328
1836.68	0.0009765625	0.00631927
1837.14	-0.697571	-0.0167267
1837.6	-0.000631714	0.00361664
1838.08	0.00093689	0.00631744
1838.54	-0.69751	-0.0167206
1839	0.00108337	0.00360718
1839.48	0.000906372	0.00631622
1839.94	-0.698547	-0.0167084
1840.4	-0.000836182	0.00361786
1840.88	-0.000756836	0.00632202
1841.34	-0.698578	-0.0167053
1841.8	0.000650024	0.00360779
1842.28	-0.000680542	0.00632446
1842.74	-0.697754	-0.0167297
1843.2	0.000427246	0.00360931
1843.68	-7.32422e-05	0.00631805
1844.14	-0.69754	-0.0167145
1844.6	0.000863647	0.00360931
1845.08	0.000561523	0.00631348
1845.54	-0.697876	-0.0167206
1846	0.0011261	0.00361115
1846.48	0.000540161	0.00631134
1846.94	-0.698608	-0.0167175
1847.4	0.000854492	0.00361298
1847.88	-8.23975e-05	0.00631561
1848.34	-0.69928	-0.0166962
1848.8	0.000790405	0.00361115
1849.28	0.000765991	0.00631042
1849.74	-0.697723	-0.0167053
1850.2	-9.76562e-05	0.00361298
1850.68	0.000509644	0.00631897
1851.14	-0.697906	-0.0167084
1851.6	-0.000524902	0.00362427
1852.08	0.000860596	0.00631195
1852.54	-0.698303	-0.0167023
1853	-0.000305176	0.00362366
1853.48	0.000973511	0.00632599
1853.94	-0.698425	-0.0167358
1854.4	0.00107117	0.00361267
1854.88	-0.000778198	0.00633362
1855.34	-0.698181	-0.0167725
1855.8	0.00119324	0.00361359
1856.28	-0.000527954	0.00634521
1856.74	-0.698334	-0.0167633
1857.2	-0.000637817	0.00362
1857.68	-0.00050354	0.00633728
1858.14	-0.697815	-0.0167572
1858.6	-0.000311279	0.00362183
1859.08	-0.000769043	0.00634003
1859.54	-0.697479	-0.0167633
1860	-0.000466919	0.00362518
1860.48	-0.000909424	0.00633514
1860.94	-0.698669	-0.0167664
1861.4	0.000738525	0.00361206
1861.88	0.00102539	0.00632721
1862.34	-0.698334	-0.0167786
1862.8	-0.000747681	0.00362427
1863.28	-0.000735474	0.00633789
1863.74	-0.699188	-0.0167664
1864.2	0.000662231	0.00361389
1864.68	0.00109253	0.00632568
1865.14	-0.69751	-0.0167694
1865.6	0.000979614	0.00361969
1866.08	0.000463867	0.00632538
1866.54	-0.698975	-0.0167603
1867	1.2207e-05	0.00361816
1867.48	0.00102539	0.00632568
1867.94	-0.69751	-0.0167633
1868.4	1.52588e-05	0.00362396
1868.88	-0.000344849	0.00633484
1869.34	-0.697876	-0.0167755
1869.8	-0.000588989	0.00362061
1870.28	-0.000946045	0.00633148
1870.74	-0.69812	-0.0167603
1871.2	0.000595093	0.00361847
1871.68	0.0010498	0.00632263
1872.14	-0.699402	-0.0167633
1872.6	9.76562e-05	0.00362457
1873.08	-0.000805664	0.00633301
1873.54	-0.698944	-0.016748
1874	0.000796509	0.00361816
1874.48	-0.000653076	0.00632874
1874.94	-0.699371	-0.0167633
1875.4	-0.0003479	0.00362488
1875.88	-0.000784302	0.00633423
1876.34	-0.699341	-0.0167542
1876.8	-0.000131226	0.00362915
1877.28	0.000213623	0.0063266
1877.74	-0.697601	-0.0167633
1878.2	0.0010437	0.00362152
1878.68	0.000918579	0.00632233
1879.14	-0.699097	-0.0167633
1879.6	-0.000894165	0.00363037
1880.08	-0.000497437	0.00632263
1880.54	-0.698883	-0.0167542
1881	0.00106812	0.00362366
1881.48	-0.000732422	0.006328125
1881.94	-0.699432	-0.0167542
1882.4	0.00111694	0.00362427
1882.88	0.000115967	0.00632111
1883.34	-0.697723	-0.0167633
1883.8	0.00104065	0.00362518
1884.28	0.000854492	0.00631592
1884.74	-0.699432	-0.0167511
1885.2	0.000460815	0.00362488
1885.68	0.000204468	0.00631409
1886.14	-0.698547	-0.0167603
1886.6	-0.000683594	0.003638
1887.08	-0.000598145	0.00632416
1887.54	-0.69751	-0.016745
1888	0.000521851	0.00363068
1888.48	-0.000125122	0.00632355
1888.94	-0.697968	-0.0167664
1889.4	0.000106812	0.00362671
1889.88	0.000140381	0.00632446
1890.34	-0.699249	-0.0167419
1890.8	0.000830078	0.00362854
1891.28	0.00105286	0.00631317
1891.74	-0.697968	-0.016745
1892.2	-0.000799561	0.00363861
1892.68	-0.000662231	0.00632629
1893.14	-0.699005	-0.0167542
1893.6	-0.000744629	0.00364166
1894.08	-0.000778198	0.00632324
1894.54	-0.698395	-0.0167633
1895	-0.000717163	0.00363586
1895.48	0.000146484	0.00631592
1895.94	-0.69931	-0.0167419
1896.4	-0.000616455	0.00364014
1896.88	0.000714111	0.00631561
1897.34	-0.699554	-0.016748
1897.8	0.000527954	0.0036322
1898.28	-0.000778198	0.00632294
1898.74	-0.699127	-0.0167358
1899.2	-0.000515747	0.00363495
1899.68	0.00118103	0.00631134
1900.14	-0.697754	-0.0167542
1900.6	0.00108948	0.00363342
1901.08	-0.000201416	0.00631561
1901.54	-0.699371	-0.0167358
1902	-0.000765991	0.0036438
1902.48	0.00101013	0.00630951
1902.94	-0.697662	-0.0167511
1903.4	-0.00050354	0.00364563
1903.88	0.000808716	0.00631042
1904.34	-0.697876	-0.0167511
1904.8	0.000619507	0.00364288
1905.28	0.000634766	0.006315
1905.74	-0.698181	-0.0167511
1906.2	0.000497437	0.00363617
1906.68	0.000680542	0.0063092
1907.14	-0.697845	-0.0167511
1907.6	-0.000717163	0.00364655
1908.08	0.000643921	0.00630981
1908.54	-0.69751	-0.016745
1909	0.00122681	0.00363678
1909.48	-0.000234985	0.00630585
1909.94	-0.698425	-0.016748
1910.4	0.000790405	0.00363525
1910.88	0.000863647	0.00630463
1911.34	-0.699066	-0.0167267
1911.8	-0.000732422	0.00364594
1912.28	0.00055542	0.00630463
1912.74	-0.697632	-0.016748
1913.2	-0.000726318	0.00364777
1913.68	-0.000241089	0.00630859
1914.14	-0.698242	-0.016748
1914.6	0.000656128	0.00364716
1915.08	-0.000506592	0.00631561
1915.54	-0.698425	-0.0167358
1916	-0.000720215	0.00365082
1916.48	-0.000750732	0.00631531
1916.94	-0.698822	-0.0167511
1917.4	0.00111389	0.00364136
1917.88	0.0010437	0.0063028
1918.34	-0.69809	-0.0167389
1918.8	0.000231934	0.00364349
1919.28	-0.000500488	0.00630829
1919.74	-0.698273	-0.016748
1920.2	0.00106201	0.00364166
1920.68	-0.000192261	0.00630524
1921.14	-0.699158	-0.0167328
1921.6	-0.000158691	0.00365234
1922.08	-0.000164795	0.00630981
1922.54	-0.698578	-0.0167297
1923	0.000933838	0.00364288
1923.48	-0.00022583	0.00630585
1923.94	-0.697571	-0.016745
1924.4	-0.000878906	0.00365356
1924.88	0.000894165	0.00629791
1925.34	-0.69754	-0.0167358
1925.8	0.00109863	0.00364502
1926.28	0.00090332	0.00629944
1926.74	-0.699585	-0.0167328
1927.2	-0.000738525	0.00365479
1927.68	-0.000622559	0.00630585
1928.14	-0.698669	-0.0167358
1928.6	0.00110779	0.00364655
1929.08	-0.000732422	0.00631104
1929.54	-0.697815	-0.0167358
1930	0.000714111	0.00364624
1930.48	-0.000787354	0.00630615
1930.94	-0.697754	-0.016745
1931.4	-0.000634766	0.0036557
1931.88	0.000750732	0.00629578
1932.34	-0.699432	-0.0167267
1932.8	0.000817871	0.0036496
1933.28	-0.00050354	0.00630341
1933.74	-0.69931	-0.0167267
1934.2	0.00113831	0.00365234
1934.68	-0.00090332	0.00630524
1935.14	-0.69931	-0.0167297
1935.6	0.000296021	0.00365631
1936.08	0.000775146	0.00629272
1936.54	-0.699402	-0.0167206
1937	-0.000717163	0.00366089
1937.48	0.00103149	0.00629364
1937.94	-0.697754	-0.0167328
1938.4	-0.000256348	0.0036554
1938.88	0.00110779	0.0062912
1939.34	-0.699371	-0.0167206
1939.8	-0.000402832	0.00366089
1940.28	0.000531006	0.00629547
1940.74	-0.697571	-0.0167297
1941.2	0.00103455	0.00365479
1941.68	0.000268555	0.00629181
1942.14	-0.699127	-0.0167328
1942.6	0.00039978	0.00365387
1943.08	0.000106812	0.00629272
1943.54	-0.697876	-0.0167297
1944	0.000192261	0.00365295
1944.48	-0.000177002	0.00630096
1944.94	-0.697784	-0.0167358
1945.4	7.01904e-05	0.00366302
1945.88	0.00102844	0.00628906
1946.34	-0.699432	-0.0167145
1946.8	0.0006073	0.00365845
1947.28	0.000686646	0.00629272
1947.74	-0.699066	-0.0167145
1948.2	-0.000521851	0.00366638
1948.68	-0.000793457	0.00629486
1949.14	-0.698975	-0.0167206
1949.6	8.54492e-05	0.00366333
1950.08	-0.000457764	0.00629364
1950.54	-0.699432	-0.0167114
1951	0.000921631	0.0036554
1951.48	-0.000582886	0.006297
1951.94	-0.69931	-0.0167145
1952.4	-0.000784302	0.00366791
1952.88	0.000439453	0.00629181
1953.34	-0.699371	-0.0167175
1953.8	0.00117798	0.00365692
1954.28	0.000857544	0.00628387
1954.74	-0.698883	-0.0167145
1955.2	0.000985718	0.00365753
1955.68	-3.05176e-06	0.00629395
1956.14	-0.697388	-0.0167175
1956.6	-0.000653076	0.00366882
1957.08	-0.000106812	0.00629303
1957.54	-0.698578	-0.0167236
1958	-0.000387573	0.00366669
1958.48	-0.000796509	0.00629547
1958.94	-0.699432	-0.0167114
1959.4	0.000488281	0.0036673
1959.88	-0.000738525	0.00629395
1960.34	-0.699127	-0.0167023
1960.8	0.000942993	0.0036618
1961.28	-0.00067749	0.00629211
1961.74	-0.698242	-0.0167236
1962.2	-0.000247192	0.00366821
1962.68	0.000427246	0.0062854
1963.14	-0.699341	-0.0167053
1963.6	0.000543213	0.00367126
1964.08	0.000375366	0.00627991
1964.54	-0.699371	-0.0167114
1965	0.000241089	0.00366547
1965.48	0.00102539	0.0062793
1965.94	-0.69809	-0.0167053
1966.4	0.000744629	0.00366486
1966.88	0.000585937	0.00628326
1967.34	-0.698761	-0.0167023
1967.8	-7.01904e-05	0.00367584
1968.28	0.0011322	0.00628021
1968.74	-0.697662	-0.0167114
1969.2	0.00101929	0.00366577
1969.68	0.00100403	0.00627838
1970.14	-0.699463	-0.0167053
1970.6	-0.000775146	0.00367767
1971.08	-0.000363159	0.00628265
1971.54	-0.699371	-0.0167084
1972	-0.00067749	0.00367584
1972.48	0.000949097	0.00627625
1972.94	-0.699219	-0.0167114
1973.4	0.00124207	0.00366791
1973.88	-0.000762939	0.00628571
1974.34	-0.698486	-0.0167145
1974.8	-0.000332642	0.00367737
1975.28	-0.000357056	0.00628662
1975.74	-0.69812	-0.0167023
1976.2	0.000860596	0.00366852
1976.68	0.000366211	0.00628174
1977.14	-0.69809	-0.0167145
1977.6	0	0.00368195
1978.08	0.000320435	0.0062851
1978.54	-0.698151	-0.0167175
1979	0.000436401	0.00367767
1979.48	-0.000323486	0.00628113
1979.94	-0.697876	-0.0167023
1980.4	-0.000656128	0.00368225
1980.88	-0.0006073	0.00628357
1981.34	-0.698059	-0.0166992
1981.8	0.000445557	0.00367676
1982.28	-0.000524902	0.00628296
1982.74	-0.697662	-0.0167084
1983.2	0.000933838	0.00367676
1983.68	-7.32422e-05	0.00627197
1984.14	-0.697906	-0.0167023
1984.6	-0.000668335	0.0036792
1985.08	-0.000616455	0.00627747
1985.54	-0.699402	-0.0166962
1986	0.000744629	0.00367157
1986.48	-0.000613403	0.00627808
1986.94	-0.699219	-0.0167023
1987.4	-0.000708008	0.00368408
1987.88	0.00107117	0.00626801
1988.34	-0.69754	-0.0167023
1988.8	0.000445557	0.00367462
1989.28	0.000970459	0.00627014
1989.74	-0.698273	-0.0167084
1990.2	-0.000741577	0.00368439
1990.68	-0.000762939	0.00627777
1991.14	-0.697479	-0.0167053
1991.6	-0.000671387	0.00368347
1992.08	-0.000772095	0.00627838
1992.54	-0.69754	-0.0166992
1993	0.000469971	0.00367401
1993.48	0.0006073	0.0062738
1993.94	-0.69754	-0.0166962
1994.4	-0.000628662	0.00368805
1994.88	0.000653076	0.00626648
1995.34	-0.698334	-0.016687
1995.8	-6.40869e-05	0.00368469
1996.28	-0.000650024	0.00627106
1996.74	-0.69931	-0.016687
1997.2	-0.000579834	0.00368164
1997.68	0.00112305	0.00626556
1998.14	-0.697601	-0.0166962
1998.6	0.000674438	0.00367981
1999.08	0.000881958	0.00626648
1999.54	-0.69873	-0.016684
2000	0.000415039	0.00367859
2000.48	-0.000445557	0.0062738
2000.94	-0.698212	-0.0167084
2001.4	-0.000283813	0.00368469
2001.88	0.000726318	0.0062616
2002.34	-0.6987	-0.016684
2002.8	-0.00067749	0.00369232
2003.28	0.000985718	0.00626709
2003.74	-0.697601	-0.0166931
2004.2	-0.00071106	0.00368896
2004.68	-7.01904e-05	0.00626892
2005.14	-0.69873	-0.0167084
2005.6	-0.000695801	0.00368988
2006.08	0.000112915	0.00626312
2006.54	-0.697693	-0.0166931
2007	-0.000775146	0.00369446
2007.48	-0.000891113	0.00627899
2007.94	-0.698151	-0.0167053
2008.4	0.000112915	0.00368561
2008.88	-0.000195313	0.00627594
2009.34	-0.69754	-0.0167023
2009.8	-0.000601196	0.0036908
2010.28	0.000579834	0.00626831
2010.74	-0.698547	-0.0167114
2011.2	-0.000787354	0.00369202
2011.68	0.0009765625	0.0062616
2012.14	-0.699432	-0.0166931
2012.6	0.000485229	0.00368256
2013.08	0.00100098	0.00626251
2013.54	-0.69751	-0.0167145
2014	-0.000100708	0.00369324
2014.48	-0.000848389	0.00627106
2014.94	-0.697449	-0.0166962
2015.4	-0.000759888	0.00369598
2015.88	-0.000460815	0.00626617
2016.34	-0.697479	-0.0167023
2016.8	0.000662231	0.00369293
2017.28	-0.000842285	0.00626617
2017.74	-0.699127	-0.0167053
2018.2	-0.000500488	0.00369293
2018.68	-0.000683594	0.00626648
2019.14	-0.697632	-0.0167084
2019.6	-0.000686646	0.00369507
2020.08	-0.000527954	0.00626434
2020.54	-0.698059	-0.016687
2021	0.000497437	0.00369171
2021.48	-0.000720215	0.00626953
2021.94	-0.697754	-0.0167053
2022.4	0.0012207	0.00368835
2022.88	0.00093689	0.00625824
2023.34	-0.697479	-0.0167084
2023.8	0.000482178	0.00369232
2024.28	0.00017395	0.00625824
2024.74	-0.698181	-0.0166931
2025.2	-0.000775146	0.00369843
2025.68	0.000576782	0.00626129
2026.14	-0.69754	-0.0166992
2026.6	0.00116577	0.00369202
2027.08	0.00093689	0.00625977
2027.54	-0.697632	-0.0167084
2028	0.000805664	0.00368774
2028.48	0.00107117	0.00625305
2028.94	-0.69931	-0.016687
2029.4	-0.000134277	0.00369781
2029.88	-0.000796509	0.00626312
2030.34	-0.699249	-0.016687
2030.8	0.0006073	0.00368988
2031.28	0.000900269	0.00625458
2031.74	-0.69809	-0.0167053
2032.2	0.000839233	0.00369812
2032.68	-0.00062561	0.00626282
2033.14	-0.699158	-0.0166962
2033.6	-0.000695801	0.00370453
2034.08	-0.000820923	0.00626007
2034.54	-0.699188	-0.0166779
2035	5.49316e-05	0.00370056
2035.48	-0.000808716	0.00626068
2035.94	-0.697571	-0.0166962
2036.4	0.000750732	0.0036911
2036.88	-0.000186157	0.00625
2037.34	-0.69754	-0.0166901
2037.8	-0.000222778	0.0037027
2038.28	-0.000463867	0.00625824
2038.74	-0.698425	-0.0166992
2039.2	0.00108337	0.00369476
2039.68	0.000970459	0.00624756
2040.14	-0.699219	-0.0166901
2040.6	-0.000747681	0.00370392
2041.08	-0.00022583	0.00625153
2041.54	-0.698517	-0.0166779
2042	0.00116272	0.00369659
2042.48	-0.000872803	0.00625488
2042.94	-0.697632	-0.0166901
2043.4	-0.000164795	0.00370453
2043.88	0.000756836	0.00624878
2044.34	-0.697998	-0.0166901
2044.8	0.000949097	0.00369537
2045.28	-0.000482178	0.00625488
2045.74	-0.699249	-0.0166748
2046.2	0.000421143	0.00370575
2046.68	-0.000631714	0.00624878
2047.14	-0.69751	-0.016687
2047.6	0.000967407	0.00369812
2048.08	-0.000219727	0.00625336
2048.54	-0.697998	-0.016687
2049	-0.000268555	0.00370209
2049.48	0.00103455	0.00624237
2049.94	-0.698914	-0.0166718
2050.4	0.00108337	0.00369812
2050.88	0.00103149	0.00624451
2051.34	-0.699371	-0.0166809
2051.8	-0.000326538	0.00371094
2052.28	0.000744629	0.00623993
2052.74	-0.698914	-0.016684
2053.2	0.00105286	0.00369904
2053.68	0.000210571	0.00624786
2054.14	-0.69931	-0.0166748
2054.6	0.000253296	0.00370697
2055.08	-0.000747681	0.00625183
2055.54	-0.697632	-0.0166931
2056	4.88281e-05	0.00370514
2056.48	0.000564575	0.00623932
2056.94	-0.69873	-0.0166687
2057.4	-0.000830078	0.00371094
2057.88	0.000375366	0.0062381
2058.34	-0.698578	-0.016684
2058.8	0.000442505	0.00370819
2059.28	-0.000708008	0.00625
2059.74	-0.698456	-0.016684
2060.2	-0.000640869	0.00371124
2060.68	0.000210571	0.00623993
2061.14	-0.699341	-0.0166656
2061.6	7.32422e-05	0.0037027
2062.08	0.000628662	0.00624634
2062.54	-0.697601	-0.0166809
2063	-0.000799561	0.00371399
2063.48	-0.000790405	0.00624664
2063.94	-0.698547	-0.0166687
2064.4	-0.000338745	0.00370972
2064.88	0.00100708	0.00623749
2065.34	-0.698273	-0.0166718
2065.8	0.000674438	0.00370758
2066.28	5.18799e-05	0.00624329
2066.74	-0.698181	-0.0166809
2067.2	0.00122986	0.00370728
2067.68	-0.000930786	0.00624451
2068.14	-0.697754	-0.0166718
2068.6	-0.000747681	0.00371887
2069.08	0.000256348	0.00623901
2069.54	-0.698334	-0.0166626
2070	-0.000750732	0.00371796
2070.48	-0.000262451	0.00624268
2070.94	-0.697968	-0.0166656
2071.4	0.000421143	0.0037088
2071.88	0.000195313	0.0062323
2072.34	-0.698608	-0.0166748
2072.8	0.000543213	0.00370697
2073.28	0.00105286	0.00623169
2073.74	-0.699432	-0.0166595
2074.2	0.000112915	0.00371552
2074.68	-0.00032959	0.00624451
2075.14	-0.697937	-0.0166595
2075.6	0.00103455	0.00370789
2076.08	0.00050354	0.00623291
2076.54	-0.697845	-0.0166779
2077	-0.000906372	0.00371948
2077.48	0.00071106	0.00623016
2077.94	-0.697601	-0.0166687
2078.4	0.000180054	0.00371216
2078.88	-0.00045166	0.00623749
2079.34	-0.697906	-0.0166748
2079.8	-0.000372314	0.00371674
2080.28	-0.000326538	0.00623993
2080.74	-0.69928	-0.0166595
2081.2	0.000247192	0.00371155
2081.68	-0.000540161	0.00624329
2082.14	-0.697571	-0.0166656
2082.6	0.000772095	0.00371124
2083.08	-0.000448608	0.00623871
2083.54	-0.697815	-0.0166748
2084	-0.000668335	0.00372375
2084.48	0.000708008	0.00623444
2084.94	-0.698822	-0.0166748
2085.4	0.00083313	0.00371582
2085.88	-0.000805664	0.00624146
2086.34	-0.699402	-0.0166504
2086.8	7.32422e-05	0.00371277
2087.28	-0.000738525	0.00623291
2087.74	-0.69754	-0.0166718
2088.2	0.000619507	0.0037149
2088.68	-0.000866699	0.0062381
2089.14	-0.697662	-0.0166565
2089.6	-0.000570679	0.00372589
2090.08	0.000985718	0.00622528
2090.54	-0.697571	-0.0166626
2091	0.000372314	0.00372101
2091.48	-0.000411987	0.00623199
2091.94	-0.699463	-0.0166504
2092.4	0.000204468	0.00372559
2092.88	3.35693e-05	0.00623291
2093.34	-0.699341	-0.0166595
2093.8	3.05176e-06	0.00372467
2094.28	0.000408936	0.00622925
2094.74	-0.69928	-0.0166504
2095.2	0.0010437	0.00371735
2095.68	0.000320435	0.00622589
2096.14	-0.698761	-0.0166656
2096.6	-0.000332642	0.00371887
2097.08	0.000695801	0.00622986
2097.54	-0.698792	-0.0166656
2098	0.000671387	0.00372131
2098.48	-0.000836182	0.00623169
2098.94	-0.699402	-0.0166504
2099.4	-0.000167847	0.00372375
2099.88	0.000402832	0.0062262
2100.34	-0.698486	-0.0166504
2100.8	-0.000430298	0.00372467
2101.28	-0.000747681	0.00622955
2101.74	-0.699402	-0.0166473
2102.2	-0.000820923	0.00373138
2102.68	0.000265503	0.00622742
2103.14	-0.697662	-0.0166565
2103.6	-0.000747681	0.00373138
2104.08	0.00101318	0.00621948
2104.54	-0.699402	-0.0166565
2105	0.000180054	0.00372803
2105.48	0.000692749	0.00621826
2105.94	-0.698578	-0.0166473
2106.4	0.00119934	0.00372131
2106.88	-0.000927734	0.00622742
2107.34	-0.697601	-0.0166595
2107.8	0.000280762	0.00372406
2108.28	0.00085144	0.00621948
2108.74	-0.699219	-0.0166443
2109.2	0.000317383	0.00372467
2109.68	0.000189209	0.00622253
2110.14	-0.69754	-0.0166626
2110.6	0.000894165	0.00372223
2111.08	3.05176e-06	0.00622314
2111.54	-0.697815	-0.0166473
2112	-0.000100708	0.0037262
2112.48	0.000582886	0.00621979
2112.94	-0.698242	-0.0166443
2113.4	0.00090332	0.00372498
2113.88	-0.000463867	0.00622437
2114.34	-0.69812	-0.0166382
2114.8	0.0011261	0.00372467
2115.28	-0.000793457	0.00622589
2115.74	-0.698944	-0.0166412
2116.2	0.00119629	0.00372711
2116.68	-4.27246e-05	0.00621338
2117.14	-0.69812	-0.0166443
2117.6	-0.000177002	0.00372955
2118.08	0.00109253	0.00621185
2118.54	-0.6987	-0.0166351
2119	-0.000814819	0.00373535
2119.48	0.00106812	0.00621216
2119.94	-0.699402	-0.0166412
2120.4	-0.000427246	0.00373688
2120.88	0.00072937	0.00621216
2121.34	-0.698975	-0.0166382
2121.8	-0.000119019	0.00373871
2122.28	0.00112305	0.0062146
2122.74	-0.697876	-0.0166443
2123.2	-0.000604248	0.00373627
2123.68	-0.000402832	0.00622223
2124.14	-0.699097	-0.0166534
2124.6	-0.000704956	0.00373871
2125.08	-0.00067749	0.00622223
2125.54	-0.699432	-0.0166412
2126	0.000354004	0.00372894
2126.48	-6.40869e-05	0.00622284
2126.94	-0.698395	-0.0166443
2127.4	-3.66211e-05	0.00373901
2127.88	0.000906372	0.00621216
2128.34	-0.697449	-0.0166443
2128.8	-0.000531006	0.00373718
2129.28	0.00071106	0.00621063
2129.74	-0.699402	-0.0166382
2130.2	0.00114746	0.00372955
2130.68	-0.000485229	0.00621307
2131.14	-0.697876	-0.0166504
2131.6	-0.000686646	0.00374359
2132.08	-0.000875854	0.00621735
2132.54	-0.698303	-0.0166351
2133	0.000561523	0.00373718
2133.48	0.000323486	0.0062088
2133.94	-0.697418	-0.0166443
2134.4	-0.000326538	0.0037381
2134.88	0.00105286	0.00620697
2135.34	-0.699249	-0.0166321
2135.8	0.00102539	0.00373627
2136.28	0.00101624	0.00620636
2136.74	-0.69931	-0.0166321
2137.2	-6.10352e-06	0.00374237
2137.68	0.00101929	0.00620758
2138.14	-0.697906	-0.0166473
2138.6	-0.000271606	0.0037381
2139.08	0.000146484	0.00621246
2139.54	-0.699341	-0.0166412
2140	0.00109253	0.00373322
2140.48	-0.000469971	0.00621033
2140.94	-0.698517	-0.0166443
2141.4	0.00108337	0.00373352
2141.88	0.000497437	0.00621216
2142.34	-0.697723	-0.0166443
2142.8	0.000915527	0.00373413
2143.28	-0.000350952	0.00621429
2143.74	-0.6987	-0.016626
2144.2	0.000283813	0.00374268
2144.68	0.00102844	0.00620239
2145.14	-0.69809	-0.0166321
2145.6	0.00109863	0.00373932
2146.08	0.000119019	0.00620178
2146.54	-0.699127	-0.0166351
2147	0.000961304	0.00373901
2147.48	0.00017395	0.00620819
2147.94	-0.697571	-0.0166382
2148.4	-0.000701904	0.00374695
2148.88	0.000970459	0.00620148
2149.34	-0.698578	-0.0166199
2149.8	0.000619507	0.00374329
2150.28	-0.000823975	0.00621033
2150.74	-0.69812	-0.016626
2151.2	0.000527954	0.00374756
2151.68	0.000973511	0.00619812
2152.14	-0.697479	-0.0166321
2152.6	-0.000704956	0.00375183
2153.08	0.000375366	0.00620056
2153.54	-0.698059	-0.0166168
2154	-0.000637817	0.00375153
2154.48	0.000421143	0.00620361
2154.94	-0.697968	-0.0166412
2155.4	0.00110779	0.00374054
2155.88	-0.000570679	0.00620453
2156.34	-0.698334	-0.0166168
2156.8	0.000579834	0.00373901
2157.28	-0.00065918	0.0062085
2157.74	-0.699463	-0.0166199
2158.2	3.05176e-06	0.00374725
2158.68	0.000866699	0.00619812
2159.14	-0.698029	-0.0166382
2159.6	-0.000531006	0.00374847
2160.08	7.93457e-05	0.00619843
2160.54	-0.697723	-0.016626
2161	9.76562e-05	0.00375275
2161.48	0.000964355	0.00619415
2161.94	-0.698639	-0.0166351
2162.4	-0.000405884	0.00375153
2162.88	0.000473022	0.00619995
2163.34	-0.699066	-0.0166168
2163.8	-0.000787354	0.00375397
2164.28	-0.000750732	0.00620453
2164.74	-0.69751	-0.0166321
2165.2	0.000384521	0.00374542
2165.68	0.00102844	0.00619446
2166.14	-0.698639	-0.0166168
2166.6	-0.000671387	0.00374878
2167.08	-0.000622559	0.00620514
2167.54	-0.698914	-0.0166229
2168	0.000811768	0.0037439
2168.48	0.00101624	0.00619049
2168.94	-0.697571	-0.0166321
2169.4	4.27246e-05	0.00375366
2169.88	0.000540161	0.00619629
2170.34	-0.698395	-0.0166229
2170.8	-0.000357056	0.00375183
2171.28	3.66211e-05	0.00620178
2171.74	-0.699402	-0.0166138
2172.2	0.00093689	0.00374512
2172.68	-4.88281e-05	0.00619812
2173.14	-0.699249	-0.0166107
2173.6	0.000805664	0.00374634
2174.08	0.000967407	0.00618866
2174.54	-0.697723	-0.0166138
2175	-0.000747681	0.00375702
2175.48	-0.00017395	0.00619476
2175.94	-0.697723	-0.0166199
2176.4	0.00118103	0.00374939
2176.88	0.000891113	0.00618652
2177.34	-0.698486	-0.016626
2177.8	0.00107117	0.00374634
2178.28	0.00103455	0.00618896
2178.74	-0.699493	-0.0166138
2179.2	0.000247192	0.00374969
2179.68	0.00101318	0.00618866
2180.14	-0.698761	-0.0166168
2180.6	0.00113525	0.00374756
2181.08	0.000701904	0.00618652
2181.54	-0.697662	-0.0166229
2182	-0.000234985	0.00376099
2182.48	-0.000924683	0.00619568
2182.94	-0.698792	-0.0166046
2183.4	-0.000619507	0.0037616
2183.88	0.000640869	0.00618469
2184.34	-0.699524	-0.0166107
2184.8	0.000140381	0.00375793
2185.28	0.000335693	0.00618835
2185.74	-0.699371	-0.0166046
2186.2	-0.000631714	0.00375854
2186.68	-0.000897217	0.00619324
2187.14	-0.697662	-0.0166138
2187.6	-0.000701904	0.00376251
2188.08	-0.000241089	0.00618591
2188.54	-0.697906	-0.0166168
2189	-0.000177002	0.00376007
2189.48	-5.79834e-05	0.00619019
2189.94	-0.698364	-0.0165985
2190.4	-0.000769043	0.0037616
2190.88	-0.00078125	0.0061911
2191.34	-0.697906	-0.0166138
2191.8	-0.000262451	0.00375275
2192.28	-0.000457764	0.00619415
2192.74	-0.697662	-0.0166168
2193.2	0.000967407	0.00375092
2193.68	0.000546265	0.00618103
2194.14	-0.698944	-0.0165985
2194.6	0.00108643	0.00375153
2195.08	-0.000262451	0.006185
2195.54	-0.699158	-0.0166077
2196	0.000875854	0.00375702
2196.48	0.00105591	0.00618103
2196.94	-0.69931	-0.0166107
2197.4	-0.000292969	0.00376526
2197.88	0.000869751	0.00618164
2198.34	-0.699371	-0.0166016
2198.8	0.000695801	0.00375885
2199.28	-0.000402832	0.0061908
2199.74	-0.697418	-0.0166077
2200.2	0.000100708	0.00376373
2200.68	-0.000738525	0.00619019
2201.14	-0.697601	-0.0166077
2201.6	-0.000488281	0.00376831
2202.08	-0.000531006	0.00619049
2202.54	-0.698303	-0.0166046
2203	-0.000582886	0.00376434
2203.48	0.000637817	0.00617706
2203.94	-0.697845	-0.0166077
2204.4	0.00109253	0.00375854
2204.88	0.000830078	0.0061792
2205.34	-0.698547	-0.0166107
2205.8	0.000341797	0.00376038
2206.28	0.000512695	0.00618134
2206.74	-0.697998	-0.0166168
2207.2	0.000405884	0.00375916
2207.68	0.000753784	0.00617401
2208.14	-0.699127	-0.0166046
2208.6	0.000234985	0.00376099
2209.08	0.00067749	0.00617798
2209.54	-0.697571	-0.0166077
2210	0.000726318	0.00375763
2210.48	-0.000720215	0.00618225
2210.94	-0.69931	-0.0165955
2211.4	-0.000250244	0.00377167
2211.88	-0.000949097	0.00618317
2212.34	-0.697601	-0.0166016
2212.8	0.00114746	0.00376007
2213.28	0.00022583	0.00617554
2213.74	-0.699371	-0.0165985
2214.2	-0.00078125	0.00376984
2214.68	0.000268555	0.00617798
2215.14	-0.699188	-0.0165924
2215.6	0.000939941	0.0037619
2216.08	0.000863647	0.00617371
2216.54	-0.698578	-0.0165894
2217	0.000668335	0.00375854
2217.48	-0.000302124	0.00618195
2217.94	-0.698669	-0.0165894
2218.4	-0.000515747	0.0037735
2218.88	0.000167847	0.00617798
2219.34	-0.699249	-0.0165863
2219.8	0.00010376	0.00377106
2220.28	0.000906372	0.00617004
2220.74	-0.698883	-0.0165863
2221.2	-2.74658e-05	0.00377411
2221.68	-0.000802612	0.00617401
2222.14	-0.699402	-0.0165924
2222.6	-0.000723267	0.0037738
2223.08	-0.000765991	0.00617981
2223.54	-0.699402	-0.0165833
2224	-0.000671387	0.0037735
2224.48	-0.000238037	0.00617676
2224.94	-0.697876	-0.0166016
2225.4	-0.000558472	0.00377228
2225.88	-0.000186157	0.00617615
2226.34	-0.699219	-0.0165924
2226.8	0.000579834	0.00377319
2227.28	-9.15527e-06	0.00616669
2227.74	-0.698792	-0.0165955
2228.2	-0.000158691	0.00377045
2228.68	-0.000811768	0.00617767
2229.14	-0.697601	-0.0165894
2229.6	-0.000762939	0.00377594
2230.08	5.79834e-05	0.00617462
2230.54	-0.699219	-0.0165771
2231	0.000186157	0.00377625
2231.48	-0.000396729	0.00616699
2231.94	-0.697906	-0.0165863
2232.4	0.000378418	0.00377289
2232.88	0.00101929	0.00616486
2233.34	-0.697571	-0.0165985
2233.8	0.000915527	0.00376892
2234.28	2.13623e-05	0.00616577
2234.74	-0.698212	-0.0165894
2235.2	-0.000540161	0.00378021
2235.68	-0.000372314	0.00617462
2236.14	-0.699493	-0.0165741
2236.6	-0.000756836	0.00377533
2237.08	0.000515747	0.00616211
2237.54	-0.698242	-0.0165955
2238	1.83105e-05	0.00377136
2238.48	0.00022583	0.00616791
2238.94	-0.697754	-0.0165955
2239.4	0.00057373	0.00376984
2239.88	-0.000436401	0.00617218
2240.34	-0.69812	-0.0165802
2240.8	-0.000299072	0.00377594
2241.28	-0.000494385	0.00616394
2241.74	-0.698151	-0.0165741
2242.2	0.00111694	0.00377014
2242.68	0	0.00616791
2243.14	-0.699005	-0.0165863
2243.6	-0.00067749	0.00378204
2244.08	0.000900269	0.00615845
2244.54	-0.698517	-0.016571
2245	-0.000231934	0.00378052
2245.48	0.000192261	0.00615997
2245.94	-0.699066	-0.016571
2246.4	0.000509644	0.00378052
2246.88	0.000939941	0.00616302
2247.34	-0.698059	-0.0165955
2247.8	-7.62939e-05	0.00377563
2248.28	0.00102844	0.00615692
2248.74	-0.699005	-0.016571
2249.2	0.000808716	0.00377533
2249.68	-0.000753784	0.00616882
2250.14	-0.698334	-0.0165741
2250.6	-0.000787354	0.00378387
2251.08	0.000888062	0.00615967
2251.54	-0.698456	-0.0165833
2252	0.00015564	0.00377228
2252.48	-0.000942993	0.00616516
2252.94	-0.698761	-0.016568
2253.4	-8.54492e-05	0.00378052
2253.88	-0.000558472	0.00616608
2254.34	-0.697998	-0.0165833
2254.8	0.0011322	0.00377258
2255.28	-0.000747681	0.00616486
2255.74	-0.699402	-0.016568
2256.2	0.000494385	0.00378235
2256.68	0.000942993	0.00615967
2257.14	-0.698578	-0.0165802
2257.6	0.00107422	0.0037738
2258.08	0.000601196	0.00615662
2258.54	-0.698578	-0.0165741
2259	0.00106812	0.00377533
2259.48	-0.000595093	0.00616425
2259.94	-0.697723	-0.016568
2260.4	0.000982666	0.00377655
2260.88	-0.000814819	0.00616089
2261.34	-0.6987	-0.0165771
2261.8	-0.000756836	0.00378235
2262.28	-3.05176e-06	0.00616028
2262.74	-0.698303	-0.0165771
2263.2	0.000537109	0.00378235
2263.68	-0.000186157	0.00615814
2264.14	-0.69754	-0.0165741
2264.6	-0.000268555	0.00378815
2265.08	0.00103149	0.00614929
2265.54	-0.699371	-0.0165588
2266	-0.000613403	0.00378937
2266.48	0.00112	0.00614929
2266.94	-0.699097	-0.0165588
2267.4	0.00103149	0.00377869
2267.88	-0.000671387	0.00615936
2268.34	-0.699066	-0.0165497
2268.8	0.000979614	0.00377777
2269.28	-0.000830078	0.00615784
2269.74	-0.699493	-0.016568
2270.2	0.000643921	0.00377838
2270.68	-0.000823975	0.00615601
2271.14	-0.69751	-0.016568
2271.6	0.00093689	0.0037854
2272.08	0.000946045	0.00614349
2272.54	-0.697571	-0.016571
2273	-0.000183105	0.0037854
2273.48	0.000238037	0.00615204
2273.94	-0.698914	-0.016571
2274.4	-0.000476074	0.00378754
2274.88	-0.000512695	0.00615448
2275.34	-0.698822	-0.016568
2275.8	-0.000430298	0.00378723
2276.28	-0.00062561	0.00615509
2276.74	-0.699371	-0.0165558
2277.2	-5.79834e-05	0.00378326
2277.68	0.000662231	0.00614716
2278.14	-0.69754	-0.0165894
2278.6	-0.000521851	0.00379456
2279.08	0.00102234	0.00615204
2279.54	-0.699188	-0.016571
2280	0.00109558	0.00378113
2280.48	-8.23975e-05	0.00615448
2280.94	-0.697723	-0.0165924
2281.4	0.000775146	0.00378082
2281.88	0.000250244	0.00615936
2282.34	-0.699432	-0.0165771
2282.8	-0.000701904	0.00379181
2283.28	0.000643921	0.00615295
2283.74	-0.697632	-0.0165894
2284.2	0.0010376	0.00378296
2284.68	-0.000744629	0.00615692
2285.14	-0.699219	-0.0165863
2285.6	0.00015564	0.00378845
2286.08	0.00088501	0.00614838
2286.54	-0.69754	-0.0165894
2287	-0.000747681	0.00379364
2287.48	-0.000695801	0.00615204
2287.94	-0.699036	-0.0165771
2288.4	-0.000796509	0.00379303
2288.88	0.00106812	0.00614655
2289.34	-0.698486	-0.0165924
2289.8	-0.000439453	0.00378937
2290.28	1.52588e-05	0.00615204
2290.74	-0.697906	-0.0165771
2291.2	0.000735474	0.00378296
2291.68	0.000479126	0.00614319
2292.14	-0.699432	-0.0165771
2292.6	-0.000469971	0.0037915
2293.08	0.000518799	0.00614624
2293.54	-0.699402	-0.0165802
2294	0.000854492	0.00378326
2294.48	3.66211e-05	0.00615204
2294.94	-0.699005	-0.0165924
2295.4	0.00101013	0.00378632
2295.88	-0.00078125	0.00615479
2296.34	-0.697845	-0.0165894
2296.8	-0.000756836	0.0037912
2297.28	0.000790405	0.00614899
2297.74	-0.6987	-0.0165741
2298.2	-0.000405884	0.00379272
2298.68	-0.000192261	0.00614655
2299.1	-0.000369263	0.00242737