File: Edgar/20240607/20240607/electrodeposition_pulsed_potential_20240607_E/pulses_0_to_1000.txt
Time (s)	WE(1).Potential (V)	WE(1).Current (A)
181.662	-0.700043	-0.00362061
182.122	0.000790405	-1.83105e-06
182.602	0.000344849	8.01697e-05
183.062	-0.700104	-0.00339142
183.522	0.000531006	9.12476e-06
184.002	-0.000238037	0.000116394
184.462	-0.699371	-0.00386597
184.922	0.000485229	1.55945e-05
185.402	0.000665283	0.000140259
185.862	-0.698761	-0.00445831
186.322	-0.000750732	2.76184e-05
186.802	-0.000717163	0.000173889
187.262	-0.698975	-0.005112
187.722	0.0011322	1.17798e-05
188.202	0.000134277	0.000192383
188.662	-0.698914	-0.00578186
189.122	0.000863647	1.31226e-06
189.602	-6.10352e-05	0.000209351
190.062	-0.698273	-0.0063974
190.522	-0.000546265	-1.46484e-05
191.002	0.000692749	0.000214539
191.462	-0.698669	-0.0069339
191.922	-9.15527e-06	-3.31116e-05
192.402	0.0011261	0.000217621
192.862	-0.698578	-0.0074115
193.322	-0.000384521	-5.22461e-05
193.802	0.000631714	0.000246002
194.262	-0.698944	-0.00782776
194.722	0.00065918	-6.97021e-05
195.202	-0.000836182	0.00030365
195.662	-0.699982	-0.00819397
196.122	-0.000628662	-7.99255e-05
196.602	0.000918579	0.000366638
197.062	-0.697876	-0.00854492
197.522	-3.05176e-06	-9.8175e-05
198.002	0.000198364	0.000471405
198.462	-0.69809	-0.00886536
198.922	0.000106812	-0.000103912
199.402	-0.000119019	0.00059906
199.862	-0.699432	-0.00914001
200.322	0.00112915	-0.000123657
200.802	0.000534058	0.000740662
201.262	-0.6987	-0.00942383
201.722	0.000280762	-0.000125092
202.202	-0.000326538	0.000921326
202.662	-0.699127	-0.00968933
203.122	0.00110779	-0.000138794
203.602	0.000967407	0.00109985
204.062	-0.698578	-0.00993958
204.522	0.00107727	-0.000145416
205.002	-0.00010376	0.0013092
205.462	-0.698883	-0.0101501
205.922	0.00065918	-0.000146515
206.402	-0.000805664	0.00152832
206.862	-0.699371	-0.0103607
207.322	-0.000305176	-0.000148865
207.802	-0.000234985	0.001745
208.262	-0.697754	-0.0105774
208.722	0.000344849	-0.000156433
209.202	0.00119629	0.00195557
209.662	-0.698517	-0.0107697
210.122	0.000952148	-0.000159851
210.602	0.00142517	0.00217743
211.062	-0.69873	-0.0109375
211.522	0.000686646	-0.000166901
212.002	0.00123901	0.00239197
212.462	-0.699921	-0.0111176
212.922	0.000457764	-0.000167938
213.402	-0.000714111	0.00261414
213.862	-0.698242	-0.0112885
214.322	0.00123291	-0.000175446
214.802	0.00126648	0.00281036
215.262	-0.699219	-0.0114227
215.722	0.000143433	-0.000172943
216.202	0.000579834	0.00300812
216.662	-0.697784	-0.0115784
217.122	0.00114746	-0.000179443
217.602	-0.000289917	0.00319733
218.062	-0.698151	-0.0117218
218.522	0.000695801	-0.000181
219.002	0.000979614	0.00337341
219.462	-0.698456	-0.0118408
219.922	-0.000613403	-0.000170319
220.402	0.00120239	0.00354156
220.862	-0.6987	-0.0119751
221.322	-0.000579834	-0.00017337
221.802	0.00110474	0.00370544
222.262	-0.699554	-0.012085
222.722	-0.000411987	-0.00017334
223.202	0.00103455	0.00385681
223.662	-0.698853	-0.0121887
224.122	0.000219727	-0.000179321
224.602	-0.000747681	0.00401581
225.062	-0.699707	-0.0122986
225.522	0.000939941	-0.000184174
226.002	0.00128174	0.0041449
226.462	-0.698547	-0.0124023
226.922	-0.000250244	-0.000176208
227.402	0.00112915	0.00427612
227.862	-0.698212	-0.0124939
228.322	0.000860596	-0.000182556
228.802	0.0011322	0.00440338
229.262	-0.698059	-0.0126038
229.722	-0.00071106	-0.00016983
230.202	0.00120544	0.00452393
230.662	-0.698425	-0.0126923
231.122	0.000326538	-0.000177948
231.602	-0.000820923	0.00464783
232.062	-0.699738	-0.0127716
232.522	-0.000778198	-0.000170197
233.002	0.000424194	0.0047467
233.462	-0.699738	-0.0128418
233.922	-0.000268555	-0.000176331
234.402	-0.000662231	0.00485901
234.862	-0.698425	-0.0129395
235.322	-0.00038147	-0.000171021
235.802	-0.000717163	0.00496246
236.262	-0.699738	-0.0130066
236.722	-0.000564575	-0.000170105
237.202	6.40869e-05	0.00504974
237.662	-0.699524	-0.0130829
238.122	0.000231934	-0.000168488
238.602	-0.000744629	0.00514648
239.062	-0.697998	-0.0131592
239.522	-0.000732422	-0.000163757
240.002	0.000213623	0.00522888
240.462	-0.699677	-0.013208
240.922	0.000408936	-0.000170044
241.402	-0.000860596	0.00531525
241.862	-0.698181	-0.0132751
242.322	0.00107727	-0.000170593
242.802	-0.000799561	0.00539215
243.262	-0.699188	-0.013327
243.722	0.000796509	-0.000168793
244.202	-0.000588989	0.00546783
244.662	-0.699219	-0.0134094
245.122	0.000964355	-0.000166321
245.602	0.00102844	0.00553436
246.062	-0.698547	-0.0134674
246.522	0.000506592	-0.00016217
247.002	0.000228882	0.00560944
247.462	-0.699463	-0.0135101
247.922	0.000961304	-0.000161896
248.402	-0.000585937	0.00567841
248.862	-0.698792	-0.0135712
249.322	-0.000305176	-0.000148651
249.802	0.000473022	0.0057431
250.262	-0.697968	-0.0136292
250.722	0.00045166	-0.000153809
251.202	0.000958252	0.00579803
251.662	-0.699615	-0.013678
252.122	-0.000115967	-0.000146149
252.602	0.000827026	0.00585541
253.062	-0.699249	-0.0137238
253.522	0.00101929	-0.000148834
254.002	0.00119019	0.00591187
254.462	-0.698029	-0.0137817
254.922	-0.000100708	-0.000141541
255.402	0.00050354	0.00597412
255.862	-0.699799	-0.0138245
256.322	0	-0.000137787
256.802	0.000628662	0.006026
257.262	-0.699554	-0.0138702
257.722	0.000683594	-0.000140564
258.202	-0.00083313	0.00608337
258.662	-0.699493	-0.0139252
259.122	0.000738525	-0.000133423
259.602	0.00110168	0.00612122
260.062	-0.699158	-0.0139648
260.522	0.000332642	-0.000126862
261.002	-0.000875854	0.00617767
261.462	-0.698883	-0.0140259
261.922	0.000921631	-0.00012851
262.402	0.000952148	0.00621338
262.862	-0.698151	-0.0140778
263.322	0.00108948	-0.000126648
263.802	0.000405884	0.00625793
264.262	-0.698273	-0.0141022
264.722	0.00093689	-0.000119446
265.202	0.000234985	0.00629761
265.662	-0.699341	-0.014151
266.122	0.000949097	-0.000117065
266.602	0.00102539	0.00633667
267.062	-0.698975	-0.0141968
267.522	-0.000234985	-0.000103882
268.002	-7.93457e-05	0.00638824
268.462	-0.698975	-0.0142334
268.922	-0.000765991	-0.000100281
269.402	5.49316e-05	0.00641724
269.862	-0.699554	-0.0142639
270.322	0.000915527	-0.000102783
270.802	0.000723267	0.00645355
271.262	-0.698029	-0.0143188
271.722	-0.00072937	-8.83484e-05
272.202	0.00104675	0.00648682
272.662	-0.699402	-0.0143402
273.122	-0.000921631	-8.23059e-05
273.602	-0.000201416	0.00653137
274.062	-0.699615	-0.0143707
274.522	0.00102234	-8.77686e-05
275.002	0.000430298	0.00655945
275.462	-0.697876	-0.0144318
275.922	0.0010437	-8.38928e-05
276.402	-0.00085144	0.00659729
276.862	-0.697571	-0.0144623
277.322	-0.000637817	-6.73218e-05
277.802	0.000875854	0.0066156
278.262	-0.698853	-0.0144836
278.722	0.000405884	-6.90308e-05
279.202	0.00102844	0.00664459
279.662	-0.6987	-0.0145325
280.122	0.00120544	-6.75964e-05
280.602	0.00108948	0.0066803
281.062	-0.697876	-0.014566
281.522	2.44141e-05	-5.40161e-05
282.002	0.000164795	0.00671051
282.462	-0.699829	-0.0145905
282.922	0.00106201	-5.6488e-05
283.402	0.000769043	0.00673401
283.862	-0.699402	-0.0146271
284.322	0.000280762	-5.01404e-05
284.802	0.000744629	0.00675568
285.262	-0.699585	-0.0146545
285.722	0.00111084	-4.50439e-05
286.202	0.00106506	0.00678192
286.662	-0.69812	-0.014682
287.122	0.000576782	-3.61938e-05
287.602	0.00108337	0.00680817
288.062	-0.699585	-0.0147125
288.522	-0.000747681	-2.53296e-05
289.002	-0.00083313	0.00684448
289.462	-0.699554	-0.014743
289.922	0.00119629	-2.66113e-05
290.402	0.00109558	0.00685547
290.862	-0.699707	-0.0147736
291.322	-0.000457764	-9.552e-06
291.802	0.00109253	0.00687988
292.262	-0.699402	-0.0148071
292.722	0.00112	-1.26648e-05
293.202	-0.000280762	0.00691193
293.662	-0.699554	-0.0148285
294.122	-3.66211e-05	7.01904e-07
294.602	0.000195313	0.00692474
295.062	-0.697876	-0.0148621
295.522	0.00118103	6.71387e-07
296.002	-0.000311279	0.00694611
296.462	-0.697662	-0.0149017
296.922	-0.000540161	1.96228e-05
297.402	0.000311279	0.0069696
297.862	-0.699463	-0.01492
298.322	0.00123291	1.43433e-05
298.802	0.000784302	0.0069873
299.262	-0.697998	-0.0149597
299.722	-0.00067749	3.50037e-05
300.202	-0.00101929	0.00701172
300.662	-0.699554	-0.0149658
301.122	0.000521851	3.13416e-05
301.602	-0.000869751	0.00703339
302.062	-0.699585	-0.0149872
302.522	0.00117798	3.52478e-05
303.002	0.000311279	0.00703888
303.462	-0.698547	-0.0150208
303.922	-0.000784302	5.18799e-05
304.402	0.000665283	0.00705505
304.862	-0.69809	-0.0150482
305.322	-0.000308228	5.86853e-05
305.802	0.0009765625	0.00707306
306.262	-0.69754	-0.0150818
306.722	0.000817871	5.83801e-05
307.202	0.00100403	0.00709534
307.662	-0.699646	-0.015094
308.122	-0.000167847	6.8573e-05
308.602	0.000656128	0.00710815
309.062	-0.699127	-0.0151306
309.522	0.000460815	7.50427e-05
310.002	0.00105286	0.00712158
310.462	-0.698334	-0.0151428
310.922	0.00119019	7.9071e-05
311.402	0.000842285	0.00714355
311.862	-0.697784	-0.0151764
312.322	-4.27246e-05	9.56421e-05
312.802	0.00104675	0.00715454
313.262	-0.697815	-0.0152069
313.722	3.96729e-05	0.000102356
314.202	9.46045e-05	0.00717102
314.662	-0.69812	-0.0152313
315.122	0.00045166	0.000103943
315.602	-0.000256348	0.00719574
316.062	-0.699493	-0.0152405
316.522	-0.000201416	0.000118958
317.002	-0.000750732	0.00720581
317.462	-0.697388	-0.0152679
317.922	0.000271606	0.000123169
318.402	1.52588e-05	0.00721466
318.862	-0.699371	-0.0152832
319.322	0.000189209	0.000127258
319.802	0.00114441	0.0072287
320.262	-0.699554	-0.0153046
320.722	0.000335693	0.000139038
321.202	0.00057373	0.00723846
321.662	-0.697479	-0.015332
322.122	-0.00045166	0.000152893
322.602	-5.49316e-05	0.00725861
323.062	-0.698273	-0.0153625
323.522	0.00107117	0.00014859
324.002	0.000900269	0.00726349
324.462	-0.698486	-0.0153656
324.922	0.000964355	0.000157623
325.402	0.000527954	0.00727264
325.862	-0.699402	-0.015387
326.322	-0.000726318	0.000178894
326.802	5.18799e-05	0.00728851
327.262	-0.698181	-0.0154144
327.722	-0.000628662	0.00018576
328.202	0.000997925	0.00729675
328.662	-0.6987	-0.0154236
329.122	-0.000314331	0.000192535
329.602	-0.000357056	0.00731445
330.062	-0.699524	-0.015451
330.522	-0.000106812	0.000198578
331.002	0.00114441	0.00732269
331.462	-0.699554	-0.0154724
331.922	0.00110779	0.000199768
332.402	0.0009765625	0.00733582
332.862	-0.698273	-0.015509
333.322	0.00055542	0.00021106
333.802	0.000473022	0.00734497
334.262	-0.698517	-0.0155182
334.722	-0.000210571	0.000229706
335.202	0.000857544	0.00735107
335.662	-0.69928	-0.0155365
336.122	0.000863647	0.000228607
336.602	0.00102539	0.00736481
337.062	-0.699707	-0.0155457
337.522	0.00093689	0.000234528
338.002	-0.000695801	0.0073819
338.462	-0.699493	-0.015564
338.922	-0.000335693	0.000256226
339.402	0.000994873	0.00738586
339.862	-0.69754	-0.0155945
340.322	0.00017395	0.000258789
340.802	0.00105286	0.00739319
341.262	-0.697998	-0.0156036
341.722	-0.000479126	0.000269989
342.202	-0.000793457	0.00741425
342.662	-0.69754	-0.0156281
343.122	-0.000881958	0.00027951
343.602	-0.000790405	0.00742432
344.062	-0.699585	-0.0156342
344.522	0.000274658	0.000282166
345.002	-0.00038147	0.00742737
345.462	-0.697571	-0.0156616
345.922	0.000119019	0.000291992
346.402	0.000622559	0.0074292
346.862	-0.697601	-0.0156799
347.322	-0.000244141	0.000304779
347.802	0.000119019	0.00744812
348.262	-0.697449	-0.0157043
348.722	0.00093689	0.00030603
349.202	0.000112915	0.00745178
349.662	-0.698151	-0.0157227
350.122	-0.000473022	0.000322296
350.602	-0.000469971	0.00745819
351.062	-0.699554	-0.0157257
351.522	-0.000177002	0.000330383
352.002	0.00057373	0.00746765
352.462	-0.697937	-0.0157379
352.922	-0.000604248	0.000344116
353.402	0.000817871	0.00746674
353.862	-0.697662	-0.0157593
354.322	0.00111694	0.000339935
354.802	-0.000997925	0.00748657
355.262	-0.699127	-0.0157684
355.722	0.000900269	0.000350708
356.202	0.000915527	0.00748901
356.662	-0.697418	-0.0157959
357.122	0.00071106	0.000360229
357.602	0.000848389	0.00748596
358.062	-0.699585	-0.0157959
358.522	0.000454712	0.000366486
359.002	0.000161743	0.00751648
359.462	-0.699402	-0.0158173
359.922	0.00113525	0.000375641
360.402	0.000714111	0.00751038
360.862	-0.69754	-0.0158325
361.322	-0.000576782	0.000396667
361.802	-0.000210571	0.00752563
362.262	-0.69751	-0.0158539
362.722	0.000494385	0.000393677
363.202	-0.00101318	0.00752563
363.662	-0.698944	-0.0158478
364.122	0.000744629	0.000404785
364.602	-0.000170898	0.00753479
365.062	-0.699341	-0.0158722
365.522	0.000424194	0.00041745
366.002	-0.00101318	0.00753479
366.462	-0.697906	-0.0159027
366.922	-0.000140381	0.000432465
367.402	0.000521851	0.007547
367.862	-0.697571	-0.0159149
368.322	-0.000213623	0.000437866
368.802	-0.00100403	0.00755005
369.262	-0.699463	-0.0159332
369.722	0.00102234	0.000439911
370.202	0.000997925	0.00754395
370.662	-0.699402	-0.0159363
371.122	0.00101318	0.000448914
371.602	0.000405884	0.0075592
372.062	-0.697662	-0.0159515
372.522	0.000402832	0.000463501
373.002	-0.000875854	0.00756836
373.462	-0.69754	-0.0159698
373.922	0.000750732	0.000468201
374.402	0.000958252	0.00756531
374.862	-0.698547	-0.0159668
375.322	-0.000482178	0.000484558
375.802	0.000518799	0.0075592
376.262	-0.699036	-0.0159821
376.722	-0.000292969	0.000493561
377.202	-0.00102234	0.00758057
377.662	-0.698364	-0.0160004
378.122	-0.000750732	0.000506683
378.602	-0.000473022	0.00758972
379.062	-0.697479	-0.0160278
379.522	-0.00015564	0.000509949
380.002	0.0009552	0.00758362
380.462	-0.697937	-0.0160217
380.922	-0.000128174	0.000520325
381.402	-0.000546265	0.00759888
381.862	-0.69751	-0.0160492
382.322	3.35693e-05	0.000533752
382.802	-0.000732422	0.00757751
383.262	-0.699402	-0.0160553
383.722	-0.000708008	0.000543213
384.202	-0.000302124	0.00760803
384.662	-0.697632	-0.0160675
385.122	0.000604248	0.000545349
385.602	2.74658e-05	0.00760803
386.062	-0.697632	-0.0160889
386.522	0.00109253	0.000548096
387.002	-0.00104675	0.00761108
387.462	-0.698395	-0.0161011
387.922	-0.000750732	0.000570374
388.402	-0.000881958	0.00760803
388.862	-0.697845	-0.0161011
389.322	-0.00057373	0.000579529
389.802	0.000234985	0.00760193
390.262	-0.699432	-0.0161133
390.722	0.000576782	0.000585022
391.202	-0.000921631	0.00762329
391.662	-0.698578	-0.0161438
392.122	-0.000704956	0.000596924
392.602	-0.000714111	0.00762024
393.062	-0.699249	-0.0161346
393.522	-0.00050354	0.000605164
394.002	0.000619507	0.0076355
394.462	-0.699341	-0.0161469
394.922	-0.000195313	0.000614319
395.402	-0.000921631	0.0076355
395.862	-0.697845	-0.0161774
396.322	-0.000735474	0.00062439
396.802	0.000387573	0.00762329
397.262	-0.698822	-0.0161621
397.722	-0.000775146	0.00063324
398.202	-0.00111694	0.00762939
398.662	-0.697693	-0.0162018
399.122	-0.000622559	0.000639648
399.602	0.000350952	0.00762634
400.062	-0.6987	-0.0161926
400.522	6.10352e-06	0.000644226
401.002	0.00090332	0.00763855
401.462	-0.699249	-0.016214
401.922	0.00127258	0.000650024
402.402	0.000289917	0.00765686
402.862	-0.699219	-0.0162231
403.322	0.00121765	0.00065918
403.802	0.000497437	0.00765076
404.262	-0.699402	-0.0162415
404.722	0.000854492	0.000666809
405.202	0.000845337	0.0076416
405.662	-0.699371	-0.0162354
406.122	-0.000360107	0.000679932
406.602	-0.00090332	0.00764771
407.062	-0.698608	-0.0162659
407.522	0.00090332	0.000687866
408.002	0.000717163	0.00766296
408.462	-0.697388	-0.0162659
408.922	-0.000704956	0.000706787
409.402	0.000921631	0.00764771
409.862	-0.69928	-0.016272
410.322	-0.000784302	0.000714417
410.802	0.000430298	0.00767212
411.262	-0.69812	-0.0162811
411.722	0.000216675	0.000716553
412.202	-0.000717163	0.00765381
412.662	-0.698761	-0.0163025
413.122	0.00119019	0.000720825
413.602	0.000320435	0.00767212
414.062	-0.699554	-0.0162964
414.522	-0.00012207	0.000734253
415.002	-0.000216675	0.00765381
415.462	-0.699158	-0.0163147
415.922	0.00085144	0.0007421875
416.402	0.000631714	0.00765686
416.862	-0.699493	-0.0163177
417.322	-0.000561523	0.000759888
417.802	-0.000921631	0.00766602
418.262	-0.697479	-0.0163391
418.722	0.000805664	0.000762329
419.202	-0.000942993	0.00767822
419.662	-0.699158	-0.0163452
420.122	-0.000402832	0.000776367
420.602	0.000238037	0.00767822
421.062	-0.698883	-0.0163605
421.522	0.000335693	0.000777283
422.002	0.000891113	0.00765991
422.462	-0.699341	-0.0163574
422.922	0.001297	0.000782776
423.402	0.000515747	0.00766296
423.862	-0.697784	-0.0163757
424.322	0.000576782	0.000794983
424.802	0.000216675	0.00766296
425.262	-0.699066	-0.0163727
425.722	-0.000732422	0.000813293
426.202	-0.00105896	0.00768127
426.662	-0.697662	-0.016394
427.122	0.00120239	0.000810852
427.602	-7.93457e-05	0.00766602
428.062	-0.699005	-0.0163879
428.522	0.00109863	0.0008203125
429.002	0.000650024	0.00767212
429.462	-0.698242	-0.0164154
429.922	0.000982666	0.000830383
430.402	0.000942993	0.00768738
430.862	-0.69873	-0.0164215
431.322	0.000863647	0.000837402
431.802	-0.000323486	0.00767517
432.262	-0.698303	-0.0164307
432.722	-0.00010376	0.000852356
433.202	0.000537109	0.00766907
433.662	-0.69931	-0.0164215
434.122	-0.000585937	0.00086792
434.602	0.000411987	0.00769348
435.062	-0.697815	-0.0164429
435.522	-0.00072937	0.000875244
436.002	-0.000991821	0.00768433
436.462	-0.698273	-0.0164551
436.922	0.00119019	0.000870972
437.402	0.000900269	0.00767212
437.862	-0.698822	-0.0164429
438.322	-2.74658e-05	0.000881042
438.802	-0.000201416	0.00769653
439.262	-0.697479	-0.0164642
439.722	0.00118103	0.000889282
440.202	0.000814819	0.00768738
440.662	-0.697418	-0.0164642
441.122	8.8501e-05	0.000906677
441.602	0.000942993	0.00768127
442.062	-0.69812	-0.0164764
442.522	0.00133972	0.000907288
443.002	-0.00100708	0.00769348
443.462	-0.697693	-0.0164886
443.922	-0.000378418	0.000922852
444.402	-0.000827026	0.00768738
444.862	-0.697754	-0.0164978
445.322	-2.13623e-05	0.000932617
445.802	-0.000714111	0.00769348
446.262	-0.697784	-0.0165161
446.722	0.00137329	0.000933838
447.202	-0.00065918	0.00769958
447.662	-0.699463	-0.0165131
448.122	0.000646973	0.000942383
448.602	-2.74658e-05	0.00768127
449.062	-0.699188	-0.0165131
449.522	0.00106201	0.000952148
450.002	0.000588989	0.00769043
450.462	-0.69809	-0.0165314
450.922	0.0003479	0.000963745
451.402	0.000845337	0.00768738
451.862	-0.697784	-0.0165497
452.322	0.000888062	0.000965576
452.802	-0.000799561	0.00769348
453.262	-0.699097	-0.0165436
453.722	0.000338745	0.000977173
454.202	-0.000653076	0.00768433
454.662	-0.698486	-0.0165497
455.122	0.00118713	0.000981445
455.602	-0.000354004	0.00770264
456.062	-0.698486	-0.0165741
456.522	-0.00071106	0.00100159
457.002	-0.000424194	0.00768738
457.462	-0.698425	-0.016568
457.922	-0.000762939	0.00101135
458.402	0.000811768	0.00770264
458.862	-0.697632	-0.0165833
459.322	-0.000662231	0.00101776
459.802	0.000610352	0.00769958
460.262	-0.699585	-0.0165833
460.722	-0.000518799	0.00102509
461.202	-0.000970459	0.00769653
461.662	-0.697784	-0.0166077
462.122	-0.000183105	0.00103699
462.602	-0.00100098	0.00769348
463.062	-0.698059	-0.0166168
463.522	-0.000646973	0.00104492
464.002	-0.000619507	0.00769348
464.462	-0.699432	-0.0166077
464.922	0.0012146	0.00104187
465.402	-0.000863647	0.00770569
465.862	-0.69754	-0.016629
466.322	0.00123596	0.00104889
466.802	0.00078125	0.00769348
467.262	-0.697571	-0.0166351
467.722	-0.000411987	0.0010675
468.202	0.000521851	0.00769043
468.662	-0.698425	-0.016629
469.122	0.000656128	0.00107147
469.602	-0.00065918	0.00771179
470.062	-0.697906	-0.0166351
470.522	-8.54492e-05	0.00107574
471.002	-0.00111389	0.00769653
471.462	-0.698151	-0.0166534
471.922	-2.74658e-05	0.00109161
472.402	-0.000924683	0.00770264
472.862	-0.698456	-0.0166473
473.322	0.000869751	0.00108948
473.802	0.000949097	0.00768738
474.262	-0.699127	-0.0166626
474.722	-0.000769043	0.00110992
475.202	0.000769043	0.00770264
475.662	-0.697662	-0.0166687
476.122	-0.000744629	0.00111786
476.602	0.0009765625	0.00769958
477.062	-0.698517	-0.016687
477.522	7.01904e-05	0.00111816
478.002	0.000646973	0.00769043
478.462	-0.699005	-0.0166748
478.922	-0.000637817	0.00112976
479.402	0.000100708	0.00768433
479.862	-0.6987	-0.0167023
480.322	5.49316e-05	0.00113953
480.802	-0.00071106	0.00769043
481.262	-0.698059	-0.0166962
481.722	0.00116882	0.00113678
482.202	0.000915527	0.00769653
482.662	-0.698547	-0.0166992
483.122	0.00102539	0.00114563
483.602	0.000204468	0.00770264
484.062	-0.698334	-0.0167053
484.522	-0.000292969	0.00116211
485.002	0.000738525	0.00770264
485.462	-0.698151	-0.0167328
485.922	0.00110779	0.0011615
486.402	-0.00111389	0.00769348
486.862	-0.698059	-0.0167206
487.322	0.00126648	0.00117157
487.802	-0.00106812	0.00769958
488.262	-0.699066	-0.0167175
488.722	-3.96729e-05	0.00118439
489.202	-0.000674438	0.00769043
489.662	-0.699127	-0.0167389
490.122	0.00112305	0.00118591
490.602	-0.0006073	0.00768433
491.062	-0.697571	-0.016745
491.522	-0.000357056	0.00120636
492.002	-0.000949097	0.00769653
492.462	-0.698639	-0.0167542
492.922	0.00114136	0.0012027
493.402	-0.000964355	0.00769043
493.862	-0.699493	-0.0167511
494.322	0.000497437	0.00120819
494.802	0.000228882	0.00767517
495.262	-0.698914	-0.0167511
495.722	-0.000793457	0.00122833
496.202	0.000869751	0.00769348
496.662	-0.697388	-0.0167633
497.122	-0.000686646	0.0012381
497.602	-0.00101624	0.00769653
498.062	-0.699402	-0.0167694
498.522	-0.000286865	0.00124847
499.002	-0.000305176	0.00770264
499.462	-0.69751	-0.0167816
499.922	0.000421143	0.0012439
500.402	0.000149536	0.00769348
500.862	-0.69931	-0.0167725
501.322	0.00088501	0.00124847
501.802	-0.00071106	0.00768738
502.262	-0.699524	-0.0167847
502.722	-0.00067749	0.00126862
503.202	0.000698853	0.00769348
503.662	-0.697571	-0.016803
504.122	0.00039978	0.00126526
504.602	-0.000219727	0.00769653
505.062	-0.699341	-0.0167999
505.522	0.000256348	0.00128082
506.002	0.00062561	0.00769348
506.462	-0.69751	-0.0168091
506.922	0.00110474	0.00128235
507.402	0.000161743	0.00768127
507.862	-0.697815	-0.0168213
508.322	-0.000411987	0.00129608
508.802	-0.000241089	0.00769958
509.262	-0.699249	-0.0168121
509.722	-0.000317383	0.00130829
510.202	0.00098877	0.00768738
510.662	-0.697632	-0.0168213
511.122	0.000924683	0.00130493
511.602	0.000186157	0.00767212
512.062	-0.697357	-0.0168243
512.522	-0.000634766	0.00131958
513.002	-0.000552368	0.00769348
513.462	-0.699097	-0.0168213
513.922	0.00123291	0.00132019
514.402	0.000512695	0.00768738
514.862	-0.697998	-0.0168457
515.322	-0.0006073	0.00133728
515.802	-8.23975e-05	0.00767212
516.262	-0.698029	-0.0168488
516.722	-0.000167847	0.0013382
517.202	0.000933838	0.00767517
517.662	-0.698853	-0.0168335
518.122	-0.000292969	0.00135376
518.602	0.0010376	0.00767822
519.062	-0.699066	-0.0168427
519.522	0.000299072	0.00135132
520.002	0.000897217	0.00767517
520.462	-0.69812	-0.0168488
520.922	-0.000628662	0.00136627
521.402	0.000949097	0.00767212
521.862	-0.697571	-0.016861
522.322	0.0013092	0.00136505
522.802	-0.00101318	0.00766907
523.262	-0.69931	-0.0168549
523.722	-0.00072937	0.00138092
524.202	-0.000958252	0.00767212
524.662	-0.697418	-0.0168732
525.122	-0.000180054	0.00138367
525.602	0.000811768	0.00766907
526.062	-0.697723	-0.0168823
526.522	-0.000787354	0.00139709
527.002	0.000775146	0.00766296
527.462	-0.699249	-0.0168671
527.922	-0.000631714	0.00140381
528.402	-5.49316e-05	0.00766602
528.862	-0.699432	-0.0168793
529.322	0.00088501	0.00139862
529.802	-0.000970459	0.00766907
530.262	-0.699493	-0.0168793
530.722	-0.0006073	0.00141724
531.202	0.000918579	0.00765991
531.662	-0.699036	-0.0168823
532.122	0.000723267	0.00141663
532.602	-0.000994873	0.00766907
533.062	-0.698822	-0.0168884
533.522	0.000180054	0.00142303
534.002	-0.00102234	0.00766602
534.462	-0.698181	-0.0169006
534.922	0.00111389	0.00142883
535.402	-2.74658e-05	0.00765686
535.862	-0.699432	-0.0169006
536.322	0.0012207	0.00143463
536.802	-0.000866699	0.00766907
537.262	-0.699371	-0.0169098
537.722	0.000152588	0.00145264
538.202	-0.0010376	0.00765381
538.662	-0.698853	-0.0169128
539.122	-0.000747681	0.00146027
539.602	0.000897217	0.00765076
540.062	-0.698853	-0.0169281
540.522	-0.000772095	0.00146698
541.002	0.000805664	0.00765686
541.462	-0.697968	-0.0169189
541.922	-0.000131226	0.00146515
542.402	-0.000708008	0.00766602
542.862	-0.69928	-0.0169312
543.322	0.000500488	0.00147278
543.802	-0.000183105	0.00766296
544.262	-0.699188	-0.0169403
544.722	0.000775146	0.00148224
545.202	-0.000418091	0.00764465
545.662	-0.69751	-0.0169373
546.122	0.000708008	0.00148285
546.602	-0.000872803	0.00765991
547.062	-0.699036	-0.0169312
547.522	0.0012207	0.00149139
548.002	-0.00098877	0.00765076
548.462	-0.697296	-0.0169464
548.922	9.15527e-06	0.00150238
549.402	0.00083313	0.00763855
549.862	-0.699341	-0.0169403
550.322	-0.000701904	0.00151062
550.802	-0.000476074	0.00765686
551.262	-0.698792	-0.0169434
551.722	0.000180054	0.00152008
552.202	-0.000100708	0.00763855
552.662	-0.69928	-0.0169495
553.122	0.0011261	0.00151794
553.602	5.79834e-05	0.0076355
554.062	-0.698975	-0.0169647
554.522	-0.000393677	0.00153137
555.002	-0.000817871	0.0076416
555.462	-0.699066	-0.0169647
555.922	-0.000726318	0.00154388
556.402	-2.44141e-05	0.00765076
556.862	-0.699493	-0.0169617
557.322	0.000393677	0.00154572
557.802	0.000125122	0.00762634
558.262	-0.699188	-0.0169525
558.722	-0.000680542	0.00155701
559.202	-0.000466919	0.00764771
559.662	-0.699127	-0.0169769
560.122	0.000430298	0.00155975
560.602	0.000390625	0.0076416
561.062	-0.699127	-0.0169678
561.522	-0.000424194	0.00157288
562.002	-0.000683594	0.00763855
562.462	-0.699371	-0.0169769
562.922	0.000863647	0.00156616
563.402	-0.000964355	0.0076355
563.862	-0.698456	-0.0169678
564.322	0.000631714	0.00157349
564.802	-0.000350952	0.00762329
565.262	-0.697968	-0.016983
565.722	0.001297	0.00158325
566.202	-0.00116272	0.00762634
566.662	-0.699371	-0.0169861
567.122	-0.000445557	0.0015979
567.602	0.000814819	0.00761719
568.062	-0.697479	-0.0169983
568.522	0.00115967	0.00159241
569.002	-0.000570679	0.00761719
569.462	-0.698151	-0.0170044
569.922	0.00130615	0.00160065
570.402	0.00045166	0.00761414
570.862	-0.698212	-0.0170105
571.322	0.000845337	0.00160614
571.802	-0.000686646	0.00763245
572.262	-0.699402	-0.0169983
572.722	-0.000213623	0.00162262
573.202	0.000424194	0.00761108
573.662	-0.697601	-0.0170105
574.122	0.0012085	0.00161713
574.602	-0.000375366	0.00762939
575.062	-0.698578	-0.0170135
575.522	-0.000445557	0.00163361
576.002	0.000933838	0.00761414
576.462	-0.699402	-0.0170166
576.922	0.00102844	0.00163239
577.402	-0.000268555	0.00762329
577.862	-0.697571	-0.0170197
578.322	-0.000753784	0.001651
578.802	-0.00100403	0.00761414
579.262	-0.699402	-0.0170197
579.722	0.000231934	0.00165405
580.202	-0.000210571	0.00762024
580.662	-0.699463	-0.0170197
581.122	-0.000683594	0.00166534
581.602	-0.00110474	0.00760803
582.062	-0.699158	-0.0170258
582.522	0.00115051	0.00165985
583.002	-0.00098877	0.00760498
583.462	-0.699402	-0.0170166
583.922	-0.000497437	0.00167358
584.402	0.000106812	0.00761414
584.862	-0.697876	-0.0170288
585.322	0.000827026	0.00166901
585.802	-0.00110168	0.00760193
586.262	-0.698944	-0.017038
586.722	-0.000421143	0.00168365
587.202	1.52588e-05	0.00760803
587.662	-0.697479	-0.0170502
588.122	0.000704956	0.00168671
588.602	0.00090332	0.00759888
589.062	-0.699341	-0.017038
589.522	0.0009765625	0.00169617
590.002	-0.000247192	0.00761414
590.462	-0.699249	-0.0170441
590.922	-0.000241089	0.00170563
591.402	-0.000997925	0.00760193
591.862	-0.697418	-0.0170532
592.322	0.000292969	0.00170898
592.802	-0.000964355	0.00759583
593.262	-0.698822	-0.0170349
593.722	-2.13623e-05	0.00170837
594.202	-0.000796509	0.00758057
594.662	-0.69751	-0.0170502
595.122	-0.000744629	0.00172485
595.602	0.000567627	0.00759277
596.062	-0.697968	-0.0170441
596.522	-0.000131226	0.00172302
597.002	0.000726318	0.00759277
597.462	-0.697723	-0.0170685
597.922	-0.000860596	0.00173309
598.402	0.000268555	0.00757751
598.862	-0.699402	-0.0170502
599.322	0.00106201	0.0017334
599.802	0.000634766	0.00758667
600.262	-0.698395	-0.0170654
600.722	0.000518799	0.00174347
601.202	0.000280762	0.00758057
601.662	-0.697479	-0.0170685
602.122	0.000259399	0.00175385
602.602	-0.00038147	0.00758972
603.062	-0.698792	-0.0170685
603.522	-6.71387e-05	0.00175903
604.002	-0.00067749	0.00757446
604.462	-0.699463	-0.0170685
604.922	0.00117493	0.00175568
605.402	-0.0009552	0.00757141
605.862	-0.699371	-0.0170624
606.322	0.000665283	0.0017691
606.802	9.15527e-05	0.00757141
607.262	-0.698151	-0.0170776
607.722	0.000610352	0.00176697
608.202	-0.000912476	0.00757446
608.662	-0.699493	-0.0170685
609.122	0.000775146	0.00177185
609.602	-2.13623e-05	0.00756226
610.062	-0.698578	-0.0170898
610.522	-0.000784302	0.00178558
611.002	-0.00104065	0.00757141
611.462	-0.697632	-0.0170807
611.922	0.00120544	0.00178436
612.402	-0.000964355	0.00756531
612.862	-0.698975	-0.0170837
613.322	0.00104065	0.00179291
613.802	0.000888062	0.00756531
614.262	-0.697815	-0.0170929
614.722	0.000183105	0.00180023
615.202	-0.000997925	0.00756531
615.662	-0.697571	-0.0170776
616.122	0.000866699	0.00180328
616.602	-0.00062561	0.00756226
617.062	-0.699432	-0.0170746
617.522	0.000997925	0.00181335
618.002	-0.000341797	0.00756531
618.462	-0.697632	-0.0170959
618.922	0.000756836	0.00181396
619.402	-0.00098877	0.00755005
619.862	-0.698486	-0.0171021
620.322	0.000354004	0.00182709
620.802	-0.000650024	0.0075531
621.262	-0.697479	-0.0171021
621.722	-0.000125122	0.00183899
622.202	-0.000979614	0.00754395
622.662	-0.69928	-0.0170929
623.122	-0.000204468	0.00183685
623.602	-0.000561523	0.00755615
624.062	-0.699524	-0.0170929
624.522	0.000152588	0.00184692
625.002	-0.000753784	0.0075531
625.462	-0.69754	-0.0170959
625.922	0	0.00184326
626.402	-0.00108032	0.00754089
626.862	-0.697998	-0.017099
627.322	-0.000765991	0.00186035
627.802	-0.000466919	0.00753479
628.262	-0.697723	-0.0171112
628.722	-0.000457764	0.00186646
629.202	-0.000506592	0.00755005
629.662	-0.698364	-0.0171143
630.122	0.00129395	0.00186432
630.602	-0.000686646	0.00752258
631.062	-0.699432	-0.0170959
631.522	0.00111084	0.00186646
632.002	0.000674438	0.00752258
632.462	-0.699524	-0.0171082
632.922	-0.000170898	0.00188324
633.402	-0.000567627	0.007547
633.862	-0.699066	-0.017099
634.322	0.000579834	0.00188721
634.802	-0.00065918	0.00753479
635.262	-0.697662	-0.0171234
635.722	0.000961304	0.0018866
636.202	-0.000817871	0.00753174
636.662	-0.698669	-0.0171021
637.122	0.000588989	0.00188995
637.602	-0.000491333	0.00753479
638.062	-0.698395	-0.0171143
638.522	0.000320435	0.0019043
639.002	-0.00103149	0.00752258
639.462	-0.697388	-0.0171204
639.922	0.00113525	0.00190125
640.402	-0.0010376	0.00752258
640.862	-0.699432	-0.0171143
641.322	0.00119629	0.00190582
641.802	0.00071106	0.00751343
642.262	-0.698669	-0.0171326
642.722	-6.40869e-05	0.00191589
643.202	-0.000469971	0.00752869
643.662	-0.697479	-0.0171265
644.122	0.00112915	0.00191467
644.602	-0.000360107	0.00751953
645.062	-0.698608	-0.0171112
645.522	-0.000390625	0.00192749
646.002	-0.000930786	0.00750732
646.462	-0.698883	-0.0171204
646.922	0.00119629	0.00192688
647.402	-0.00102234	0.00750732
647.862	-0.697998	-0.0171417
648.322	0.000656128	0.00193787
648.802	-0.000897217	0.00750427
649.262	-0.699341	-0.0171265
649.722	-0.000817871	0.00195099
650.202	0.000997925	0.00750122
650.662	-0.698669	-0.0171387
651.122	-0.000778198	0.00195496
651.602	0.000292969	0.00750732
652.062	-0.697968	-0.0171387
652.522	-7.62939e-05	0.0019519
653.002	0.000198364	0.00750122
653.462	-0.69812	-0.0171265
653.922	-0.000714111	0.00196655
654.402	0.00102234	0.00749512
654.862	-0.699402	-0.0171295
655.322	-0.000741577	0.00197235
655.802	6.40869e-05	0.00749329
656.262	-0.698486	-0.0171234
656.722	0.00123291	0.00196564
657.202	0.000604248	0.0074826
657.662	-0.697449	-0.0171387
658.122	0.00114746	0.00197174
658.602	-0.000799561	0.00748749
659.062	-0.69754	-0.0171448
659.522	-0.00017395	0.001987
660.002	0.00057373	0.00748291
660.462	-0.699127	-0.0171417
660.922	0.000534058	0.001987
661.402	0.000799561	0.00748108
661.862	-0.698151	-0.0171356
662.322	9.15527e-05	0.00198608
662.802	-0.000668335	0.00748901
663.262	-0.699127	-0.0171356
663.722	-0.00043335	0.00199677
664.202	-0.000640869	0.00748657
664.662	-0.6987	-0.0171295
665.122	-0.000527954	0.00200867
665.602	-0.000836182	0.00748505
666.062	-0.698029	-0.0171539
666.522	-0.000756836	0.00201355
667.002	0.000320435	0.00747864
667.462	-0.697662	-0.0171478
667.922	-0.000454712	0.00201965
668.402	-0.000222778	0.00747986
668.862	-0.699188	-0.0171539
669.322	-0.000631714	0.00202332
669.802	-0.000888062	0.00747803
670.262	-0.699341	-0.0171448
670.722	0.000195313	0.00201935
671.202	-1.52588e-05	0.00746796
671.662	-0.69928	-0.0171539
672.122	-0.000393677	0.00202728
672.603	7.01904e-05	0.00747223
673.063	-0.698669	-0.01716
673.523	-0.000772095	0.00203705
674.003	0.000418091	0.00746613
674.463	-0.699463	-0.0171478
674.923	-3.96729e-05	0.00203552
675.403	-0.000378418	0.00746338
675.863	-0.69754	-0.0171631
676.323	0.00104675	0.00203644
676.803	-0.000628662	0.00746582
677.263	-0.69754	-0.0171631
677.723	0.000192261	0.00204437
678.203	-0.000735474	0.00746338
678.663	-0.698273	-0.0171539
679.123	-0.000689697	0.00205902
679.603	0.0010437	0.00744507
680.063	-0.699005	-0.0171539
680.523	0.001171875	0.00205322
681.003	-0.000534058	0.00745789
681.463	-0.697418	-0.0171692
681.923	0.00085144	0.00205688
682.403	0.000872803	0.00744934
682.863	-0.698059	-0.0171692
683.323	-0.000112915	0.00207214
683.803	0.000195313	0.00744843
684.263	-0.699463	-0.0171539
684.723	0.000726318	0.00207214
685.203	9.46045e-05	0.00744843
685.663	-0.699524	-0.01716
686.123	-0.00055542	0.00208618
686.603	0.00120544	0.00743988
687.063	-0.697449	-0.0171631
687.523	9.46045e-05	0.00208466
688.003	-0.000161743	0.00744537
688.463	-0.69754	-0.0171753
688.923	-0.000436401	0.00208954
689.403	0.000857544	0.00743683
689.863	-0.698547	-0.0171753
690.323	0.000958252	0.00208466
690.803	0.00117798	0.00743317
691.263	-0.697449	-0.0171722
691.723	-0.000650024	0.00210449
692.203	-1.2207e-05	0.00743286
692.663	-0.699005	-0.0171631
693.123	-0.000619507	0.00210663
693.603	-0.000747681	0.00744049
694.063	-0.698669	-0.0171631
694.523	-0.000708008	0.00211456
695.003	0.000180054	0.00742462
695.463	-0.698578	-0.0171783
695.923	-3.96729e-05	0.00211639
696.403	0.00105286	0.00742432
696.863	-0.697754	-0.0171661
697.323	0.00118408	0.00211182
697.803	-0.000650024	0.00743011
698.263	-0.69928	-0.0171722
698.723	-0.000521851	0.00212952
699.203	-0.000915527	0.00743103
699.663	-0.697418	-0.0171875
700.123	0.00065918	0.00212189
700.603	-0.000817871	0.0074292
701.063	-0.698059	-0.0171844
701.523	-0.000744629	0.00213806
702.003	-9.15527e-06	0.00742279
702.463	-0.698273	-0.0171722
702.923	-0.000344849	0.00214386
703.403	-0.000622559	0.00742554
703.863	-0.69873	-0.0171844
704.323	-6.10352e-05	0.00213989
704.803	-0.000860596	0.00742249
705.263	-0.698944	-0.0171722
705.723	0.000704956	0.00213989
706.203	-0.000521851	0.00741608
706.663	-0.699127	-0.0171814
707.123	-0.000558472	0.00215668
707.603	-7.01904e-05	0.00741486
708.063	-0.698059	-0.0171936
708.523	0.000973511	0.00215149
709.003	0.000231934	0.00741119
709.463	-0.699402	-0.0171722
709.923	0.00121765	0.00215546
710.403	0.00101013	0.00740021
710.863	-0.699341	-0.0171753
711.323	0.000192261	0.00216034
711.803	0.000811768	0.00740265
712.263	-0.697968	-0.0171814
712.723	0.00088501	0.00216339
713.203	-0.000891113	0.00740753
713.663	-0.699371	-0.0171753
714.123	0.000302124	0.00217072
714.603	-0.000836182	0.00740326
715.063	-0.698395	-0.0171967
715.523	0.000265503	0.00217987
716.003	-0.000863647	0.00740387
716.463	-0.699402	-0.0171844
716.923	0.000958252	0.00217651
717.403	-0.000775146	0.00740295
717.863	-0.697784	-0.0171875
718.323	0.000997925	0.00218506
718.803	-0.000857544	0.00739502
719.263	-0.698517	-0.0171967
719.723	0.00103455	0.00218597
720.203	0.000714111	0.00738983
720.663	-0.698547	-0.0171783
721.123	0.00114746	0.00218933
721.603	0.000283813	0.00739105
722.063	-0.698944	-0.0171936
722.523	-0.000820923	0.00220551
723.003	0.00110168	0.00738617
723.463	-0.699493	-0.0171844
723.923	-0.00032959	0.00220642
724.403	0.00067749	0.00738098
724.863	-0.697876	-0.0171967
725.323	0.000283813	0.00221191
725.803	0.000881958	0.0073822
726.263	-0.699402	-0.0171844
726.723	-0.000698853	0.00222015
727.203	0.000939941	0.00737396
727.663	-0.69751	-0.0172028
728.123	0.00119324	0.00221344
728.603	0.000720215	0.00737274
729.063	-0.697266	-0.0171967
729.523	0.000408936	0.00222046
730.003	-0.000717163	0.00738495
730.463	-0.699249	-0.0171875
730.923	-0.00072937	0.00223633
731.403	-0.000567627	0.00738403
731.863	-0.698761	-0.0171906
732.323	0.000665283	0.00222809
732.803	0.000952148	0.00736877
733.263	-0.697327	-0.0172028
733.723	9.46045e-05	0.00224121
734.203	-0.000698853	0.00737427
734.663	-0.697998	-0.0171936
735.123	0.00123901	0.00223602
735.603	-0.00050354	0.00736664
736.063	-0.699371	-0.0171936
736.523	0.00078125	0.0022406
737.003	-0.000292969	0.00736847
737.463	-0.698822	-0.0171936
737.923	0.000869751	0.00224792
738.403	0.00101624	0.00736115
738.863	-0.697449	-0.0172058
739.323	-0.00072937	0.00225677
739.803	0.000314331	0.00735718
740.263	-0.697845	-0.0172119
740.723	0.00110779	0.00225311
741.203	-0.000509644	0.00736328
741.663	-0.697571	-0.0171997
742.123	-0.000744629	0.00226837
742.603	-3.35693e-05	0.00736267
743.063	-0.697662	-0.017215
743.523	0.00107422	0.00226746
744.003	0.000518799	0.00736115
744.463	-0.698242	-0.017215
744.923	-0.000827026	0.00227875
745.403	0.00100098	0.00735046
745.863	-0.698517	-0.0171967
746.323	0.000463867	0.00227722
746.803	0.000680542	0.00735321
747.263	-0.699402	-0.0172028
747.723	0.00129089	0.00227661
748.203	-0.000671387	0.00736053
748.663	-0.699005	-0.0172119
749.123	0.000253296	0.00228821
749.603	0.00101929	0.00734528
750.063	-0.698792	-0.017218
750.523	-0.00062561	0.00229767
751.003	-0.000823975	0.00735443
751.463	-0.697815	-0.017215
751.923	0.000109863	0.00230072
752.403	0.000601196	0.00733765
752.863	-0.697937	-0.0172089
753.323	-0.000549316	0.00230225
753.803	-0.000640869	0.00735168
754.263	-0.697327	-0.0172211
754.723	0.000128174	0.00230042
755.203	0.00103149	0.00733521
755.663	-0.699066	-0.0172028
756.123	-0.000305176	0.00230377
756.603	-0.000665283	0.00734772
757.063	-0.698853	-0.017215
757.523	0.00100403	0.00230774
758.003	0.0009552	0.00733307
758.463	-0.697296	-0.0172089
758.923	8.54492e-05	0.00231201
759.403	0.000930786	0.0073291
759.863	-0.698822	-0.0172028
760.323	0.000875854	0.00232025
760.803	-0.000314331	0.00733887
761.263	-0.699463	-0.0172028
761.723	0.000296021	0.00232361
762.203	-0.000787354	0.00733704
762.663	-0.697357	-0.0172119
763.123	-0.00072937	0.00233307
763.603	0.000631714	0.00732178
764.063	-0.699463	-0.0172058
764.523	0.00067749	0.00232391
765.003	0.000827026	0.00731964
765.463	-0.698029	-0.0172058
765.923	0.00106201	0.0023291
766.403	0.00010376	0.00732544
766.863	-0.697327	-0.0172119
767.323	-0.000289917	0.00234558
767.803	0.000958252	0.00731689
768.263	-0.698822	-0.0172211
768.723	-0.000500488	0.0023526
769.203	-0.000820923	0.00732666
769.663	-0.697784	-0.0172241
770.123	-0.000393677	0.00234985
770.603	0.00100403	0.00731171
771.063	-0.697601	-0.0172119
771.523	-0.000741577	0.00235779
772.003	0.000198364	0.0073175
772.463	-0.697662	-0.0172089
772.923	0.00101318	0.00234833
773.403	0.000344849	0.00731049
773.863	-0.69873	-0.0172028
774.323	0.00108337	0.00235443
774.803	-0.000839233	0.00731781
775.263	-0.699402	-0.0172119
775.723	0.000860596	0.00235687
776.203	-0.00093689	0.00731628
776.663	-0.699249	-0.0172028
777.123	0.000613403	0.00236633
777.603	0.000311279	0.00730408
778.063	-0.699219	-0.0172211
778.523	-0.000357056	0.00237732
779.003	-0.000619507	0.00730957
779.463	-0.698334	-0.0172119
779.923	0.00107727	0.00236969
780.403	-0.000723267	0.00730438
780.863	-0.698608	-0.0172211
781.323	0.00116577	0.00237396
781.803	-0.000836182	0.00730743
782.263	-0.699219	-0.0172241
782.723	-0.000726318	0.00238739
783.203	-9.46045e-05	0.00730072
783.663	-0.698914	-0.0172089
784.123	0.000775146	0.00238495
784.603	-0.000915527	0.00730286
785.063	-0.698029	-0.0172119
785.523	-0.000595093	0.00239532
786.003	-0.000793457	0.00729858
786.463	-0.699249	-0.0172119
786.923	-0.000628662	0.00239868
787.403	0.00098877	0.00728638
787.863	-0.698517	-0.0172089
788.323	0.00121765	0.00239319
788.803	-0.000796509	0.00729034
789.263	-0.697845	-0.017218
789.723	0.000100708	0.0024054
790.203	-0.000808716	0.00729584
790.663	-0.699097	-0.0172028
791.123	0.00115356	0.00240143
791.603	-0.000271606	0.0072937
792.063	-0.697571	-0.0172211
792.523	-0.000769043	0.00241241
793.003	-0.00102539	0.00728821
793.463	-0.698517	-0.0172241
793.923	-0.000305176	0.00241913
794.403	-0.000772095	0.00728699
794.863	-0.697968	-0.0172089
795.323	-7.62939e-05	0.00241547
795.803	0.000994873	0.00727661
796.263	-0.699249	-0.0172211
796.723	0.00110474	0.00241486
797.203	0.00110168	0.00727203
797.663	-0.69751	-0.0172241
798.123	-0.000741577	0.00243073
798.603	0.000683594	0.00727478
799.063	-0.698059	-0.0172333
799.523	0.000778198	0.00242249
800.003	0.000256348	0.00727295
800.463	-0.698029	-0.0172241
800.923	0.00118408	0.00242706
801.403	0.00112305	0.00727081
801.863	-0.699097	-0.0172058
802.323	0.00110168	0.0024292
802.803	0.000869751	0.0072644
803.263	-0.69873	-0.017215
803.723	-0.000610352	0.00244293
804.203	-0.000601196	0.00727417
804.663	-0.698822	-0.017215
805.123	-0.000442505	0.00244995
805.603	-0.000488281	0.00727539
806.063	-0.697815	-0.0172302
806.523	0.00010376	0.00245056
807.003	0.000299072	0.00726654
807.463	-0.699219	-0.0172211
807.923	0.000994873	0.00244507
808.403	-0.000494385	0.00726685
808.863	-0.698883	-0.0172211
809.323	-0.000390625	0.00245636
809.803	-0.000891113	0.00726685
810.263	-0.697479	-0.0172333
810.723	-0.000772095	0.00246429
811.203	-0.000732422	0.00726105
811.663	-0.697998	-0.0172272
812.123	0.000878906	0.00245972
812.603	0.000967407	0.00724915
813.063	-0.699249	-0.0172211
813.523	0.00050354	0.00246674
814.003	0.000302124	0.00725525
814.463	-0.698792	-0.0172272
814.923	0.000820923	0.00246246
815.403	-0.000326538	0.00725891
815.863	-0.698914	-0.0172119
816.323	-0.000650024	0.0024765
816.803	-0.000869751	0.007258
817.263	-0.697876	-0.017215
817.723	0.000830078	0.00247498
818.203	-0.00032959	0.00725494
818.663	-0.697815	-0.0172333
819.123	0.00127869	0.00247437
819.603	0.000595093	0.00724335
820.063	-0.697662	-0.0172241
820.523	-0.000494385	0.00248566
821.003	0.000540161	0.00723969
821.463	-0.699463	-0.0172119
821.923	0.00065918	0.0024823
822.403	-0.000802612	0.0072464
822.863	-0.699219	-0.0172089
823.323	0.000830078	0.00248444
823.803	0.000219727	0.00723541
824.263	-0.699432	-0.017215
824.723	0.000616455	0.00249115
825.203	0.000692749	0.00723755
825.663	-0.698029	-0.017215
826.123	0.000744629	0.00249817
826.603	-0.000299072	0.00724274
827.063	-0.697601	-0.0172241
827.523	-0.000564575	0.00250092
828.003	-0.000479126	0.00724121
828.463	-0.699371	-0.017215
828.923	-0.000421143	0.00250732
829.403	3.35693e-05	0.00723602
829.863	-0.699402	-0.0172119
830.323	-0.000753784	0.00251556
830.803	-0.00065918	0.00723785
831.263	-0.698761	-0.0172241
831.723	-0.000231934	0.00251892
832.203	0.00072937	0.00722412
832.663	-0.699493	-0.0172089
833.123	0.000912476	0.00250854
833.603	-0.000701904	0.00723206
834.063	-0.697968	-0.0172119
834.523	0.000463867	0.00251404
835.003	-0.000253296	0.00722961
835.463	-0.698425	-0.0172272
835.923	2.44141e-05	0.00252747
836.403	0.00115967	0.00721985
836.863	-0.699371	-0.017215
837.323	4.88281e-05	0.00252777
837.803	-6.10352e-06	0.00721802
838.263	-0.699341	-0.0172089
838.723	0.00115662	0.00252258
839.203	0.000314331	0.00721802
839.663	-0.697418	-0.0172241
840.123	0.00125732	0.00252899
840.603	0.001171875	0.0072113
841.063	-0.698395	-0.017218
841.523	0.00116272	0.00252869
842.003	-0.000772095	0.00722168
842.463	-0.698212	-0.0172302
842.923	-0.000228882	0.00253845
843.403	0.000616455	0.007211
843.863	-0.698303	-0.0172241
844.323	0.000137329	0.00254852
844.803	-0.000466919	0.00720795
845.263	-0.699402	-0.0172119
845.723	-0.000231934	0.00255035
846.203	0.000888062	0.00720581
846.663	-0.69751	-0.0172211
847.123	0.00120239	0.00254364
847.603	-0.000146484	0.00720428
848.063	-0.699005	-0.017218
848.523	-0.000320435	0.00254883
849.003	0.000619507	0.00720642
849.463	-0.697632	-0.0172272
849.923	0.000695801	0.00255035
850.403	-0.000604248	0.00720703
850.863	-0.697906	-0.0172211
851.323	0.000878906	0.00255249
851.803	-0.000738525	0.00720245
852.263	-0.699432	-0.0172089
852.723	-0.000634766	0.00256897
853.203	-0.000231934	0.00719116
853.663	-0.69931	-0.0172058
854.123	-0.000784302	0.00256897
854.603	0.000366211	0.00719055
855.063	-0.698578	-0.0172211
855.523	0.000463867	0.00257019
856.003	-0.00083313	0.00719574
856.463	-0.698883	-0.017215
856.923	-0.000735474	0.00257843
857.403	-1.2207e-05	0.00719696
857.863	-0.698761	-0.0172058
858.323	-0.00045166	0.00258057
858.803	-0.000378418	0.00719391
859.263	-0.699463	-0.0172089
859.723	0	0.002578125
860.203	0.00085144	0.00718231
860.663	-0.698242	-0.0172119
861.123	-0.00090332	0.00258484
861.603	0.00114441	0.00717957
862.063	-0.698639	-0.017218
862.523	0.00100403	0.002578125
863.003	-7.62939e-05	0.00718109
863.463	-0.699554	-0.017218
863.923	-0.000445557	0.00259033
864.403	-6.71387e-05	0.00718018
864.863	-0.697968	-0.0172089
865.323	0.000115967	0.00259705
865.803	-0.000662231	0.00717682
866.263	-0.697693	-0.0172211
866.723	0.00093689	0.00259186
867.203	8.23975e-05	0.00717804
867.663	-0.698608	-0.0172241
868.123	0.000512695	0.00259827
868.603	-0.000662231	0.00717957
869.063	-0.697449	-0.0172211
869.523	0.000628662	0.0025946
870.003	-0.000369263	0.00716858
870.463	-0.697662	-0.017218
870.923	0.00102844	0.00259735
871.403	-0.000720215	0.0071759
871.863	-0.698059	-0.0172211
872.323	5.49316e-05	0.00261078
872.803	-0.000363159	0.00716949
873.263	-0.697571	-0.017218
873.723	-0.000421143	0.00260834
874.203	-9.76562e-05	0.00716248
874.663	-0.698151	-0.0172089
875.123	0.000979614	0.00260956
875.603	0.00032959	0.00716156
876.063	-0.699066	-0.0171997
876.523	0.00012207	0.00261414
877.003	-0.000814819	0.00716888
877.463	-0.698181	-0.0172211
877.923	0.000256348	0.00261475
878.403	-0.000418091	0.00716705
878.863	-0.699402	-0.0171997
879.323	-0.000732422	0.00262848
879.803	3.66211e-05	0.00716156
880.263	-0.699554	-0.0172028
880.723	0.000994873	0.00262329
881.203	0.000640869	0.00715149
881.623	0.001171875	0.000784302