File: Edgar/20240607/20240607/electrodeposition_pulsed_potential_20240607_E/pulses_4000_to_5000.txt
Time (s)	WE(1).Potential (V)	WE(1).Current (A)
3016.74	-0.699188	-0.0195221
3017.2	0.000521851	0.00234283
3017.68	-3.05176e-05	0.00509521
3018.14	-0.699188	-0.0170135
3018.6	-0.000796509	0.00361176
3019.08	-0.000872803	0.00570435
3019.54	-0.697601	-0.016684
3020	-0.000787354	0.00382141
3020.48	0.000836182	0.00581604
3020.94	-0.698212	-0.0165985
3021.4	0.000888062	0.00387573
3021.88	-0.000671387	0.00587372
3022.34	-0.69754	-0.016568
3022.8	-0.000778198	0.00391296
3023.28	0.00106506	0.00588593
3023.74	-0.698456	-0.0165283
3024.2	-0.000683594	0.00392853
3024.68	0.000784302	0.00590271
3025.14	-0.69751	-0.0165405
3025.6	-0.000750732	0.00393921
3026.08	0.000805664	0.00590881
3026.54	-0.699005	-0.0165314
3027	5.49316e-05	0.00394562
3027.48	-0.000765991	0.00592621
3027.94	-0.698334	-0.016507
3028.4	0.00071106	0.00395294
3028.88	0.000604248	0.00591919
3029.34	-0.698517	-0.0165039
3029.8	0.000875854	0.0039505
3030.28	-0.00055542	0.00593262
3030.74	-0.697449	-0.01651
3031.2	-7.32422e-05	0.00396179
3031.68	2.13623e-05	0.00593414
3032.14	-0.698944	-0.0164917
3032.6	3.96729e-05	0.00396576
3033.08	-0.000643921	0.00593994
3033.54	-0.697784	-0.0165009
3034	-0.000802612	0.00396973
3034.48	0.000357056	0.0059375
3034.94	-0.69931	-0.0164856
3035.4	0.0009765625	0.00396301
3035.88	0.000793457	0.00594116
3036.34	-0.699371	-0.0164886
3036.8	0.00104065	0.00396667
3037.28	-3.05176e-06	0.0059494
3037.74	-0.699371	-0.0164825
3038.2	0.000918579	0.00396942
3038.68	-0.00088501	0.00595551
3039.14	-0.698212	-0.0165009
3039.6	5.79834e-05	0.0039801
3040.08	0.000805664	0.0059491
3040.54	-0.698273	-0.0165039
3041	0.000744629	0.00397888
3041.48	-0.000802612	0.00596344
3041.94	-0.698669	-0.0164886
3042.4	-0.000390625	0.00398743
3042.88	-0.000744629	0.00596069
3043.34	-0.697937	-0.0164948
3043.8	0.00015564	0.00397858
3044.28	0.000704956	0.00595398
3044.74	-0.697723	-0.0164886
3045.2	-0.000479126	0.00398804
3045.68	0.00090332	0.00595032
3046.14	-0.697845	-0.0164764
3046.6	0.00101318	0.00398315
3047.08	-0.000161743	0.00596252
3047.54	-0.69873	-0.0164856
3048	0.00115051	0.00398621
3048.48	-0.000216675	0.0059552
3048.94	-0.69751	-0.0164795
3049.4	-0.000762939	0.00399475
3049.88	0.000802612	0.00595551
3050.34	-0.69754	-0.0164825
3050.8	0.000454712	0.00399048
3051.28	0.000735474	0.0059549
3051.74	-0.699127	-0.0164642
3052.2	-0.00015564	0.00399292
3052.68	0.000811768	0.00596222
3053.14	-0.697723	-0.0164825
3053.6	-0.000363159	0.00399872
3054.08	0.000488281	0.00595825
3054.54	-0.699341	-0.0164734
3055	-0.000744629	0.00400269
3055.48	0.00101013	0.00595978
3055.94	-0.699341	-0.0164734
3056.4	0.000875854	0.00399078
3056.88	-0.000256348	0.00596466
3057.34	-0.698303	-0.0164825
3057.8	0.000631714	0.00400116
3058.28	-0.000915527	0.00597168
3058.74	-0.69754	-0.0164764
3059.2	0.000183105	0.00399567
3059.68	0.000204468	0.00596741
3060.14	-0.697632	-0.0164673
3060.6	-0.000744629	0.00400604
3061.08	-0.000750732	0.00597137
3061.54	-0.697906	-0.0164795
3062	-5.49316e-05	0.00400513
3062.48	0.000933838	0.00596161
3062.94	-0.698486	-0.0164642
3063.4	0.000854492	0.00400238
3063.88	0.000958252	0.00596313
3064.34	-0.699402	-0.0164612
3064.8	-0.000357056	0.00400574
3065.28	-0.000817871	0.00597229
3065.74	-0.699493	-0.0164673
3066.2	-0.000610352	0.00400696
3066.68	-9.15527e-06	0.00596802
3067.14	-0.697662	-0.0164673
3067.6	0.00125122	0.00400116
3068.08	-9.15527e-05	0.00595978
3068.54	-0.69754	-0.0164734
3069	-0.000778198	0.00401093
3069.48	0.000561523	0.005961
3069.94	-0.697662	-0.0164703
3070.4	0.000704956	0.00399933
3070.88	-0.000631714	0.0059726
3071.34	-0.699249	-0.0164642
3071.8	0.000814819	0.00400269
3072.28	0.000662231	0.00596069
3072.74	-0.697662	-0.0164734
3073.2	-0.000515747	0.00400482
3073.68	-0.000820923	0.0059726
3074.14	-0.69751	-0.0164673
3074.6	0.000418091	0.00400787
3075.08	-0.000296021	0.00596741
3075.54	-0.697449	-0.0164642
3076	0.00102844	0.00400391
3076.48	-0.000421143	0.00596893
3076.94	-0.698792	-0.0164581
3077.4	-0.000344849	0.00400574
3077.88	0.00109558	0.00596344
3078.34	-0.698792	-0.016452
3078.8	0.000564575	0.00400543
3079.28	-0.000387573	0.00597595
3079.74	-0.698822	-0.0164551
3080.2	-0.0006073	0.00401642
3080.68	-0.000817871	0.00597504
3081.14	-0.699097	-0.0164673
3081.6	0.000857544	0.00400482
3082.08	-0.00015564	0.00597443
3082.54	-0.697998	-0.0164673
3083	0.00102234	0.00400635
3083.48	-0.000778198	0.00597565
3083.94	-0.69754	-0.0164642
3084.4	0.00104675	0.00400726
3084.88	-0.000241089	0.00597473
3085.34	-0.699554	-0.0164642
3085.8	2.13623e-05	0.0040152
3086.28	-0.000311279	0.00597412
3086.74	-0.698578	-0.0164703
3087.2	-0.000445557	0.0040097
3087.68	0.000265503	0.00597229
3088.14	-0.699402	-0.0164551
3088.6	0.000564575	0.00400787
3089.08	0.000527954	0.00596619
3089.54	-0.699463	-0.0164612
3090	0.00071106	0.00401215
3090.48	3.96729e-05	0.00596924
3090.94	-0.69931	-0.016452
3091.4	-0.000543213	0.00401947
3091.88	-0.00085144	0.00597382
3092.34	-0.698364	-0.0164673
3092.8	-7.32422e-05	0.00401703
3093.28	0.000344849	0.00596832
3093.74	-0.69754	-0.0164673
3094.2	-0.000442505	0.00401947
3094.68	-0.000787354	0.00597137
3095.14	-0.699432	-0.016452
3095.6	-0.000610352	0.00401642
3096.08	0.000405884	0.00596283
3096.54	-0.697968	-0.016452
3097	0.00120544	0.00401123
3097.48	-0.000784302	0.00596771
3097.94	-0.699463	-0.0164429
3098.4	0.000671387	0.00401337
3098.88	-0.000390625	0.00597107
3099.34	-0.699432	-0.016449
3099.8	-0.000430298	0.0040213
3100.28	0.00050354	0.00595947
3100.74	-0.697845	-0.0164612
3101.2	-0.000570679	0.00401978
3101.68	-0.000836182	0.00596924
3102.14	-0.699463	-0.0164459
3102.6	-0.000692749	0.00402313
3103.08	-0.000204468	0.00596924
3103.54	-0.697662	-0.016452
3104	-0.000415039	0.00402222
3104.48	0.00103455	0.00595886
3104.94	-0.699097	-0.0164429
3105.4	0.000924683	0.00401184
3105.88	0.000344849	0.00595917
3106.34	-0.69751	-0.0164551
3106.8	0.000817871	0.00401886
3107.28	-0.000375366	0.00595947
3107.74	-0.697632	-0.0164581
3108.2	0.00108643	0.00401215
3108.68	0.00103149	0.00595764
3109.14	-0.698975	-0.0164368
3109.6	-0.000521851	0.00402313
3110.08	0.000949097	0.00595825
3110.54	-0.69754	-0.0164581
3111	0.000875854	0.00401123
3111.48	-0.00067749	0.00596832
3111.94	-0.697968	-0.016449
3112.4	0.000460815	0.00402222
3112.88	0.000610352	0.00596375
3113.34	-0.699249	-0.0164398
3113.8	0.000869751	0.00401154
3114.28	-0.000787354	0.00596954
3114.74	-0.697998	-0.0164398
3115.2	0.00062561	0.00401642
3115.68	-0.000256348	0.00596313
3116.14	-0.699402	-0.0164429
3116.6	0.00117493	0.0040155
3117.08	0.000521851	0.00595551
3117.54	-0.699066	-0.0164551
3118	-0.000595093	0.00402222
3118.48	0.0010437	0.00595795
3118.94	-0.699371	-0.0164459
3119.4	0.000894165	0.00401123
3119.88	-0.000738525	0.00596497
3120.34	-0.698761	-0.0164398
3120.8	0.000170898	0.00402069
3121.28	0.000775146	0.00595734
3121.74	-0.698914	-0.0164551
3122.2	0.00121765	0.00401337
3122.68	-0.000604248	0.00596313
3123.14	-0.699341	-0.0164398
3123.6	0.000708008	0.00401703
3124.08	0.000259399	0.00595398
3124.54	-0.698029	-0.0164398
3125	-0.000292969	0.0040213
3125.48	-0.000247192	0.00596252
3125.94	-0.699127	-0.0164459
3126.4	0.00110779	0.00401367
3126.88	0.000683594	0.00595093
3127.34	-0.697601	-0.0164429
3127.8	4.88281e-05	0.00402161
3128.28	-0.000765991	0.00596527
3128.74	-0.697876	-0.0164459
3129.2	0.000765991	0.00401794
3129.68	-0.000592041	0.00596466
3130.14	-0.6987	-0.0164429
3130.6	-0.00043335	0.00402191
3131.08	0.000415039	0.00595856
3131.54	-0.69751	-0.0164581
3132	-0.000891113	0.00402527
3132.48	0.000668335	0.00595581
3132.94	-0.699188	-0.0164398
3133.4	0.000537109	0.00401825
3133.88	-0.000747681	0.00596436
3134.34	-0.698578	-0.0164368
3134.8	-0.000744629	0.00402679
3135.28	0.000827026	0.00595612
3135.74	-0.697632	-0.0164551
3136.2	0.00124207	0.00401672
3136.68	0.000561523	0.00595978
3137.14	-0.69809	-0.016452
3137.6	0.000915527	0.0040155
3138.08	-0.000396729	0.00596283
3138.54	-0.699371	-0.0164429
3139	0.0009552	0.00401794
3139.48	0.000628662	0.00595215
3139.94	-0.697479	-0.016452
3140.4	0.000708008	0.00401886
3140.88	0.000674438	0.00595184
3141.34	-0.697876	-0.0164429
3141.8	-0.000357056	0.00402649
3142.28	0.000845337	0.00595367
3142.74	-0.697601	-0.016452
3143.2	0.00010376	0.00402252
3143.68	-0.000799561	0.00596039
3144.14	-0.697968	-0.0164551
3144.6	0.000894165	0.004021
3145.08	0.000985718	0.00595032
3145.54	-0.698517	-0.0164581
3146	0.000952148	0.00402252
3146.48	0.00114136	0.00595093
3146.94	-0.69754	-0.0164551
3147.4	-0.000100708	0.00402344
3147.88	0.000177002	0.00595642
3148.34	-0.697449	-0.0164429
3148.8	0.000857544	0.00401703
3149.28	0.00010376	0.00595062
3149.74	-0.699371	-0.0164337
3150.2	0.000424194	0.00401825
3150.68	-0.000369263	0.00595001
3151.14	-0.698181	-0.0164337
3151.6	0.000866699	0.00402008
3152.08	-0.000778198	0.00595673
3152.54	-0.699097	-0.0164398
3153	-0.000476074	0.00402985
3153.48	0.000619507	0.00594879
3153.94	-0.698761	-0.0164459
3154.4	-0.000280762	0.00402405
3154.88	-0.000671387	0.00595703
3155.34	-0.698029	-0.0164337
3155.8	0.00108032	0.00401825
3156.28	0.000622559	0.00594452
3156.74	-0.699371	-0.0164307
3157.2	-0.000732422	0.00403046
3157.68	0.00105286	0.00594482
3158.14	-0.698914	-0.0164337
3158.6	0.000198364	0.004021
3159.08	-0.000820923	0.00595612
3159.54	-0.699005	-0.0164307
3160	0.000714111	0.00401764
3160.48	0.000585937	0.00594269
3160.94	-0.698303	-0.0164459
3161.4	-0.000640869	0.00403168
3161.88	0.00045166	0.00594513
3162.34	-0.697479	-0.0164398
3162.8	-0.00062561	0.0040329
3163.28	0.00101929	0.0059433
3163.74	-0.699463	-0.0164276
3164.2	-0.000115967	0.00403137
3164.68	0.000289917	0.00594421
3165.14	-0.698792	-0.0164276
3165.6	0.00067749	0.00403015
3166.08	-0.000317383	0.00594727
3166.54	-0.698669	-0.0164398
3167	0.000170898	0.00402649
3167.48	-0.000671387	0.00595215
3167.94	-0.69754	-0.0164398
3168.4	0.0009765625	0.00401917
3168.88	-0.000253296	0.00594635
3169.34	-0.697906	-0.0164337
3169.8	-0.0003479	0.00403107
3170.28	0.00101624	0.00594574
3170.74	-0.69754	-0.0164429
3171.2	-0.000671387	0.00403107
3171.68	0.000524902	0.00594238
3172.14	-0.698517	-0.0164429
3172.6	0.000640869	0.00402496
3173.08	-0.000708008	0.00595032
3173.54	-0.697876	-0.0164398
3174	0.000137329	0.00402344
3174.48	-0.000552368	0.00595093
3174.94	-0.698853	-0.0164398
3175.4	-0.00071106	0.00403381
3175.88	0.000338745	0.00595001
3176.34	-0.699371	-0.0164337
3176.8	0.00107422	0.00401947
3177.28	-0.000439453	0.00595093
3177.74	-0.697418	-0.0164337
3178.2	-0.000665283	0.00403259
3178.68	7.32422e-05	0.00594757
3179.14	-0.699127	-0.0164337
3179.6	-0.00038147	0.00402771
3180.08	-0.000622559	0.0059436
3180.54	-0.69928	-0.0164368
3181	0.00107727	0.00402344
3181.48	-0.000790405	0.0059491
3181.94	-0.699463	-0.0164307
3182.4	0.00114441	0.00402222
3182.88	-0.000311279	0.00594269
3183.34	-0.697632	-0.0164429
3183.8	0.000561523	0.00402405
3184.28	0.000613403	0.00593658
3184.74	-0.697998	-0.0164307
3185.2	-0.0003479	0.00402588
3185.68	0.00110168	0.00593781
3186.14	-0.698975	-0.0164215
3186.6	0.000714111	0.00402313
3187.08	0.000100708	0.00594055
3187.54	-0.698425	-0.0164429
3188	-4.88281e-05	0.00403229
3188.48	-0.000521851	0.00595001
3188.94	-0.698486	-0.0164368
3189.4	-0.000338745	0.00403076
3189.88	0.00105896	0.00593994
3190.34	-0.699127	-0.0164246
3190.8	0.000949097	0.00402069
3191.28	0.000741577	0.00593506
3191.74	-0.697571	-0.0164398
3192.2	0.000366211	0.00402435
3192.68	0.000634766	0.00593567
3193.14	-0.697784	-0.0164459
3193.6	-0.000762939	0.00403442
3194.08	-0.000283813	0.00593994
3194.54	-0.699219	-0.0164307
3195	-0.00085144	0.0040329
3195.48	0.000732422	0.00594452
3195.94	-0.699371	-0.0164307
3196.4	-1.2207e-05	0.00403137
3196.88	0.000857544	0.00593658
3197.34	-0.69931	-0.0164337
3197.8	0.000991821	0.00402527
3198.28	0.000753784	0.00593658
3198.74	-0.698761	-0.0164337
3199.2	0.000592041	0.00402618
3199.68	0.00100403	0.00593475
3200.14	-0.699371	-0.0164246
3200.6	0.00118103	0.00402618
3201.08	0.000994873	0.0059317
3201.54	-0.697601	-0.0164398
3202	0.000619507	0.00402557
3202.48	-0.000787354	0.00594269
3202.94	-0.699097	-0.0164215
3203.4	0.0011261	0.00402435
3203.88	0.00107117	0.00593384
3204.34	-0.699402	-0.0164215
3204.8	-0.000610352	0.004039
3205.28	-0.000180054	0.00593414
3205.74	-0.697571	-0.0164307
3206.2	-0.000256348	0.00403168
3206.68	-0.000631714	0.00594391
3207.14	-0.697449	-0.0164307
3207.6	0.000726318	0.00402924
3208.08	0.000338745	0.00593719
3208.54	-0.698608	-0.0164337
3209	-0.000341797	0.00403259
3209.48	0.00100098	0.00593079
3209.94	-0.699005	-0.0164185
3210.4	-0.000817871	0.00403778
3210.88	4.88281e-05	0.00593414
3211.34	-0.698944	-0.0164337
3211.8	0.000942993	0.00402802
3212.28	0.000912476	0.00593231
3212.74	-0.699036	-0.0164368
3213.2	-0.000424194	0.00403748
3213.68	-0.000402832	0.00594177
3214.14	-0.698975	-0.0164246
3214.6	0.00120544	0.00402679
3215.08	0.000274658	0.00592987
3215.54	-0.697723	-0.0164276
3216	0.000405884	0.0040332
3216.48	-5.49316e-05	0.00593811
3216.94	-0.699402	-0.0164185
3217.4	-0.000131226	0.00403107
3217.88	0.000476074	0.00592896
3218.34	-0.69931	-0.0164215
3218.8	0.000762939	0.00402649
3219.28	-0.000708008	0.00593719
3219.74	-0.6987	-0.0164337
3220.2	0.000778198	0.00403381
3220.68	-0.000769043	0.00594086
3221.14	-0.699188	-0.0164154
3221.6	6.10352e-05	0.00403656
3222.08	-9.46045e-05	0.00593231
3222.54	-0.699432	-0.0164246
3223	-0.000540161	0.00403778
3223.48	-0.000311279	0.00593506
3223.94	-0.699036	-0.0164246
3224.4	0.000537109	0.00403412
3224.88	-0.000726318	0.00593811
3225.34	-0.697571	-0.0164337
3225.8	0.00039978	0.00402649
3226.28	8.8501e-05	0.00592834
3226.74	-0.697876	-0.0164215
3227.2	0.000912476	0.00402496
3227.68	6.40869e-05	0.00592743
3228.14	-0.699127	-0.0164276
3228.6	0.000997925	0.00402527
3229.08	0.000244141	0.00592438
3229.54	-0.697784	-0.0164368
3230	0.000552368	0.00402313
3230.48	0.000537109	0.00592133
3230.94	-0.697632	-0.0164368
3231.4	0.000680542	0.00403046
3231.88	0.000610352	0.00592377
3232.34	-0.698029	-0.0164368
3232.8	0.00108337	0.00402832
3233.28	-0.000402832	0.00593323
3233.74	-0.69754	-0.0164368
3234.2	-0.000335693	0.00403839
3234.68	0.00115967	0.00592407
3235.14	-0.698212	-0.0164185
3235.6	0.000640869	0.00402679
3236.08	0.00103455	0.00592224
3236.54	-0.697998	-0.0164215
3237	6.10352e-06	0.00403229
3237.48	-0.000189209	0.00592682
3237.94	-0.697449	-0.0164246
3238.4	0.00065918	0.00403259
3238.88	0.000317383	0.00592804
3239.34	-0.69809	-0.0164307
3239.8	0.000369263	0.00403839
3240.28	-0.000476074	0.00592316
3240.74	-0.699219	-0.0164185
3241.2	-0.000238037	0.00403442
3241.68	-0.000830078	0.0059314
3242.14	-0.699127	-0.0164246
3242.6	0.00106812	0.00403015
3243.08	-0.000186157	0.00592865
3243.54	-0.697784	-0.0164215
3244	0.000430298	0.00403717
3244.48	-0.000827026	0.0059317
3244.94	-0.697998	-0.0164307
3245.4	-0.000720215	0.00404053
3245.88	0.00055542	0.00591888
3246.34	-0.697754	-0.0164307
3246.8	-0.000695801	0.00404205
3247.28	0.000588989	0.00591949
3247.74	-0.699371	-0.01640625
3248.2	0.000405884	0.00403625
3248.68	-0.000793457	0.00592865
3249.14	-0.697754	-0.0164185
3249.6	0.000784302	0.00402893
3250.08	-0.000897217	0.00592834
3250.54	-0.697571	-0.0164246
3251	-0.000686646	0.00404022
3251.48	0.000836182	0.00591949
3251.94	-0.69751	-0.0164185
3252.4	0.0010376	0.00403046
3252.88	-0.000668335	0.00592651
3253.34	-0.698029	-0.0164246
3253.8	-0.000799561	0.00404022
3254.28	-0.0006073	0.00592133
3254.74	-0.699188	-0.0164154
3255.2	0.00107727	0.00403107
3255.68	-0.000323486	0.00592651
3256.14	-0.697693	-0.0164185
3256.6	-0.000527954	0.00404266
3257.08	-4.88281e-05	0.00592072
3257.54	-0.699524	-0.0164154
3258	-0.000701904	0.00404236
3258.48	0.00090332	0.00591705
3258.94	-0.699249	-0.0164001
3259.4	0.00118408	0.00403351
3259.88	0.000646973	0.00591339
3260.34	-0.699005	-0.0164093
3260.8	0.00100403	0.00403046
3261.28	0.0010437	0.00591461
3261.74	-0.697662	-0.0164215
3262.2	0.000119019	0.00403595
3262.68	0.000527954	0.00591797
3263.14	-0.699158	-0.0163971
3263.6	0.000869751	0.00403168
3264.08	-0.000616455	0.0059259
3264.54	-0.699493	-0.01640625
3265	-0.000735474	0.00404022
3265.48	0.000997925	0.00591431
3265.94	-0.699188	-0.0164093
3266.4	0.000180054	0.00403564
3266.88	0.00098877	0.005914
3267.34	-0.698792	-0.0164154
3267.8	-0.000396729	0.00403992
3268.28	-8.54492e-05	0.00592194
3268.74	-0.699005	-0.0164032
3269.2	0.000863647	0.00403839
3269.68	0.00115051	0.0059137
3270.14	-0.698364	-0.0164032
3270.6	-0.000582886	0.00404327
3271.08	0.000942993	0.00591248
3271.54	-0.698639	-0.0163971
3272	-0.000418091	0.00404022
3272.48	-0.00022583	0.00592285
3272.94	-0.699432	-0.0164001
3273.4	0.00105286	0.00403412
3273.88	0.00105286	0.00591339
3274.34	-0.697571	-0.0164154
3274.8	0.00118713	0.00403229
3275.28	4.27246e-05	0.00591431
3275.74	-0.699432	-0.0164032
3276.2	7.93457e-05	0.00403839
3276.68	0.000350952	0.00591797
3277.14	-0.699524	-0.01640625
3277.6	0.00106812	0.00403564
3278.08	-0.000378418	0.00591766
3278.54	-0.697571	-0.0164154
3279	-0.000863647	0.00404388
3279.48	0.00100403	0.00591644
3279.94	-0.699219	-0.0164032
3280.4	0.000964355	0.00403656
3280.88	-7.62939e-05	0.00591858
3281.34	-0.699371	-0.0164032
3281.8	-0.000610352	0.00404541
3282.28	0.000683594	0.00590973
3282.74	-0.699158	-0.0164032
3283.2	-0.000506592	0.00404297
3283.68	0.000942993	0.00590851
3284.14	-0.698853	-0.0164093
3284.6	0.000973511	0.00404022
3285.08	0.000912476	0.0059079
3285.54	-0.69751	-0.0164093
3286	-8.23975e-05	0.0040451
3286.48	0.000994873	0.00590851
3286.94	-0.698578	-0.0164215
3287.4	-0.0006073	0.00404877
3287.88	0.00101929	0.00591125
3288.34	-0.698547	-0.0164154
3288.8	0.000622559	0.00404785
3289.28	0.000579834	0.00591003
3289.74	-0.698853	-0.0164032
3290.2	-0.000836182	0.00404846
3290.68	-0.000619507	0.00591888
3291.14	-0.698151	-0.0164215
3291.6	0.000964355	0.00403656
3292.08	0.000460815	0.00591156
3292.54	-0.699249	-0.0164032
3293	0	0.00404694
3293.48	-0.000778198	0.00592072
3293.94	-0.699219	-0.01640625
3294.4	-0.000653076	0.0040451
3294.88	0.00039978	0.00591461
3295.34	-0.69754	-0.0164093
3295.8	-0.000750732	0.00404999
3296.28	-0.000592041	0.00591949
3296.74	-0.69754	-0.0164032
3297.2	-0.000112915	0.0040451
3297.68	0.000930786	0.00590668
3298.14	-0.698822	-0.0163971
3298.6	-0.000405884	0.00404297
3299.08	0.000167847	0.00591644
3299.54	-0.699371	-0.0164032
3300	0.00020752	0.00404266
3300.48	-0.00057373	0.00591827
3300.94	-0.698792	-0.0164001
3301.4	0.000109863	0.00404236
3301.88	-0.00065918	0.00591431
3302.34	-0.697754	-0.0164154
3302.8	0.000646973	0.00404083
3303.28	0.000463867	0.00590668
3303.74	-0.698761	-0.0163971
3304.2	0.000476074	0.00404938
3304.68	0.000888062	0.00590668
3305.14	-0.697601	-0.01640625
3305.6	-0.000393677	0.00404846
3306.08	0.000241089	0.00590729
3306.54	-0.699463	-0.0164001
3307	0.000372314	0.00404266
3307.48	0.000830078	0.00590759
3307.94	-0.697662	-0.01640625
3308.4	-0.000823975	0.00405243
3308.88	0.001171875	0.00590759
3309.34	-0.69928	-0.0164032
3309.8	-0.000454712	0.00404694
3310.28	-0.000759888	0.00591492
3310.74	-0.697693	-0.0164093
3311.2	-0.000436401	0.00404694
3311.68	-0.000115967	0.0059079
3312.14	-0.698822	-0.0164001
3312.6	-0.000662231	0.00404877
3313.08	0.00101929	0.00590332
3313.54	-0.698975	-0.016391
3314	0.000549316	0.00404022
3314.48	-0.000747681	0.00591675
3314.94	-0.698273	-0.01640625
3315.4	0.00112305	0.00404297
3315.88	-0.000231934	0.00590759
3316.34	-0.699127	-0.016394
3316.8	-0.000576782	0.00405121
3317.28	0.000973511	0.00590485
3317.74	-0.697784	-0.0164032
3318.2	-0.000790405	0.00405212
3318.68	0.000775146	0.0059082
3319.14	-0.698883	-0.0164001
3319.6	0.000213623	0.00404907
3320.08	-0.000802612	0.00591187
3320.54	-0.699066	-0.01640625
3321	0.000500488	0.00404236
3321.48	-0.000717163	0.00591095
3321.94	-0.6987	-0.0164093
3322.4	-0.000366211	0.00404755
3322.88	0.000933838	0.00589905
3323.34	-0.698853	-0.016391
3323.8	0.00106506	0.00404175
3324.28	0.00010376	0.00589935
3324.74	-0.699371	-0.016391
3325.2	-0.000744629	0.00405426
3325.68	0.000531006	0.00590302
3326.14	-0.69809	-0.01640625
3326.6	-0.000531006	0.00405518
3327.08	1.83105e-05	0.00590424
3327.54	-0.698761	-0.0164032
3328	-0.000454712	0.0040506
3328.48	0.00102539	0.00590363
3328.94	-0.699127	-0.0163971
3329.4	-0.000320435	0.00405487
3329.88	-0.000500488	0.00590759
3330.34	-0.697571	-0.0164001
3330.8	-0.000735474	0.00405518
3331.28	0.000250244	0.00590576
3331.74	-0.697601	-0.01640625
3332.2	-0.000720215	0.00405457
3332.68	0.000872803	0.00590179
3333.14	-0.698547	-0.0163879
3333.6	-1.52588e-05	0.00404602
3334.08	-0.000213623	0.00590027
3334.54	-0.698151	-0.016394
3335	-0.000531006	0.00405609
3335.48	0.000289917	0.00590454
3335.94	-0.699341	-0.016391
3336.4	0.000341797	0.00405151
3336.88	0.000753784	0.0058963
3337.34	-0.699341	-0.016391
3337.8	0.000411987	0.00404602
3338.28	0.00105591	0.00589783
3338.74	-0.698639	-0.0163971
3339.2	-0.000427246	0.00405243
3339.68	-0.000485229	0.00590363
3340.14	-0.697601	-0.0163971
3340.6	0.000860596	0.00404388
3341.08	0.0009765625	0.00589539
3341.54	-0.697998	-0.0163849
3342	-0.000735474	0.00405548
3342.48	0.000430298	0.0058963
3342.94	-0.698425	-0.0163788
3343.4	0.00112	0.00404327
3343.88	-0.000408936	0.00589752
3344.34	-0.699371	-0.0163849
3344.8	-0.000784302	0.00405457
3345.28	-0.00045166	0.00590546
3345.74	-0.698029	-0.016394
3346.2	-0.000756836	0.00405487
3346.68	0.000985718	0.00589203
3347.14	-0.699371	-0.0163757
3347.6	0.00109558	0.00404541
3348.08	-0.000820923	0.00590546
3348.54	-0.69931	-0.016394
3349	-0.000695801	0.00405243
3349.48	0.000613403	0.00589722
3349.94	-0.69812	-0.0164032
3350.4	0.000814819	0.0040448
3350.88	0.000924683	0.00589325
3351.34	-0.699463	-0.0163879
3351.8	-0.000747681	0.0040567
3352.28	0.00101929	0.00589355
3352.74	-0.698456	-0.0163788
3353.2	-0.000830078	0.00405792
3353.68	0.00039978	0.00590088
3354.14	-0.698975	-0.016391
3354.6	-0.000531006	0.00405884
3355.08	-0.000582886	0.00590088
3355.54	-0.699341	-0.0163879
3356	-0.000402832	0.00405396
3356.48	0.000772095	0.00589203
3356.94	-0.699249	-0.0163757
3357.4	0.00078125	0.00405121
3357.88	0.0010437	0.0058902
3358.34	-0.699188	-0.016391
3358.8	-0.000488281	0.00406097
3359.28	-0.00038147	0.00590454
3359.74	-0.697968	-0.0164032
3360.2	0.000973511	0.00404785
3360.68	0.000213623	0.00589661
3361.14	-0.697876	-0.0164001
3361.6	-0.000662231	0.00405884
3362.08	0.000994873	0.00589478
3362.54	-0.698517	-0.016394
3363	0.00100403	0.00404663
3363.48	-0.000296021	0.00589569
3363.94	-0.698151	-0.01640625
3364.4	0.000234985	0.00405151
3364.88	0.000180054	0.00589966
3365.34	-0.699432	-0.0163879
3365.8	0.000241089	0.00405518
3366.28	0.00067749	0.00589294
3366.74	-0.698242	-0.0164001
3367.2	0.000549316	0.00405365
3367.68	-0.000195313	0.00589844
3368.14	-0.698364	-0.0164032
3368.6	0.000372314	0.00404724
3369.08	-0.000561523	0.00589752
3369.54	-0.698212	-0.01640625
3370	0.00022583	0.00405334
3370.48	-0.000796509	0.00590332
3370.94	-0.697906	-0.016391
3371.4	0.000231934	0.00405243
3371.88	0.000299072	0.00589447
3372.34	-0.699463	-0.016394
3372.8	0.000302124	0.00405151
3373.28	0.000576782	0.00589691
3373.74	-0.697876	-0.01640625
3374.2	-0.000860596	0.00406097
3374.68	0.000601196	0.0058905
3375.14	-0.697876	-0.016394
3375.6	0.00105896	0.0040506
3376.08	0.000317383	0.00589691
3376.54	-0.699554	-0.016391
3377	-0.0003479	0.00405762
3377.48	0.000952148	0.00589203
3377.94	-0.697662	-0.0164032
3378.4	0.00110779	0.00405518
3378.88	0.00102539	0.00589294
3379.34	-0.697784	-0.01640625
3379.8	0.000134277	0.00405273
3380.28	-0.000692749	0.00590088
3380.74	-0.698914	-0.0163879
3381.2	0.000949097	0.00405365
3381.68	-0.000509644	0.00590057
3382.14	-0.697601	-0.0164001
3382.6	-0.000680542	0.00406036
3383.08	0.000634766	0.00588806
3383.54	-0.698883	-0.0163849
3384	0.00109253	0.0040509
3384.48	-0.000668335	0.00589539
3384.94	-0.697937	-0.01640625
3385.4	-0.000204468	0.00406006
3385.88	-0.000292969	0.00589447
3386.34	-0.698456	-0.0164032
3386.8	0.00101624	0.00405182
3387.28	9.46045e-05	0.00589691
3387.74	-0.697845	-0.016394
3388.2	0.000845337	0.00405426
3388.68	0.000561523	0.00589478
3389.14	-0.698242	-0.0163971
3389.6	-0.000717163	0.00406403
3390.08	-0.000762939	0.00589935
3390.54	-0.699463	-0.0163879
3391	0.00104065	0.00405334
3391.48	-0.000720215	0.00589905
3391.94	-0.699524	-0.0163879
3392.4	0.000411987	0.00405426
3392.88	0.000463867	0.00589355
3393.34	-0.69812	-0.0164032
3393.8	-0.00090332	0.00406281
3394.28	-0.000158691	0.00589935
3394.74	-0.69928	-0.0163849
3395.2	0.000961304	0.00405518
3395.68	-0.000653076	0.00589844
3396.14	-0.699493	-0.0163849
3396.6	8.8501e-05	0.00405914
3397.08	-0.000680542	0.00589996
3397.54	-0.697937	-0.016394
3398	-0.000576782	0.00406311
3398.48	-0.000802612	0.00589752
3398.94	-0.698151	-0.0164001
3399.4	-0.000909424	0.00406342
3399.88	0.000765991	0.00588226
3400.34	-0.698212	-0.016394
3400.8	0.00109863	0.00405334
3401.28	-0.00078125	0.00589722
3401.74	-0.698578	-0.0163971
3402.2	-0.000726318	0.00406494
3402.68	-0.000219727	0.00589447
3403.14	-0.69931	-0.0163849
3403.6	-0.000338745	0.00405609
3404.08	0.000692749	0.00589233
3404.54	-0.699371	-0.0163879
3405	0.000466919	0.00405579
3405.48	0.000411987	0.0058844
3405.94	-0.698212	-0.016391
3406.4	0.000430298	0.00405426
3406.88	0.000296021	0.00588501
3407.34	-0.69751	-0.0163971
3407.8	0.000790405	0.00405457
3408.28	0.000689697	0.00588409
3408.74	-0.698273	-0.0163818
3409.2	0.00107422	0.00405396
3409.68	-0.000863647	0.00589539
3410.14	-0.697998	-0.0163879
3410.6	-0.000149536	0.00406586
3411.08	0.00101624	0.00588409
3411.54	-0.698273	-0.0163788
3412	0.00038147	0.0040564
3412.48	-0.000454712	0.00589478
3412.94	-0.699249	-0.0163818
3413.4	0.00108032	0.00405731
3413.88	0.00102844	0.00588348
3414.34	-0.697998	-0.016391
3414.8	-0.000234985	0.00405975
3415.28	-0.000402832	0.00588959
3415.74	-0.698669	-0.0163818
3416.2	0.000714111	0.00405701
3416.68	0.000720215	0.00588593
3417.14	-0.699097	-0.0163788
3417.6	-0.00071106	0.00406921
3418.08	-0.00078125	0.00589355
3418.54	-0.698425	-0.0163879
3419	-0.000167847	0.00406952
3419.48	-0.000268555	0.00589447
3419.94	-0.698883	-0.0163879
3420.4	0.000119019	0.00406158
3420.88	-0.000735474	0.00589081
3421.34	-0.697571	-0.0164001
3421.8	7.01904e-05	0.00405823
3422.28	-0.000457764	0.0058844
3422.74	-0.698029	-0.0163971
3423.2	-0.000387573	0.00405426
3423.68	0.000161743	0.00587799
3424.14	-0.698029	-0.0164093
3424.6	0.00102539	0.00404236
3425.08	0.000991821	0.00586639
3425.54	-0.697845	-0.0164093
3426	-0.00039978	0.00405273
3426.48	0.000527954	0.0058725
3426.94	-0.697815	-0.0164185
3427.4	-0.000576782	0.00405365
3427.88	-0.000811768	0.00587616
3428.34	-0.699402	-0.0164001
3428.8	0.000958252	0.00404419
3429.28	-0.000820923	0.00588135
3429.74	-0.699005	-0.0164154
3430.2	-0.000292969	0.00404663
3430.68	-0.000854492	0.00587952
3431.14	-0.699371	-0.0164154
3431.6	-0.000823975	0.00405273
3432.08	0.00103455	0.00586792
3432.54	-0.697876	-0.0164337
3433	0.000756836	0.00404144
3433.48	-0.000793457	0.00587769
3433.94	-0.698242	-0.0164337
3434.4	0.000637817	0.00404083
3434.88	0.000466919	0.00587555
3435.34	-0.697662	-0.0164246
3435.8	0.000100708	0.0040506
3436.28	0.000698853	0.00586792
3436.74	-0.699127	-0.0164124
3437.2	-0.000567627	0.0040509
3437.68	-0.000262451	0.00587433
3438.14	-0.698761	-0.01640625
3438.6	7.93457e-05	0.00405243
3439.08	-0.000668335	0.00587372
3439.54	-0.699097	-0.0164154
3440	0.000582886	0.00404236
3440.48	-0.000344849	0.00586761
3440.94	-0.699371	-0.0164154
3441.4	0.000454712	0.00405029
3441.88	-0.000637817	0.00587708
3442.34	-0.699219	-0.0164093
3442.8	0.000964355	0.00404449
3443.28	-0.000219727	0.00587677
3443.74	-0.698151	-0.0164154
3444.2	0.00057373	0.00405121
3444.68	-0.000515747	0.00587738
3445.14	-0.697632	-0.0164276
3445.6	-0.000848389	0.0040564
3446.08	0.00020752	0.00586884
3446.54	-0.698059	-0.0164246
3447	-0.00045166	0.00405701
3447.48	0.000430298	0.005867
3447.94	-0.697876	-0.0164276
3448.4	-0.00010376	0.00405579
3448.88	0.00104675	0.00586609
3449.34	-0.699127	-0.0164185
3449.8	-0.000778198	0.00405853
3450.28	0.00106506	0.00586823
3450.74	-0.699249	-0.0164032
3451.2	0.00106201	0.00404694
3451.68	-0.000747681	0.00587311
3452.14	-0.698944	-0.0164124
3452.6	0.00112	0.00404846
3453.08	-0.000683594	0.00587219
3453.54	-0.697571	-0.0164093
3454	0.0011322	0.00404877
3454.48	-3.66211e-05	0.00586731
3454.94	-0.697906	-0.0164093
3455.4	-0.000479126	0.00406067
3455.88	0.000735474	0.00586212
3456.34	-0.698303	-0.0164154
3456.8	-0.000732422	0.00406067
3457.28	0.000952148	0.00586365
3457.74	-0.699097	-0.0163971
3458.2	-0.000646973	0.00405975
3458.68	-9.76562e-05	0.00587311
3459.14	-0.697998	-0.0164124
3459.6	-0.000518799	0.00406403
3460.08	0.00116272	0.005867
3460.54	-0.69754	-0.0164154
3461	0.000866699	0.00405029
3461.48	-0.000680542	0.00587463
3461.94	-0.699219	-0.016394
3462.4	0.000982666	0.00405029
3462.88	0.000585937	0.00586761
3463.34	-0.699219	-0.0164032
3463.8	-0.000735474	0.00406342
3464.28	-0.000375366	0.00586731
3464.74	-0.698578	-0.0164001
3465.2	0.00101318	0.00405182
3465.68	0.000817871	0.00586578
3466.14	-0.697876	-0.01640625
3466.6	-0.000695801	0.00406372
3467.08	0.000311279	0.00586578
3467.54	-0.699036	-0.0164154
3468	0.000430298	0.00405975
3468.48	-0.000357056	0.00587463
3468.94	-0.69754	-0.01640625
3469.4	-0.000878906	0.00406311
3469.88	0.00109863	0.00586304
3470.34	-0.699066	-0.016394
3470.8	0.00022583	0.00405609
3471.28	0.000897217	0.00586548
3471.74	-0.699005	-0.016394
3472.2	-0.000701904	0.00406494
3472.68	0.00100403	0.00586151
3473.14	-0.69812	-0.0164093
3473.6	0.000778198	0.00405273
3474.08	0.000650024	0.00586182
3474.54	-0.698151	-0.016394
3475	-0.000805664	0.00406586
3475.48	-0.000952148	0.00587036
3475.94	-0.697632	-0.0164032
3476.4	0.000762939	0.00406006
3476.88	-1.2207e-05	0.00586884
3477.34	-0.698578	-0.0164093
3477.8	0.000115967	0.00405945
3478.28	-0.000485229	0.00586731
3478.74	-0.69754	-0.0164124
3479.2	-0.000796509	0.00406494
3479.68	3.05176e-06	0.00586151
3480.14	-0.699249	-0.0163849
3480.6	-0.00055542	0.00406616
3481.08	0.00102539	0.00586365
3481.54	-0.699402	-0.0163879
3482	-0.000524902	0.00406403
3482.48	0.00101318	0.00586243
3482.94	-0.698792	-0.0164032
3483.4	-0.000796509	0.00406586
3483.88	-0.000753784	0.0058725
3484.34	-0.697845	-0.01640625
3484.8	0.00015564	0.00405609
3485.28	0.000863647	0.0058606
3485.74	-0.699188	-0.0164001
3486.2	0.000570679	0.00405731
3486.68	0.000888062	0.0058609
3487.14	-0.698059	-0.0163849
3487.6	7.62939e-05	0.00406006
3488.08	0.000991821	0.00586121
3488.54	-0.699158	-0.016391
3489	0.000537109	0.00406342
3489.48	-4.88281e-05	0.00586273
3489.94	-0.697845	-0.01640625
3490.4	0.000219727	0.00406036
3490.88	-0.00038147	0.00586548
3491.34	-0.698822	-0.0163818
3491.8	0.0006073	0.00406372
3492.28	0.000506592	0.0058606
3492.74	-0.699585	-0.0163879
3493.2	-0.000469971	0.00407135
3493.68	0.000448608	0.00586517
3494.14	-0.698975	-0.0163818
3494.6	0.00111389	0.00406403
3495.08	0.00106506	0.00586243
3495.54	-0.69754	-0.016394
3496	-0.000524902	0.00406769
3496.48	0.000656128	0.005859375
3496.94	-0.698334	-0.0163849
3497.4	-0.000454712	0.00407074
3497.88	4.27246e-05	0.00586212
3498.34	-0.69928	-0.0163879
3498.8	-0.000701904	0.00407257
3499.28	3.96729e-05	0.0058609
3499.74	-0.69809	-0.0163879
3500.2	-0.000653076	0.00407288
3500.68	0.000323486	0.00586548
3501.14	-0.697754	-0.0163879
3501.6	0.000970459	0.00406281
3502.08	-2.44141e-05	0.00586426
3502.54	-0.698181	-0.016391
3503	0.000817871	0.00406189
3503.48	7.01904e-05	0.00586182
3503.94	-0.697754	-0.0163971
3504.4	-0.000408936	0.00407532
3504.88	0.00103455	0.00585785
3505.34	-0.69754	-0.0163971
3505.8	2.13623e-05	0.00407043
3506.28	0.000927734	0.00585785
3506.74	-0.697571	-0.0163971
3507.2	8.8501e-05	0.00407013
3507.68	0.00101624	0.00585785
3508.14	-0.698853	-0.0163818
3508.6	0.000320435	0.00406952
3509.08	0.000930786	0.00585724
3509.54	-0.699127	-0.0163818
3510	-0.000396729	0.00406769
3510.48	-0.000134277	0.00586975
3510.94	-0.698792	-0.0163727
3511.4	0.00101318	0.0040625
3511.88	-0.00043335	0.00586792
3512.34	-0.699219	-0.0163879
3512.8	-0.000369263	0.00406921
3513.28	0.000967407	0.00585754
3513.74	-0.698639	-0.0163849
3514.2	-0.000445557	0.00406769
3514.68	0.000973511	0.0058551
3515.14	-0.699219	-0.0163849
3515.6	0.000384521	0.00406494
3516.08	0.000430298	0.005859375
3516.54	-0.69754	-0.0163849
3517	0.000280762	0.00406555
3517.48	0.000732422	0.00585754
3517.94	-0.699005	-0.0163696
3518.4	-0.000424194	0.00407104
3518.88	0.000341797	0.0058606
3519.34	-0.698151	-0.0163757
3519.8	0.00090332	0.00406403
3520.28	0.00115967	0.00585693
3520.74	-0.697723	-0.0163849
3521.2	0.000790405	0.00406158
3521.68	0.000457764	0.00585907
3522.14	-0.698395	-0.0163666
3522.6	-0.000741577	0.00407379
3523.08	-0.000158691	0.00585815
3523.54	-0.699249	-0.0163696
3524	4.27246e-05	0.00406769
3524.48	0.00107422	0.00585449
3524.94	-0.697815	-0.016391
3525.4	-0.00067749	0.00407196
3525.88	-0.000796509	0.00586517
3526.34	-0.698181	-0.016394
3526.8	0.00107422	0.00406525
3527.28	0.00100708	0.00585297
3527.74	-0.697479	-0.0163818
3528.2	0.000222778	0.00407349
3528.68	0.00102539	0.00585419
3529.14	-0.698334	-0.0163696
3529.6	0.000125122	0.00407837
3530.08	-0.00032959	0.00586548
3530.54	-0.699463	-0.0163696
3531	-0.000622559	0.00407501
3531.48	-1.83105e-05	0.0058606
3531.94	-0.69754	-0.0163788
3532.4	0.000274658	0.00406921
3532.88	-0.000140381	0.00585632
3533.34	-0.697723	-0.0163818
3533.8	-0.000735474	0.00407928
3534.28	-0.000265503	0.00586121
3534.74	-0.699188	-0.0163727
3535.2	0.00116272	0.00406891
3535.68	0.000460815	0.00585052
3536.14	-0.699158	-0.0163757
3536.6	-0.000784302	0.00407867
3537.08	0.000970459	0.00585205
3537.54	-0.699463	-0.0163635
3538	0.00102234	0.00406738
3538.48	-0.000686646	0.00586151
3538.94	-0.697662	-0.0163818
3539.4	0.000961304	0.00406677
3539.88	0.000704956	0.00585968
3540.34	-0.698517	-0.0163849
3540.8	0.000830078	0.00406799
3541.28	0.000860596	0.00585052
3541.74	-0.697784	-0.0163818
3542.2	0.000970459	0.00406921
3542.68	0.000494385	0.00585205
3543.14	-0.699341	-0.0163635
3543.6	9.46045e-05	0.00407623
3544.08	-0.000308228	0.00586243
3544.54	-0.699005	-0.0163788
3545	0.000509644	0.00407928
3545.48	0.000485229	0.00584991
3545.94	-0.697754	-0.0163757
3546.4	-0.000247192	0.00408142
3546.88	-0.000656128	0.00586304
3547.34	-0.699036	-0.0163757
3547.8	0.000921631	0.00407104
3548.28	-0.000616455	0.0058606
3548.74	-0.697876	-0.0163788
3549.2	0.00111389	0.00407166
3549.68	8.8501e-05	0.00584991
3550.14	-0.697815	-0.0163788
3550.6	-0.000601196	0.00408203
3551.08	-0.000595093	0.00586029
3551.54	-0.698975	-0.0163696
3552	-0.000527954	0.00408539
3552.48	-0.000735474	0.00585632
3552.94	-0.697479	-0.0163635
3553.4	-0.000695801	0.00408051
3553.88	0.000256348	0.00584869
3554.34	-0.698242	-0.0163574
3554.8	0.0010437	0.00407288
3555.28	-0.000350952	0.00585907
3555.74	-0.69754	-0.0163757
3556.2	0.000100708	0.0040744
3556.68	-0.000738525	0.00585541
3557.14	-0.699127	-0.0163544
3557.6	-0.000231934	0.00407837
3558.08	-0.00045166	0.00585785
3558.54	-0.697968	-0.0163788
3559	0.00107422	0.00407013
3559.48	-0.000750732	0.00585999
3559.94	-0.699371	-0.0163635
3560.4	0.000924683	0.00407196
3560.88	0.000314331	0.00584869
3561.34	-0.698486	-0.0163727
3561.8	0.00020752	0.00407837
3562.28	0.000790405	0.0058493
3562.74	-0.697754	-0.0163574
3563.2	0.000421143	0.00407776
3563.68	6.10352e-05	0.00585297
3564.14	-0.698944	-0.0163544
3564.6	0.000149536	0.00408234
3565.08	-0.000405884	0.00584625
3565.54	-0.69812	-0.0163635
3566	-0.000759888	0.00408295
3566.48	0.00105896	0.00584534
3566.94	-0.699402	-0.0163544
3567.4	0.00100098	0.00407318
3567.88	-0.000454712	0.00585144
3568.34	-0.698853	-0.0163605
3568.8	-0.000271606	0.004086
3569.28	-0.000195313	0.00585449
3569.74	-0.698273	-0.0163574
3570.2	-0.000616455	0.00408386
3570.68	0.00093689	0.00584381
3571.14	-0.699341	-0.0163574
3571.6	0.000222778	0.00407562
3572.08	-0.000393677	0.00585266
3572.54	-0.697693	-0.0163574
3573	0.000384521	0.00407837
3573.48	0.00101013	0.00584106
3573.94	-0.697693	-0.0163635
3574.4	-0.000540161	0.00407684
3574.88	0.00102539	0.00584076
3575.34	-0.699371	-0.0163513
3575.8	0.000463867	0.00407379
3576.28	-0.000259399	0.00585388
3576.74	-0.699219	-0.0163452
3577.2	-0.000540161	0.004086
3577.68	0.00093689	0.00584778
3578.14	-0.698792	-0.0163452
3578.6	0.000964355	0.00407562
3579.08	0.0009765625	0.00584381
3579.54	-0.697784	-0.0163574
3580	-0.000683594	0.00408356
3580.48	0.000576782	0.00584198
3580.94	-0.699402	-0.0163544
3581.4	0.00101929	0.00407471
3581.88	-0.000796509	0.0058551
3582.34	-0.69928	-0.0163422
3582.8	-0.000527954	0.00408295
3583.28	0.000778198	0.00584259
3583.74	-0.699432	-0.0163574
3584.2	-0.000585937	0.004086
3584.68	0.0010498	0.00584503
3585.14	-0.698517	-0.0163544
3585.6	-0.000750732	0.00408569
3586.08	-5.79834e-05	0.0058493
3586.54	-0.699493	-0.0163513
3587	0.000244141	0.00408203
3587.48	0.00105591	0.00583984
3587.94	-0.699005	-0.0163452
3588.4	0.0009765625	0.00407684
3588.88	-0.000268555	0.0058493
3589.34	-0.699463	-0.0163513
3589.8	-0.000741577	0.00408295
3590.28	-0.000689697	0.00584686
3590.74	-0.698944	-0.0163605
3591.2	-0.000582886	0.004086
3591.68	-0.00010376	0.00584839
3592.14	-0.698944	-0.0163391
3592.6	0.00108032	0.0040744
3593.08	0.000863647	0.00583649
3593.54	-0.698914	-0.0163544
3594	0.000640869	0.00408295
3594.48	0.000384521	0.00584595
3594.94	-0.699219	-0.0163422
3595.4	-0.00043335	0.00408813
3595.88	0.000961304	0.00583679
3596.34	-0.698608	-0.0163635
3596.8	0.00107117	0.00407806
3597.28	8.54492e-05	0.00584076
3597.74	-0.6987	-0.0163574
3598.2	0.00100708	0.00407745
3598.68	-0.000570679	0.00584656
3599.14	-0.698547	-0.0163544
3599.6	-0.00043335	0.00408173
3600.08	0.000973511	0.00583771
3600.54	-0.698975	-0.0163544
3601	-0.00050354	0.00408508
3601.48	-0.000350952	0.00584839
3601.94	-0.699249	-0.0163422
3602.4	0.000897217	0.00407715
3602.88	-0.000616455	0.00584625
3603.34	-0.699432	-0.0163452
3603.8	0.0006073	0.00408661
3604.28	0.000964355	0.0058371
3604.74	-0.697968	-0.0163544
3605.2	-0.000604248	0.00408936
3605.68	-0.000671387	0.00584778
3606.14	-0.698883	-0.0163574
3606.6	0.000567627	0.00407898
3607.08	0.000827026	0.00583649
3607.54	-0.697815	-0.0163513
3608	0.00112915	0.00407928
3608.48	-9.76562e-05	0.00584717
3608.94	-0.699188	-0.0163452
3609.4	-0.000418091	0.00408417
3609.88	0.000439453	0.00584381
3610.34	-0.697723	-0.0163574
3610.8	-0.000415039	0.0040921
3611.28	-0.000100708	0.00583984
3611.74	-0.699066	-0.0163452
3612.2	-0.00015564	0.00408569
3612.68	0.000970459	0.0058374
3613.14	-0.69928	-0.0163391
3613.6	0.001171875	0.00407959
3614.08	-0.000479126	0.00584686
3614.54	-0.697845	-0.0163574
3615	0.000924683	0.00408112
3615.48	0.000906372	0.00583557
3615.94	-0.697662	-0.0163452
3616.4	-0.000338745	0.00408936
3616.88	0.00108948	0.00583527
3617.34	-0.697662	-0.0163544
3617.8	0.000900269	0.00407898
3618.28	-0.000430298	0.00584564
3618.74	-0.697968	-0.0163544
3619.2	0.00114746	0.00408173
3619.68	-0.000747681	0.00584564
3620.14	-0.69931	-0.016333
3620.6	-0.000457764	0.00409119
3621.08	-0.000448608	0.00584167
3621.54	-0.699249	-0.0163391
3622	0.000665283	0.00408447
3622.48	-0.000152588	0.00584381
3622.94	-0.699158	-0.0163391
3623.4	-0.000854492	0.00409027
3623.88	-0.000668335	0.00584534
3624.34	-0.697632	-0.0163483
3624.8	-0.000668335	0.00409027
3625.28	0.000964355	0.00583405
3625.74	-0.698914	-0.0163513
3626.2	0.00020752	0.00408356
3626.68	0.000363159	0.00583405
3627.14	-0.699432	-0.0163422
3627.6	-0.000701904	0.00409149
3628.08	0.000997925	0.00583191
3628.54	-0.699402	-0.016333
3629	-0.000143433	0.00408295
3629.48	0.000198364	0.0058374
3629.94	-0.699188	-0.01633
3630.4	0.000817871	0.00408112
3630.88	0.000100708	0.0058374
3631.34	-0.698975	-0.01633
3631.8	-0.000167847	0.00409119
3632.28	3.05176e-06	0.00583252
3632.74	-0.699432	-0.0163391
3633.2	-0.000585937	0.00409363
3633.68	0.000680542	0.00582764
3634.14	-0.698608	-0.0163483
3634.6	-0.000180054	0.00408661
3635.08	0.000668335	0.00583252
3635.54	-0.698303	-0.0163483
3636	-0.000164795	0.00408691
3636.48	0.000427246	0.00583557
3636.94	-0.698334	-0.0163361
3637.4	0.00057373	0.00408295
3637.88	-0.000177002	0.00583344
3638.34	-0.697693	-0.0163483
3638.8	-0.000866699	0.0040921
3639.28	-0.000534058	0.00584106
3639.74	-0.699371	-0.0163391
3640.2	0.00102844	0.00408142
3640.68	-0.00071106	0.00583954
3641.14	-0.699585	-0.0163361
3641.6	-7.32422e-05	0.00408691
3642.08	-0.00062561	0.00584015
3642.54	-0.698059	-0.0163452
3643	0.00109863	0.004086
3643.48	0.00103455	0.00582733
3643.94	-0.698456	-0.0163361
3644.4	0.00107117	0.00408295
3644.88	-0.000500488	0.00583832
3645.34	-0.699463	-0.0163269
3645.8	3.05176e-06	0.0040921
3646.28	0.000991821	0.00582794
3646.74	-0.699402	-0.0163361
3647.2	0.00062561	0.00408447
3647.68	-0.000765991	0.00583862
3648.14	-0.699249	-0.0163208
3648.6	-0.000259399	0.00408661
3649.08	-0.000805664	0.00583832
3649.54	-0.698608	-0.0163391
3650	-0.000759888	0.00409515
3650.48	0.00098877	0.00582642
3650.94	-0.699463	-0.016333
3651.4	0.000848389	0.00408386
3651.88	-0.000772095	0.00583374
3652.34	-0.69931	-0.01633
3652.8	-0.000732422	0.00409698
3653.28	0.000796509	0.00582428
3653.74	-0.699127	-0.0163391
3654.2	0.000143433	0.00409546
3654.68	0.00111389	0.00582581
3655.14	-0.698212	-0.01633
3655.6	0.00100708	0.00408478
3656.08	-0.000842285	0.00583405
3656.54	-0.699493	-0.0163208
3657	0.000167847	0.00409271
3657.48	-0.000662231	0.00583405
3657.94	-0.698883	-0.016333
3658.4	-0.000119019	0.00409851
3658.88	0.00118103	0.00582703
3659.34	-0.697601	-0.0163422
3659.8	-0.000543213	0.0040979
3660.28	0.000967407	0.0058255
3660.74	-0.699127	-0.0163269
3661.2	-2.13623e-05	0.00408905
3661.68	-0.000616455	0.00583679
3662.14	-0.699097	-0.0163208
3662.6	0.000259399	0.00409332
3663.08	0.000982666	0.00582672
3663.54	-0.698608	-0.0163361
3664	0.000595093	0.00408661
3664.48	-0.00039978	0.0058374
3664.94	-0.699371	-0.0163269
3665.4	-0.000497437	0.00409576
3665.88	-0.000741577	0.00583435
3666.34	-0.697418	-0.0163391
3666.8	0.000131226	0.0040918
3667.28	-0.000720215	0.00583282
3667.74	-0.698853	-0.016333
3668.2	-0.000811768	0.00409637
3668.68	0.00107727	0.00582214
3669.14	-0.699341	-0.0163239
3669.6	-0.000488281	0.00409576
3670.08	0.00100708	0.0058252
3670.54	-0.698517	-0.0163391
3671	-9.15527e-06	0.00409668
3671.48	0.000177002	0.00582611
3671.94	-0.697632	-0.016333
3672.4	0.00098877	0.00408691
3672.88	0.000183105	0.00583008
3673.34	-0.698273	-0.01633
3673.8	0.000241089	0.0040976
3674.28	-0.000564575	0.00582581
3674.74	-0.698761	-0.0163239
3675.2	-0.000738525	0.00409882
3675.68	0.000970459	0.00582123
3676.14	-0.699432	-0.01633
3676.6	-0.000775146	0.00409821
3677.08	0.000921631	0.00582062
3677.54	-0.69928	-0.0163208
3678	0.00109253	0.0040863
3678.48	-9.15527e-06	0.00582428
3678.94	-0.69873	-0.0163422
3679.4	-0.000592041	0.00409607
3679.88	-0.000592041	0.00583344
3680.34	-0.697571	-0.0163361
3680.8	0.00102539	0.004086
3681.28	-0.000390625	0.00582611
3681.74	-0.699097	-0.0163208
3682.2	-0.000610352	0.00409912
3682.68	-0.000363159	0.0058313
3683.14	-0.699188	-0.0163269
3683.6	0.00119629	0.00408752
3684.08	0.000338745	0.00581818
3684.54	-0.697693	-0.0163391
3685	-0.000390625	0.0040976
3685.48	-0.000790405	0.00583008
3685.94	-0.697754	-0.0163391
3686.4	-0.000323486	0.00409424
3686.88	0.000857544	0.00582031
3687.34	-0.698547	-0.0163361
3687.8	-0.000656128	0.00410095
3688.28	-0.000665283	0.00582458
3688.74	-0.697723	-0.01633
3689.2	-0.000827026	0.00409973
3689.68	-0.00078125	0.00582825
3690.14	-0.699341	-0.0163269
3690.6	0.000656128	0.00408813
3691.08	1.2207e-05	0.00582642
3691.54	-0.698944	-0.0163208
3692	-0.000643921	0.00409729
3692.48	0.000445557	0.00581757
3692.94	-0.699463	-0.0163269
3693.4	0.000894165	0.00408722
3693.88	0.000704956	0.00581512
3694.34	-0.699341	-0.0163208
3694.8	0.00104065	0.00408813
3695.28	0.000817871	0.00581665
3695.74	-0.698547	-0.0163208
3696.2	-0.000735474	0.00409973
3696.68	3.05176e-06	0.00582336
3697.14	-0.698914	-0.0163177
3697.6	0.000863647	0.00409088
3698.08	0.000897217	0.00581635
3698.54	-0.699219	-0.0163208
3699	0.00116272	0.00408966
3699.48	-0.000942993	0.00582642
3699.94	-0.697662	-0.0163239
3700.4	-0.00027771	0.00410004
3700.88	-0.000500488	0.00582703
3701.34	-0.698303	-0.0163147
3701.8	0.00110474	0.00409119
3702.28	0.000814819	0.00581543
3702.74	-0.699402	-0.0163147
3703.2	-0.000769043	0.00410217
3703.68	0.000708008	0.00581451
3704.14	-0.698914	-0.0163116
3704.6	-0.00071106	0.0041037
3705.08	0.00083313	0.00581757
3705.54	-0.697815	-0.0163177
3706	-0.000778198	0.00410309
3706.48	-0.000793457	0.00582733
3706.94	-0.699371	-0.0163147
3707.4	0.00090332	0.00409119
3707.88	0.000836182	0.00581848
3708.34	-0.699341	-0.0163086
3708.8	0.00067749	0.00410065
3709.28	0.000463867	0.00581329
3709.74	-0.6987	-0.01633
3710.2	0.00107727	0.00409149
3710.68	0.000799561	0.00581421
3711.14	-0.697754	-0.0163208
3711.6	-0.000778198	0.00410431
3712.08	-0.000320435	0.00582581
3712.54	-0.69873	-0.0163239
3713	-0.000238037	0.00409821
3713.48	0.000561523	0.0058197
3713.94	-0.698608	-0.0163116
3714.4	-0.000247192	0.00409698
3714.88	-0.000332642	0.00581848
3715.34	-0.698822	-0.0163239
3715.8	0.00071106	0.00409576
3716.28	0.000549316	0.0058194
3716.7	0.000610352	0.00303162