File: Edgar/20240607/20240607/electrodeposition_pulsed_potential_20240607_E/pulses_1000_to_2000.txt
Time (s)	WE(1).Potential (V)	WE(1).Current (A)
890.201	-0.698517	-0.0182587
890.661	0.000888062	0.0019986
891.141	-0.000238037	0.00678162
891.601	-0.699249	-0.0173889
892.061	0.00015564	0.00238556
892.541	0.00103149	0.00693695
893.001	-0.69873	-0.0173279
893.461	-0.000714111	0.00247314
893.941	0.000460815	0.00699066
894.401	-0.699402	-0.0172852
894.861	0.000738525	0.00250793
895.341	-0.000762939	0.00702942
895.801	-0.699432	-0.017276
896.261	0.00103455	0.00253174
896.741	-0.000640869	0.00704895
897.201	-0.69809	-0.0172638
897.661	-0.000186157	0.00255829
898.141	0.000628662	0.00705261
898.601	-0.699371	-0.0172516
899.061	-0.000671387	0.00257629
899.541	0.00098877	0.00705933
900.001	-0.6987	-0.0172424
900.461	-0.000537109	0.00258911
900.941	-0.000930786	0.00707733
901.401	-0.698669	-0.0172424
901.861	-0.000442505	0.0026004
902.341	0.000473022	0.00707184
902.801	-0.697662	-0.0172424
903.261	0.000354004	0.00260803
903.741	-0.000482178	0.00708649
904.201	-0.69751	-0.0172455
904.661	0.000921631	0.00261047
905.141	0.00067749	0.00708313
905.601	-0.697723	-0.0172333
906.061	-0.000418091	0.00262177
906.541	-0.000143433	0.00708649
907.001	-0.699371	-0.0172241
907.461	-0.000537109	0.00263458
907.941	-0.000213623	0.00709473
908.401	-0.699371	-0.0172241
908.861	-0.000714111	0.00264038
909.341	0.00100098	0.00708527
909.801	-0.698608	-0.017215
910.261	0.00100403	0.0026358
910.741	-0.000411987	0.00709747
911.201	-0.697479	-0.0172241
911.661	0.00126038	0.00264008
912.141	-0.000231934	0.00708923
912.601	-0.697906	-0.0172272
913.061	-0.000726318	0.00265839
913.541	0.000872803	0.00708771
914.001	-0.69873	-0.0172211
914.461	-7.62939e-05	0.00265747
914.941	-0.000860596	0.00709961
915.401	-0.699249	-0.017215
915.861	0.00126343	0.00265808
916.341	0.000927734	0.00709503
916.801	-0.697723	-0.0172211
917.261	0.00100403	0.00266144
917.741	-2.74658e-05	0.00709473
918.201	-0.698212	-0.0172211
918.661	-0.000183105	0.00267181
919.141	0.000534058	0.00709412
919.601	-0.69751	-0.0172089
920.061	-0.000772095	0.00267853
920.541	-0.0009552	0.00710266
921.001	-0.697784	-0.0172058
921.461	0.00108032	0.00267639
921.941	-0.000500488	0.00710022
922.401	-0.698975	-0.017215
922.861	0.00102539	0.00268158
923.341	-0.000598145	0.00709625
923.801	-0.698547	-0.0171906
924.261	-0.000302124	0.00268982
924.741	-0.000823975	0.00710083
925.201	-0.697937	-0.0172028
925.661	0.000985718	0.00269012
926.141	-0.000857544	0.00709869
926.601	-0.698456	-0.0171906
927.061	-0.000372314	0.00270477
927.541	0.000793457	0.00709106
928.001	-0.69751	-0.0172058
928.461	-0.000228882	0.00271088
928.941	-0.000119019	0.00708771
929.401	-0.697418	-0.0172058
929.861	0.00101929	0.00270416
930.341	0.00102234	0.00708527
930.801	-0.699371	-0.0171997
931.261	-0.00071106	0.00271912
931.741	-0.000271606	0.00708862
932.201	-0.698456	-0.0171997
932.661	0.000436401	0.00272034
933.141	0.00108337	0.00708221
933.601	-0.69928	-0.0171906
934.061	0.000991821	0.00271362
934.541	0.000875854	0.00708435
935.001	-0.697327	-0.0171997
935.461	0.000854492	0.00271637
935.941	0.000262451	0.0070874
936.401	-0.699402	-0.0171875
936.861	0.000100708	0.00272949
937.341	0.000469971	0.00709167
937.801	-0.698517	-0.0172028
938.261	0.000601196	0.00272522
938.741	-0.000891113	0.00709076
939.201	-0.699371	-0.0171906
939.661	-0.000115967	0.00272919
940.141	0.000915527	0.00708008
940.601	-0.69809	-0.0171997
941.061	0.00122986	0.00272675
941.541	-0.000491333	0.00707855
942.001	-0.699005	-0.0171997
942.461	0.000305176	0.00273773
942.941	-0.00072937	0.00708679
943.401	-0.69754	-0.0171967
943.861	-0.000674438	0.00274567
944.341	-0.000424194	0.00708038
944.801	-0.6987	-0.0171875
945.261	-0.000192261	0.00273712
945.741	-0.00057373	0.00708496
946.201	-0.699493	-0.0171875
946.661	0.00109558	0.00273865
947.141	0.000732422	0.00707428
947.601	-0.699402	-0.0171967
948.061	0.000949097	0.00274323
948.541	-0.00057373	0.0070813
949.001	-0.697693	-0.0172028
949.461	0.000177002	0.00275696
949.941	0.000610352	0.00706573
950.401	-0.69754	-0.0171967
950.861	-4.88281e-05	0.0027536
951.341	0.000427246	0.00706726
951.801	-0.699341	-0.0171875
952.261	0.000689697	0.0027536
952.741	-0.000415039	0.00707428
953.201	-0.699432	-0.0171844
953.661	0.000509644	0.00275269
954.141	-0.000479126	0.00706604
954.601	-0.698578	-0.0171967
955.061	0.00101624	0.00275635
955.541	0.00100403	0.00706451
956.001	-0.69931	-0.0171844
956.461	-0.000393677	0.00276672
956.941	0.000204468	0.00707031
957.401	-0.697998	-0.0171844
957.861	0.00129089	0.00276489
958.341	-0.000726318	0.00707092
958.801	-0.698242	-0.0171844
959.261	0.000454712	0.002771
959.741	-0.000253296	0.00706207
960.201	-0.697571	-0.0171967
960.661	0.000119019	0.00277771
961.141	-0.000726318	0.00706451
961.601	-0.699249	-0.0171753
962.061	0.000332642	0.00277985
962.541	-0.000701904	0.00706573
963.001	-0.698975	-0.0171906
963.461	-0.000576782	0.00278107
963.941	3.96729e-05	0.00705994
964.401	-0.699493	-0.0171783
964.861	0.000637817	0.00277618
965.341	0.00101624	0.00704773
965.801	-0.69928	-0.0171875
966.261	-0.000198364	0.00279053
966.741	-4.57764e-05	0.00704681
967.201	-0.698151	-0.0171906
967.661	0.0009552	0.00278442
968.141	-5.18799e-05	0.00705292
968.601	-0.698944	-0.0171722
969.061	0.000216675	0.00279297
969.541	-0.000524902	0.00705414
970.001	-0.699005	-0.0171844
970.461	-0.000393677	0.00279358
970.941	0.000146484	0.00704865
971.401	-0.698303	-0.0171814
971.861	0.000146484	0.00279663
972.341	3.35693e-05	0.00704315
972.801	-0.698975	-0.0171783
973.261	-0.000592041	0.00280212
973.741	0.00093689	0.00703796
974.201	-0.69751	-0.0171906
974.661	-0.000753784	0.00280426
975.141	-0.000863647	0.00704834
975.601	-0.699402	-0.0171844
976.061	-0.000708008	0.00281036
976.541	-0.000436401	0.00704681
977.001	-0.697601	-0.0171906
977.461	0.000897217	0.00279877
977.941	-0.000802612	0.00704712
978.401	-0.697601	-0.0171906
978.861	-0.000750732	0.00281189
979.341	0.000424194	0.00703949
979.801	-0.698669	-0.0171875
980.261	0.001171875	0.00280334
980.741	-0.000720215	0.00704163
981.201	-0.69928	-0.0171844
981.661	0.000509644	0.00280792
982.141	-0.000128174	0.00703705
982.601	-0.69812	-0.0171936
983.061	0.00045166	0.00281158
983.541	0.000985718	0.00702667
984.001	-0.697998	-0.0171906
984.461	0.000708008	0.00282043
984.941	0.000689697	0.00702362
985.401	-0.697906	-0.0171875
985.861	-0.000799561	0.00282593
986.341	0.000778198	0.0070224
986.801	-0.697357	-0.0171906
987.261	-0.000228882	0.00282593
987.741	0.000778198	0.00702026
988.201	-0.699249	-0.0171753
988.661	-0.000402832	0.00283173
989.141	-0.000628662	0.00703125
989.601	-0.699249	-0.0171692
990.061	0.00105896	0.00282318
990.541	-6.10352e-05	0.00701874
991.001	-0.699463	-0.0171753
991.461	0.00109863	0.00282318
991.941	0.000997925	0.00701447
992.401	-0.698486	-0.0171661
992.861	0.000564575	0.00282379
993.341	-0.000610352	0.00701721
993.801	-0.697662	-0.0171814
994.261	0.000454712	0.00283478
994.741	0.00110474	0.00701141
995.201	-0.697754	-0.0171722
995.661	0.000372314	0.00283203
996.141	-0.000195313	0.00701965
996.601	-0.698181	-0.0171692
997.061	0.00123596	0.00283661
997.541	0.00115662	0.00700989
998.001	-0.69931	-0.0171692
998.461	-0.000430298	0.00284637
998.941	0.000949097	0.0070047
999.401	-0.697601	-0.0171844
999.861	-0.000714111	0.00284882
1000.34	-0.000823975	0.00701569
1000.8	-0.69754	-0.0171844
1001.26	0.000784302	0.0028479
1001.74	0.000518799	0.00700226
1002.2	-0.697662	-0.0171875
1002.66	0.00113525	0.0028421
1003.14	-0.000317383	0.00700562
1003.6	-0.699341	-0.0171814
1004.06	0.00121765	0.00284515
1004.54	0.000473022	0.00699982
1005	-0.698792	-0.0171661
1005.46	0.000259399	0.0028476
1005.94	-1.52588e-05	0.00700806
1006.4	-0.697632	-0.0171814
1006.86	-0.000726318	0.00286072
1007.34	-0.000134277	0.00700378
1007.8	-0.697906	-0.0171753
1008.26	3.05176e-05	0.00286011
1008.74	0.00103455	0.00699158
1009.2	-0.698029	-0.0171722
1009.66	0.00032959	0.00285309
1010.14	0.000271606	0.00700165
1010.6	-0.69928	-0.0171692
1011.06	0.00115051	0.00285645
1011.54	0.000592041	0.00698944
1012	-0.699219	-0.0171631
1012.46	6.71387e-05	0.00286865
1012.94	-0.000775146	0.00699829
1013.4	-0.697601	-0.0171692
1013.86	0.00124817	0.00286163
1014.34	0.000744629	0.00698395
1014.8	-0.698486	-0.0171692
1015.26	0.000466919	0.00286499
1015.74	0.000881958	0.00698425
1016.2	-0.697601	-0.0171631
1016.66	-0.000552368	0.00287659
1017.14	0.000683594	0.00698669
1017.6	-0.699127	-0.0171722
1018.06	0.00122986	0.00287262
1018.54	0.000100708	0.00699158
1019	-0.699432	-0.0171661
1019.46	0.000994873	0.00287079
1019.94	-0.000595093	0.00698975
1020.4	-0.698273	-0.01716
1020.86	-0.000506592	0.00288452
1021.34	-0.000878906	0.00698608
1021.8	-0.697479	-0.0171814
1022.26	-0.000622559	0.00288208
1022.74	0.000924683	0.00698212
1023.2	-0.698364	-0.0171661
1023.66	0.00107117	0.00287964
1024.14	-0.00010376	0.00697906
1024.6	-0.698944	-0.017157
1025.06	0.00102539	0.00288208
1025.54	0.00100708	0.00697235
1026	-0.699402	-0.0171631
1026.46	-0.000906372	0.00289185
1026.94	-0.000939941	0.00698273
1027.4	-0.699402	-0.01716
1027.86	-0.000723267	0.00289642
1028.34	-0.000515747	0.00698242
1028.8	-0.697479	-0.0171692
1029.26	-0.000787354	0.00289734
1029.74	0.000964355	0.00696991
1030.2	-0.69873	-0.0171722
1030.66	0.000622559	0.00289795
1031.14	-0.000875854	0.00697968
1031.6	-0.697418	-0.0171753
1032.06	-0.000689697	0.0029007
1032.54	0.000668335	0.0069693
1033	-0.69928	-0.0171692
1033.46	0.00108032	0.00289215
1033.94	-0.000814819	0.0069751
1034.4	-0.6987	-0.01716
1034.86	-0.000805664	0.00290558
1035.34	0.000100708	0.00697418
1035.8	-0.699463	-0.01716
1036.26	-0.000222778	0.00290314
1036.74	0.000195313	0.00696991
1037.2	-0.698303	-0.0171783
1037.66	-0.000469971	0.00291107
1038.14	-0.000161743	0.0069696
1038.6	-0.698029	-0.01716
1039.06	-0.000476074	0.00291077
1039.54	0.000646973	0.00695404
1040	-0.698914	-0.0171539
1040.46	-0.000436401	0.00291718
1040.94	0.000793457	0.00695709
1041.4	-0.699402	-0.0171661
1041.86	-0.000650024	0.00292053
1042.34	-0.000854492	0.0069635
1042.8	-0.698944	-0.0171631
1043.26	0.000653076	0.00291107
1043.74	-0.000900269	0.00696503
1044.2	-0.697632	-0.0171661
1044.66	0.00115662	0.00291138
1045.14	4.27246e-05	0.00695831
1045.6	-0.697906	-0.0171722
1046.06	0.00083313	0.00291443
1046.54	-0.000497437	0.00695984
1047	-0.69931	-0.017157
1047.46	0.00113525	0.00291779
1047.94	0.000964355	0.00695068
1048.4	-0.697479	-0.0171722
1048.86	0.001171875	0.00291748
1049.34	0.000424194	0.00694611
1049.8	-0.698547	-0.0171722
1050.26	-0.000402832	0.00292725
1050.74	-0.000344849	0.00695557
1051.2	-0.69754	-0.0171661
1051.66	0.000888062	0.00292114
1052.14	-0.000723267	0.00695496
1052.6	-0.697937	-0.01716
1053.06	-0.000427246	0.0029306
1053.54	0.000878906	0.00694305
1054	-0.698792	-0.0171509
1054.46	0.000341797	0.00292755
1054.94	-0.000854492	0.00695099
1055.4	-0.699371	-0.0171509
1055.86	-0.000488281	0.00293701
1056.34	0.00100708	0.00693817
1056.8	-0.697662	-0.0171631
1057.26	-0.000741577	0.00293854
1057.74	0.000827026	0.00693787
1058.2	-0.697693	-0.01716
1058.66	0.000802612	0.00293152
1059.14	-0.000744629	0.00694489
1059.6	-0.699493	-0.0171539
1060.06	0.000262451	0.00293701
1060.54	-0.000784302	0.00694122
1061	-0.697632	-0.0171631
1061.46	-0.000341797	0.00295074
1061.94	-0.000952148	0.00694061
1062.4	-0.699127	-0.017157
1062.86	0.000878906	0.00293793
1063.34	-0.000735474	0.00694061
1063.8	-0.697968	-0.0171448
1064.26	-0.000283813	0.00295197
1064.74	0.0010498	0.00692535
1065.2	-0.69754	-0.017157
1065.66	0.000759888	0.00295044
1066.14	-0.000650024	0.0069281
1066.6	-0.699341	-0.0171387
1067.06	-0.000167847	0.00295349
1067.54	0.000537109	0.00692291
1068	-0.699554	-0.0171539
1068.46	5.18799e-05	0.00294952
1068.94	0.000509644	0.006922
1069.4	-0.69754	-0.0171478
1069.86	0.000582886	0.00295746
1070.34	-0.000924683	0.00692596
1070.8	-0.697418	-0.0171539
1071.26	-0.000741577	0.00296265
1071.74	-0.000720215	0.00692719
1072.2	-0.698334	-0.0171387
1072.66	-0.000509644	0.00296478
1073.14	-0.000741577	0.00692596
1073.6	-0.698029	-0.017157
1074.06	0.000256348	0.00295502
1074.54	-0.000912476	0.006922
1075	-0.697601	-0.0171539
1075.46	0.000115967	0.00296448
1075.94	-0.000540161	0.00691864
1076.4	-0.699493	-0.0171417
1076.86	0.000527954	0.00296478
1077.34	0.00100708	0.00691132
1077.8	-0.69751	-0.0171509
1078.26	0.00020752	0.00296417
1078.74	0.000418091	0.00690704
1079.2	-0.699371	-0.0171448
1079.66	-0.000588989	0.00297668
1080.14	-5.18799e-05	0.0069162
1080.6	-0.697632	-0.0171448
1081.06	0.00114136	0.00296387
1081.54	-0.000640869	0.00691589
1082	-0.698151	-0.0171539
1082.46	-0.000518799	0.00297485
1082.94	0.000332642	0.00690338
1083.4	-0.697571	-0.0171448
1083.86	-0.000601196	0.00298035
1084.34	5.49316e-05	0.00690491
1084.8	-0.699249	-0.0171356
1085.26	0.000973511	0.00297028
1085.74	-7.32422e-05	0.00690674
1086.2	-0.697418	-0.0171509
1086.66	0.000134277	0.00297699
1087.14	0.00102844	0.00689606
1087.6	-0.699463	-0.0171356
1088.06	0.00111389	0.00297577
1088.54	0.000427246	0.00690216
1089	-0.6987	-0.0171356
1089.46	0.000363159	0.00297852
1089.94	-0.000228882	0.0069043
1090.4	-0.69751	-0.0171478
1090.86	0.00043335	0.00297974
1091.34	6.10352e-05	0.00690277
1091.8	-0.697998	-0.0171509
1092.26	3.35693e-05	0.00299042
1092.74	0.000848389	0.00689087
1093.2	-0.697784	-0.0171509
1093.66	-0.000674438	0.00299255
1094.14	0.000454712	0.00689667
1094.6	-0.69812	-0.0171295
1095.06	-0.000735474	0.00299622
1095.54	0.000183105	0.00689606
1096	-0.698334	-0.0171478
1096.46	6.10352e-06	0.00299866
1096.94	-0.000991821	0.0068985
1097.4	-0.69754	-0.0171448
1097.86	-0.000695801	0.0030011
1098.34	0.00098877	0.00688477
1098.8	-0.698944	-0.0171295
1099.26	0.000210571	0.00299866
1099.74	0.000689697	0.00688721
1100.2	-0.698517	-0.0171295
1100.66	0.000933838	0.00300049
1101.14	-0.000683594	0.00688538
1101.6	-0.698151	-0.0171295
1102.06	-0.000604248	0.00300293
1102.54	0.000482178	0.00688629
1103	-0.697662	-0.0171295
1103.46	-0.000738525	0.00300812
1103.94	-0.000689697	0.00688995
1104.4	-0.698273	-0.0171387
1104.86	0.000775146	0.00300598
1105.34	-0.000979614	0.00688843
1105.8	-0.699158	-0.0171387
1106.26	0.00112305	0.00299957
1106.74	-0.000646973	0.00688477
1107.2	-0.697418	-0.0171295
1107.66	0.000598145	0.00300171
1108.14	-0.000860596	0.00688385
1108.6	-0.698303	-0.0171448
1109.06	-0.000793457	0.00301514
1109.54	-0.000747681	0.00687531
1110	-0.699341	-0.0171234
1110.46	0.000265503	0.00300812
1110.94	-0.000259399	0.00687988
1111.4	-0.698944	-0.0171204
1111.86	-0.000628662	0.00301636
1112.34	0.000170898	0.00687622
1112.8	-0.697937	-0.0171234
1113.26	0.000946045	0.00300934
1113.74	-0.000881958	0.00687653
1114.2	-0.699371	-0.0171265
1114.66	-7.62939e-05	0.00301727
1115.14	0.000161743	0.00686676
1115.6	-0.699341	-0.0171265
1116.06	-0.000704956	0.00302399
1116.54	0.00065918	0.00686401
1117	-0.698395	-0.0171326
1117.46	0.000430298	0.00302185
1117.94	0.00057373	0.00686035
1118.4	-0.698395	-0.0171326
1118.86	-0.000778198	0.00302795
1119.34	0.000973511	0.0068573
1119.8	-0.698669	-0.0171234
1120.26	0.000836182	0.00302277
1120.74	-0.000161743	0.00686523
1121.2	-0.697479	-0.0171265
1121.66	0.000198364	0.00303009
1122.14	0.000292969	0.0068573
1122.6	-0.699371	-0.0171143
1123.06	-0.000918579	0.00303253
1123.54	-0.000952148	0.00686554
1124	-0.698639	-0.0171326
1124.46	0.000302124	0.00303131
1124.94	-0.000735474	0.00686432
1125.4	-0.697388	-0.0171295
1125.86	4.27246e-05	0.0030365
1126.34	-0.0003479	0.0068634
1126.8	-0.698669	-0.0171204
1127.26	0.00123291	0.00303131
1127.74	-0.000256348	0.00685425
1128.2	-0.698608	-0.0171051
1128.66	0.00101013	0.00302979
1129.14	-9.76562e-05	0.00685516
1129.6	-0.698334	-0.0171295
1130.06	0.000796509	0.00303223
1130.54	-0.00088501	0.00685944
1131	-0.699341	-0.0171112
1131.46	0.00107422	0.00304016
1131.94	0.000152588	0.00685547
1132.4	-0.69931	-0.0171112
1132.86	-0.000390625	0.00304901
1133.34	0.000811768	0.00684631
1133.8	-0.699127	-0.0171082
1134.26	-0.00032959	0.00304565
1134.74	0.000704956	0.00684174
1135.2	-0.699402	-0.0171143
1135.66	-0.000894165	0.00305176
1136.14	-0.000942993	0.00684937
1136.6	-0.698547	-0.0171234
1137.06	0.000402832	0.00304932
1137.54	-0.00083313	0.00685059
1138	-0.698425	-0.0171021
1138.46	0.00109253	0.0030426
1138.94	0.000350952	0.00684082
1139.4	-0.699402	-0.0171082
1139.86	0.000152588	0.00305725
1140.34	0.0010437	0.0068335
1140.8	-0.698212	-0.0171051
1141.26	0.00055542	0.00305389
1141.74	-0.000836182	0.00684418
1142.2	-0.699463	-0.0171082
1142.66	0.000646973	0.00305359
1143.14	0.000759888	0.00683472
1143.6	-0.699341	-0.0171021
1144.06	0.000292969	0.00305847
1144.54	-0.000631714	0.00684265
1145	-0.699371	-0.0171021
1145.46	0.00112	0.00305145
1145.94	0.00108032	0.00682892
1146.4	-0.698517	-0.0171082
1146.86	0.000979614	0.00305298
1147.34	-0.00088501	0.00683807
1147.8	-0.699432	-0.017099
1148.26	0.000582886	0.00306061
1148.74	0.000115967	0.00683472
1149.2	-0.699188	-0.0170959
1149.66	0.000228882	0.00306763
1150.14	-0.000842285	0.00683685
1150.6	-0.698395	-0.0170959
1151.06	0.000744629	0.00306366
1151.54	0.00098877	0.00682556
1152	-0.699158	-0.0171021
1152.46	-0.000674438	0.00307556
1152.94	-0.000527954	0.00683167
1153.4	-0.698547	-0.0170959
1153.86	0.000259399	0.0030658
1154.34	0.000848389	0.00682373
1154.8	-0.697815	-0.0171143
1155.26	-0.000747681	0.00307892
1155.74	0.000619507	0.00682129
1156.2	-0.699097	-0.0170959
1156.66	0.000839233	0.00306641
1157.14	0.000231934	0.00682098
1157.6	-0.697601	-0.0171051
1158.06	0.00120544	0.00307007
1158.54	0.000793457	0.00681274
1159	-0.698059	-0.0170898
1159.46	0.000439453	0.00307648
1159.94	0.000100708	0.00681976
1160.4	-0.697632	-0.0171021
1160.86	0.000646973	0.00307281
1161.34	-0.000842285	0.0068222
1161.8	-0.699432	-0.0170868
1162.26	-0.00085144	0.00308136
1162.74	-0.00050354	0.00681427
1163.2	-0.697937	-0.017099
1163.66	0.000872803	0.00307709
1164.14	0.000292969	0.00681244
1164.6	-0.697235	-0.017099
1165.06	-0.000314331	0.00308624
1165.54	-0.000183105	0.00681671
1166	-0.697998	-0.017099
1166.46	-0.000521851	0.00308258
1166.94	0.00105896	0.00681274
1167.4	-0.69754	-0.0171021
1167.86	7.62939e-05	0.0030835
1168.34	-0.000393677	0.00681702
1168.8	-0.698334	-0.0170837
1169.26	-0.000741577	0.00309387
1169.74	-0.000741577	0.00681671
1170.2	-0.69928	-0.0170868
1170.66	0.000238037	0.00309326
1171.14	-0.000866699	0.00681824
1171.6	-0.697754	-0.0171082
1172.06	0.00055542	0.00308655
1172.54	-0.000854492	0.00681549
1173	-0.698486	-0.0171021
1173.46	-0.000137329	0.00309631
1173.94	0.000964355	0.00679932
1174.4	-0.699188	-0.0170959
1174.86	0.000671387	0.00308807
1175.34	-0.000741577	0.00680542
1175.8	-0.697418	-0.0170929
1176.26	-6.10352e-05	0.00309601
1176.74	-0.00043335	0.00680695
1177.2	-0.698883	-0.0170868
1177.66	0.000350952	0.00309448
1178.14	-0.000628662	0.00680206
1178.6	-0.697571	-0.0170959
1179.06	-0.00039978	0.00309967
1179.54	-0.000253296	0.00680115
1180	-0.699341	-0.0170868
1180.46	-0.000738525	0.00310608
1180.94	0.000881958	0.00679016
1181.4	-0.698578	-0.0170898
1181.86	0.000720215	0.00309509
1182.34	0.00111694	0.00678802
1182.8	-0.697449	-0.0170837
1183.26	0.000241089	0.00310028
1183.74	0.0010437	0.00679077
1184.2	-0.697876	-0.0170807
1184.66	0.000915527	0.0030957
1185.14	0.00101013	0.00678467
1185.6	-0.69809	-0.0170929
1186.06	-0.000579834	0.0031076
1186.54	0.000952148	0.00678314
1187	-0.697876	-0.0170929
1187.46	0.00103149	0.00310394
1187.94	0.00027771	0.00678986
1188.4	-0.698792	-0.0170715
1188.86	-0.000485229	0.00311676
1189.34	0.000662231	0.00679077
1189.8	-0.697571	-0.0170929
1190.26	-0.000445557	0.0031134
1190.74	0.00062561	0.00678131
1191.2	-0.697296	-0.0170776
1191.66	0.000387573	0.00311462
1192.14	0.000439453	0.00678528
1192.6	-0.698822	-0.0170685
1193.06	0.000656128	0.0031192
1193.54	-0.00100708	0.0067868
1194	-0.698242	-0.0170807
1194.46	0.00110779	0.00311249
1194.94	0.000814819	0.00677338
1195.4	-0.699493	-0.0170654
1195.86	-0.000753784	0.00312378
1196.34	0.000939941	0.00677582
1196.8	-0.69754	-0.0170807
1197.26	-0.000778198	0.00312683
1197.74	-6.40869e-05	0.00678284
1198.2	-0.697571	-0.0170807
1198.66	0.000695801	0.00311646
1199.14	-0.000857544	0.00678253
1199.6	-0.699036	-0.0170654
1200.06	0.00112915	0.00312012
1200.54	-0.000390625	0.00677917
1201	-0.697723	-0.0170776
1201.46	-0.000619507	0.00312775
1201.94	-0.000845337	0.00677765
1202.4	-0.697418	-0.0170746
1202.86	0.000964355	0.00312561
1203.34	-0.000213623	0.00677704
1203.8	-0.697449	-0.0170715
1204.26	-5.18799e-05	0.00313049
1204.74	-0.000738525	0.0067749
1205.2	-0.697357	-0.0170593
1205.66	0.000515747	0.00312988
1206.14	0.000997925	0.0067627
1206.6	-0.697998	-0.0170715
1207.06	-0.000854492	0.00313477
1207.54	0.00119324	0.00676331
1208	-0.698822	-0.0170532
1208.46	0.000616455	0.00313324
1208.94	-0.000726318	0.00677551
1209.4	-0.699127	-0.0170563
1209.86	0.000619507	0.00313416
1210.34	0.000317383	0.00676727
1210.8	-0.699249	-0.0170685
1211.26	0.00039978	0.0031311
1211.74	-0.000601196	0.00676239
1212.2	-0.69754	-0.0170746
1212.66	-0.000262451	0.00314514
1213.14	0.000460815	0.00675629
1213.6	-0.697357	-0.0170624
1214.06	-0.000775146	0.00314697
1214.54	0.00107727	0.00675507
1215	-0.698242	-0.0170563
1215.46	0.000500488	0.0031366
1215.94	-0.000921631	0.00676086
1216.4	-0.698608	-0.0170532
1216.86	0.000796509	0.00314148
1217.34	-0.000268555	0.00676178
1217.8	-0.697479	-0.0170563
1218.26	0.000460815	0.00314117
1218.74	0.000592041	0.00675079
1219.2	-0.697662	-0.0170502
1219.66	-0.000598145	0.0031546
1220.14	-0.00067749	0.00676147
1220.6	-0.699219	-0.017041
1221.06	-0.000756836	0.00315338
1221.54	0.000537109	0.00675171
1222	-0.699371	-0.0170532
1222.46	-0.000808716	0.00315552
1222.94	-0.000811768	0.0067572
1223.4	-0.697998	-0.0170471
1223.86	-0.000448608	0.00315704
1224.34	0.000744629	0.0067453
1224.8	-0.698944	-0.0170441
1225.26	-0.00022583	0.00315948
1225.74	0.000601196	0.0067514
1226.2	-0.699371	-0.0170471
1226.66	0.00111694	0.00315063
1227.14	-0.000518799	0.00675201
1227.6	-0.699493	-0.0170532
1228.06	-0.000653076	0.00316315
1228.54	-0.000521851	0.00675201
1229	-0.698181	-0.0170441
1229.46	-0.000308228	0.0031543
1229.94	0.00116272	0.00674255
1230.4	-0.697876	-0.0170563
1230.86	-0.000775146	0.00316528
1231.34	-0.000579834	0.00674988
1231.8	-0.697601	-0.017038
1232.26	-0.000708008	0.00316742
1232.74	-0.000531006	0.00674805
1233.2	-0.697601	-0.017038
1233.66	0.00125122	0.00315826
1234.14	0.000372314	0.00674377
1234.6	-0.699066	-0.0170441
1235.06	-0.000320435	0.00317108
1235.54	0.0010376	0.0067334
1236	-0.69931	-0.0170349
1236.46	-0.000314331	0.0031665
1236.94	-0.000326538	0.00673676
1237.4	-0.697968	-0.017038
1237.86	0.000595093	0.00316833
1238.34	-0.000463867	0.00674347
1238.8	-0.698822	-0.0170441
1239.26	0.000997925	0.00316681
1239.74	0.000973511	0.00673096
1240.2	-0.697784	-0.0170349
1240.66	-0.00078125	0.00317444
1241.14	0.00100708	0.00672852
1241.6	-0.697601	-0.0170441
1242.06	0.000708008	0.00316559
1242.54	6.40869e-05	0.00672974
1243	-0.698761	-0.017041
1243.46	0.000491333	0.00317566
1243.94	-0.000869751	0.00673767
1244.4	-0.697662	-0.017041
1244.86	0.000387573	0.00317108
1245.34	0.00100098	0.00672302
1245.8	-0.698486	-0.0170227
1246.26	0.000994873	0.00317291
1246.74	-0.000683594	0.00673157
1247.2	-0.699341	-0.0170319
1247.66	0.000439453	0.00317078
1248.14	-0.000628662	0.00672791
1248.6	-0.699402	-0.0170166
1249.06	-0.000119019	0.00317932
1249.54	0.000970459	0.00671967
1250	-0.699219	-0.0170227
1250.46	0.000949097	0.00317871
1250.94	-0.000802612	0.00673004
1251.4	-0.69812	-0.017041
1251.86	-5.18799e-05	0.00317993
1252.34	0.000723267	0.00671539
1252.8	-0.699371	-0.0170258
1253.26	0.00105896	0.00317963
1253.74	0.000888062	0.00671631
1254.2	-0.697906	-0.017038
1254.66	0.00109863	0.00318085
1255.14	0.000262451	0.00671753
1255.6	-0.699432	-0.0170227
1256.06	-0.000167847	0.0031842
1256.54	-0.000964355	0.00672241
1257	-0.699432	-0.0170197
1257.46	0.00104675	0.0031842
1257.94	-0.000842285	0.00672211
1258.4	-0.698059	-0.0170349
1258.86	-0.000308228	0.00319641
1259.34	0.00103149	0.00670898
1259.8	-0.699341	-0.0170166
1260.26	-0.000604248	0.00319672
1260.74	-0.00085144	0.00672028
1261.2	-0.69754	-0.0170349
1261.66	0.00112915	0.00319
1262.14	-0.00057373	0.00671875
1262.6	-0.698944	-0.0170074
1263.06	-0.000552368	0.00320038
1263.54	0.000189209	0.00671387
1264	-0.698425	-0.0170319
1264.46	0.000500488	0.00319183
1264.94	7.62939e-05	0.00671417
1265.4	-0.697571	-0.0170288
1265.86	-0.000378418	0.0031955
1266.34	-0.000524902	0.00671814
1266.8	-0.698517	-0.0170227
1267.26	-0.000799561	0.00320557
1267.74	0.00103149	0.00670288
1268.2	-0.69809	-0.0170044
1268.66	0.00039978	0.0032019
1269.14	0.000827026	0.00670502
1269.6	-0.699036	-0.0170074
1270.06	0.000140381	0.00321045
1270.54	0.000674438	0.00669891
1271	-0.69928	-0.0170074
1271.46	-0.000317383	0.00321045
1271.94	0.000921631	0.00669708
1272.4	-0.697845	-0.0170197
1272.86	0.0006073	0.00320038
1273.34	0.00105286	0.00669495
1273.8	-0.699432	-0.0170105
1274.26	0.000109863	0.00321136
1274.74	-0.000308228	0.00669739
1275.2	-0.698822	-0.0170013
1275.66	-0.000704956	0.00321381
1276.14	-0.000790405	0.00670471
1276.6	-0.698639	-0.0169983
1277.06	0.00114746	0.00320465
1277.54	0.000100708	0.00670166
1278	-0.698273	-0.0170044
1278.46	0.000653076	0.00320557
1278.94	-0.000610352	0.00669556
1279.4	-0.698029	-0.0170105
1279.86	0.00108032	0.00320618
1280.34	-0.000805664	0.00670105
1280.8	-0.69751	-0.0170166
1281.26	0.000296021	0.00320831
1281.74	0.00106812	0.00668976
1282.2	-0.698364	-0.0170074
1282.66	-1.52588e-05	0.00321106
1283.14	0.000418091	0.00669067
1283.6	-0.697632	-0.0170197
1284.06	0.00111084	0.00320801
1284.54	0.000875854	0.00668915
1285	-0.69873	-0.0170197
1285.46	0.00112915	0.00321289
1285.94	0.000610352	0.00669067
1286.4	-0.697723	-0.0170197
1286.86	0.000405884	0.00321533
1287.34	0.000231934	0.00669189
1287.8	-0.699066	-0.0169983
1288.26	-5.79834e-05	0.00321564
1288.74	0.000292969	0.00668335
1289.2	-0.699341	-0.0170074
1289.66	-0.000521851	0.0032251
1290.14	0.000488281	0.00668701
1290.6	-0.69928	-0.0170135
1291.06	0.00110779	0.00321777
1291.54	-0.000756836	0.00668823
1292	-0.697906	-0.0170044
1292.46	0.00128784	0.00321869
1292.94	0.00109253	0.00667847
1293.4	-0.697998	-0.0170166
1293.86	0.000518799	0.00322601
1294.34	-0.000650024	0.0066864
1294.8	-0.698761	-0.0169952
1295.26	0.00108948	0.00322144
1295.74	-0.000689697	0.00668823
1296.2	-0.69751	-0.0170105
1296.66	0.00110474	0.00322144
1297.14	0.00112915	0.00667816
1297.6	-0.697632	-0.0170105
1298.06	-0.000741577	0.00323425
1298.54	-0.000454712	0.00668671
1299	-0.697998	-0.0170166
1299.46	-0.000747681	0.0032373
1299.94	0.00100098	0.00667725
1300.4	-0.69751	-0.0170105
1300.86	-0.000491333	0.00323303
1301.34	-0.000445557	0.0066806
1301.8	-0.697601	-0.0170105
1302.26	0.000759888	0.00323608
1302.74	-0.000344849	0.00668335
1303.2	-0.697784	-0.0170074
1303.66	-0.000595093	0.00324219
1304.14	0.00093689	0.00667389
1304.6	-0.699554	-0.0170013
1305.06	-0.000741577	0.00324371
1305.54	-0.000509644	0.00667725
1306	-0.698914	-0.0169952
1306.46	0.0010376	0.00323212
1306.94	-0.000247192	0.00668182
1307.4	-0.699493	-0.0169983
1307.86	0.00110168	0.00323517
1308.34	0.0010498	0.0066684
1308.8	-0.698669	-0.0170105
1309.26	0.000592041	0.0032373
1309.74	0.00101624	0.00666626
1310.2	-0.697479	-0.0170074
1310.66	0.000982666	0.0032373
1311.14	-0.000762939	0.00667847
1311.6	-0.699371	-0.0169922
1312.06	-0.000247192	0.00324768
1312.54	-0.00090332	0.00667542
1313	-0.697418	-0.0170074
1313.46	0.000942993	0.00324158
1313.94	0.000741577	0.00666229
1314.4	-0.699341	-0.0169891
1314.86	-7.01904e-05	0.00324615
1315.34	0.00112305	0.00666199
1315.8	-0.698822	-0.0169891
1316.26	0.000491333	0.00324463
1316.74	-0.000534058	0.00666779
1317.2	-0.699402	-0.0169922
1317.66	0.000915527	0.00324371
1318.14	-0.000671387	0.00667023
1318.6	-0.699005	-0.0170013
1319.06	7.01904e-05	0.00324982
1319.54	-0.000100708	0.00666321
1320	-0.698029	-0.0170013
1320.46	-0.000268555	0.0032608
1320.94	0.00045166	0.00665588
1321.4	-0.699402	-0.0169861
1321.86	-0.000494385	0.00326202
1322.34	0.00101929	0.00665649
1322.8	-0.6987	-0.01698
1323.26	-0.000210571	0.00325806
1323.74	0.000402832	0.00666138
1324.2	-0.697906	-0.0169861
1324.66	0.000479126	0.00325195
1325.14	0.000875854	0.00665222
1325.6	-0.697968	-0.0169891
1326.06	-0.000247192	0.00325867
1326.54	0.000881958	0.00665283
1327	-0.699371	-0.0169922
1327.46	0.000961304	0.00325653
1327.94	0.00093689	0.00665344
1328.4	-0.697784	-0.016983
1328.86	-0.000738525	0.00326324
1329.34	0.000918579	0.00664703
1329.8	-0.697815	-0.0169983
1330.26	-0.000610352	0.0032663
1330.74	-0.000897217	0.00665863
1331.2	-0.697632	-0.016983
1331.66	9.15527e-05	0.00326813
1332.14	0.000915527	0.0066449
1332.6	-0.697693	-0.0169952
1333.06	0.00100708	0.00326172
1333.54	-0.000476074	0.00665009
1334	-0.699371	-0.0169739
1334.46	0.00115662	0.0032608
1334.94	-0.000643921	0.00665253
1335.4	-0.69751	-0.0169891
1335.86	-0.000741577	0.00327362
1336.34	0.000125122	0.00664948
1336.8	-0.697327	-0.016983
1337.26	0.000576782	0.00326904
1337.74	-0.00078125	0.00665253
1338.2	-0.69931	-0.0169739
1338.66	0.000830078	0.00326263
1339.14	0.000543213	0.00664001
1339.6	-0.698029	-0.016983
1340.06	-0.000689697	0.00327576
1340.54	6.71387e-05	0.00664673
1341	-0.699554	-0.0169769
1341.46	0.000421143	0.00326965
1341.94	0.00102234	0.00663757
1342.4	-0.69754	-0.0169769
1342.86	0.000317383	0.00326874
1343.34	-0.000656128	0.00663971
1343.8	-0.699097	-0.0169617
1344.26	0.00105286	0.00327148
1344.74	-0.000765991	0.00664612
1345.2	-0.69809	-0.01698
1345.66	0.00106201	0.00327057
1346.14	-0.000796509	0.0066452
1346.6	-0.699249	-0.0169678
1347.06	-0.000735474	0.00328247
1347.54	0.000473022	0.00663269
1348	-0.698822	-0.0169739
1348.46	-0.00057373	0.00328674
1348.94	0.000930786	0.00663208
1349.4	-0.69873	-0.0169617
1349.86	0.000735474	0.00327606
1350.34	0.000921631	0.00662903
1350.8	-0.698395	-0.0169891
1351.26	-0.000662231	0.00328491
1351.74	0.000622559	0.00663116
1352.2	-0.699432	-0.0169678
1352.66	0.00012207	0.00327362
1353.14	0.000869751	0.00663177
1353.6	-0.698547	-0.0169739
1354.06	-0.000512695	0.00328094
1354.54	-0.000271606	0.00663116
1355	-0.69928	-0.016983
1355.46	-0.000653076	0.00328369
1355.94	0.000631714	0.00662506
1356.4	-0.697754	-0.0169769
1356.86	0.000222778	0.00328674
1357.34	0.00108948	0.00662231
1357.8	-0.699371	-0.0169708
1358.26	0.00115051	0.00327942
1358.74	0.000128174	0.00663208
1359.2	-0.698273	-0.0169678
1359.66	-0.000296021	0.00329041
1360.14	0.00101318	0.00662109
1360.6	-0.699036	-0.0169708
1361.06	0.00101929	0.00328186
1361.54	0.000592041	0.00661896
1362	-0.697998	-0.0169678
1362.46	-0.000772095	0.00329285
1362.94	0.00101929	0.00661957
1363.4	-0.697937	-0.0169861
1363.86	0.000921631	0.00328674
1364.34	0.000662231	0.00661835
1364.8	-0.697815	-0.016983
1365.26	0.000195313	0.00328888
1365.74	-0.000390625	0.00662354
1366.2	-0.698212	-0.01698
1366.66	0.00119934	0.00328552
1367.14	-0.000500488	0.0066275
1367.6	-0.699371	-0.0169647
1368.06	-0.000704956	0.0032962
1368.54	0.000134277	0.00662201
1369	-0.697662	-0.016983
1369.46	0.00102844	0.00328766
1369.94	-0.000372314	0.00662018
1370.4	-0.699097	-0.0169769
1370.86	-0.000845337	0.00329742
1371.34	0.00119324	0.0066153
1371.8	-0.697845	-0.0169739
1372.26	-0.000250244	0.00330292
1372.74	0.00098877	0.00661316
1373.2	-0.69873	-0.0169769
1373.66	0.000845337	0.00328949
1374.14	-0.000805664	0.0066217
1374.6	-0.69931	-0.0169586
1375.06	0.00102234	0.00329468
1375.54	0.000558472	0.00661011
1376	-0.697998	-0.0169769
1376.46	-0.000561523	0.00330139
1376.94	-0.000161743	0.00661987
1377.4	-0.698151	-0.0169769
1377.86	0.00116272	0.00329529
1378.34	0.000958252	0.00660858
1378.8	-0.699524	-0.0169617
1379.26	-0.00062561	0.00331024
1379.74	-6.40869e-05	0.00661163
1380.2	-0.697845	-0.0169769
1380.66	-0.000241089	0.003302
1381.14	0.00115967	0.00660492
1381.6	-0.698944	-0.0169556
1382.06	-0.000500488	0.00330933
1382.54	-0.000775146	0.00661743
1383	-0.697815	-0.0169769
1383.46	0.0011322	0.0033017
1383.94	0.00104675	0.00660126
1384.4	-0.698456	-0.0169525
1384.86	0.000192261	0.00330505
1385.34	-9.76562e-05	0.00660309
1385.8	-0.697968	-0.0169708
1386.26	0.00065918	0.00330444
1386.74	-6.10352e-06	0.00660522
1387.2	-0.69931	-0.0169495
1387.66	-0.000289917	0.00331573
1388.14	-0.000860596	0.00661011
1388.6	-0.69754	-0.0169617
1389.06	-0.000286865	0.00331818
1389.54	0.000518799	0.00660278
1390	-0.699371	-0.0169556
1390.46	0.000808716	0.00331482
1390.94	-0.000915527	0.00660431
1391.4	-0.698822	-0.0169525
1391.86	-0.000296021	0.0033197
1392.34	-0.000765991	0.00660431
1392.8	-0.697784	-0.0169525
1393.26	4.57764e-05	0.00332031
1393.74	0.000830078	0.0065979
1394.2	-0.699066	-0.0169556
1394.66	-0.000183105	0.00332458
1395.14	0.000234985	0.00659668
1395.6	-0.699097	-0.0169495
1396.06	0.000985718	0.00331268
1396.54	0.00050354	0.00659882
1397	-0.699493	-0.0169495
1397.46	0.00083313	0.00331696
1397.94	0.000247192	0.00660034
1398.4	-0.698944	-0.0169525
1398.86	-0.000717163	0.00332794
1399.34	-0.000894165	0.00660217
1399.8	-0.69751	-0.0169525
1400.26	-0.000421143	0.0033252
1400.74	-0.00057373	0.00659668
1401.2	-0.699158	-0.0169464
1401.66	0.000811768	0.00331818
1402.14	0.000738525	0.0065921
1402.6	-0.698456	-0.0169586
1403.06	-0.000784302	0.0033316
1403.54	-0.000564575	0.00659546
1404	-0.6987	-0.0169403
1404.46	-0.000762939	0.00332764
1404.94	0.00100708	0.00658813
1405.4	-0.697754	-0.0169464
1405.86	-0.000244141	0.00332642
1406.34	0.000961304	0.00658691
1406.8	-0.697418	-0.0169464
1407.26	-0.000762939	0.00333405
1407.74	-0.00072937	0.00659271
1408.2	-0.698212	-0.0169373
1408.66	0.00126343	0.0033255
1409.14	-0.000708008	0.00659637
1409.6	-0.699463	-0.0169342
1410.06	0.000552368	0.00332764
1410.54	0.000888062	0.00658264
1411	-0.699554	-0.0169434
1411.46	0.00113831	0.00332611
1411.94	0.000619507	0.0065863
1412.4	-0.698639	-0.0169464
1412.86	-0.000405884	0.00333221
1413.34	0.00109253	0.0065863
1413.8	-0.697754	-0.0169495
1414.26	0.000305176	0.00333588
1414.74	-0.000808716	0.00659241
1415.2	-0.699158	-0.0169464
1415.66	0.000250244	0.00333282
1416.14	0.0010498	0.00658081
1416.6	-0.698456	-0.0169434
1417.06	-0.000772095	0.0033432
1417.54	-0.000564575	0.00658569
1418	-0.697754	-0.0169403
1418.46	-0.000726318	0.00334564
1418.94	0.000982666	0.00657837
1419.4	-0.69751	-0.0169464
1419.86	-0.000518799	0.00334503
1420.34	0.000604248	0.0065744
1420.8	-0.698059	-0.0169342
1421.26	-0.000759888	0.00334625
1421.74	0.00105591	0.00657227
1422.2	-0.698151	-0.0169464
1422.66	0.000793457	0.00333527
1423.14	-0.000949097	0.00658325
1423.6	-0.699432	-0.0169281
1424.06	-0.000402832	0.00334442
1424.54	-0.000473022	0.00658325
1425	-0.697754	-0.0169464
1425.46	-0.000750732	0.00335236
1425.94	0.00107422	0.00657379
1426.4	-0.699158	-0.0169281
1426.86	0.000424194	0.00334656
1427.34	-6.10352e-05	0.00658051
1427.8	-0.699249	-0.0169281
1428.26	-0.000802612	0.00335175
1428.74	-0.000485229	0.00657593
1429.2	-0.698486	-0.0169434
1429.66	-0.000714111	0.00335175
1430.14	0.000204468	0.00657104
1430.6	-0.699371	-0.0169312
1431.06	0.00107727	0.00334412
1431.54	-0.000827026	0.00658051
1432	-0.698914	-0.016925
1432.46	-0.000332642	0.00334808
1432.94	0.000570679	0.00656677
1433.4	-0.699097	-0.016925
1433.86	-0.000567627	0.00335846
1434.34	0.000848389	0.00656952
1434.8	-0.699371	-0.0169373
1435.26	0.000592041	0.00334991
1435.74	-4.27246e-05	0.0065744
1436.2	-0.697479	-0.0169403
1436.66	-0.000326538	0.00335114
1437.14	-0.00057373	0.00657806
1437.6	-0.697815	-0.0169434
1438.06	-0.000427246	0.00336151
1438.54	0.000286865	0.00656616
1439	-0.698578	-0.016925
1439.46	0.000878906	0.00335175
1439.94	0.00108032	0.00656219
1440.4	-0.699432	-0.016922
1440.86	0.00111084	0.00335449
1441.34	-0.000881958	0.00656921
1441.8	-0.699341	-0.0169128
1442.26	8.23975e-05	0.00336334
1442.74	0.000921631	0.00656097
1443.2	-0.699158	-0.0169159
1443.66	0.00101624	0.00335632
1444.14	-0.000619507	0.00657135
1444.6	-0.698395	-0.0169281
1445.06	0.000234985	0.00336243
1445.54	-0.00085144	0.00656738
1446	-0.697418	-0.0169281
1446.46	0.00115662	0.00335449
1446.94	-0.00085144	0.00656799
1447.4	-0.699097	-0.0169189
1447.86	0.00038147	0.00336365
1448.34	0.00100708	0.0065564
1448.8	-0.69928	-0.016925
1449.26	0.000430298	0.00336273
1449.74	0.0009552	0.00655396
1450.2	-0.699402	-0.0169159
1450.66	-0.000222778	0.0033609
1451.14	-0.000982666	0.00656403
1451.6	-0.699066	-0.0169067
1452.06	0.00116577	0.00336182
1452.54	-0.000390625	0.00656281
1453	-0.698334	-0.0169128
1453.46	0.00106201	0.00336212
1453.94	-0.000515747	0.00655792
1454.4	-0.699219	-0.0169189
1454.86	0.00102234	0.00336273
1455.34	-0.000912476	0.00655792
1455.8	-0.69751	-0.016922
1456.26	-0.000588989	0.00337311
1456.74	-0.000415039	0.00656006
1457.2	-0.699371	-0.0169189
1457.66	0.000534058	0.00336761
1458.14	-0.000656128	0.00655975
1458.6	-0.699432	-0.0169128
1459.06	-0.000244141	0.00337799
1459.54	0.000140381	0.00655914
1460	-0.698395	-0.016922
1460.46	0.00124207	0.00336945
1460.94	0.000827026	0.00654602
1461.4	-0.697479	-0.0169281
1461.86	-0.000695801	0.00337952
1462.34	-0.000259399	0.00655182
1462.8	-0.697357	-0.016922
1463.26	-0.000762939	0.00338165
1463.74	0.000619507	0.00654602
1464.2	-0.69928	-0.0169098
1464.66	0.000796509	0.00336945
1465.14	0.000128174	0.00655426
1465.6	-0.699219	-0.0169006
1466.06	-0.000723267	0.00338409
1466.54	-1.52588e-05	0.00655182
1467	-0.698608	-0.016925
1467.46	-0.000765991	0.00338501
1467.94	-0.000805664	0.00655518
1468.4	-0.698853	-0.0169037
1468.86	-0.000384521	0.00338074
1469.34	0.000204468	0.0065509
1469.8	-0.698456	-0.0169098
1470.26	0.00114746	0.00337921
1470.74	0.000949097	0.00654175
1471.2	-0.69931	-0.0169128
1471.66	-0.000656128	0.00338837
1472.14	-0.000646973	0.00655304
1472.6	-0.697296	-0.0169037
1473.06	-7.32422e-05	0.00338165
1473.54	0.000811768	0.00653778
1474	-0.698151	-0.0169159
1474.46	-0.000692749	0.00339203
1474.94	9.15527e-05	0.00654663
1475.4	-0.69873	-0.0169067
1475.86	0.00085144	0.00338013
1476.34	-0.000161743	0.00654541
1476.8	-0.69928	-0.0168976
1477.26	-0.00043335	0.00339417
1477.74	-3.05176e-06	0.006539
1478.2	-0.699402	-0.0169006
1478.66	0.000723267	0.00338318
1479.14	0.000869751	0.00653442
1479.6	-0.697571	-0.0169128
1480.06	-9.15527e-06	0.00338684
1480.54	0.00083313	0.00653168
1481	-0.698151	-0.0169067
1481.46	0.00110474	0.0033847
1481.94	0.000695801	0.00653473
1482.4	-0.697723	-0.0169098
1482.86	0.000738525	0.00338989
1483.34	-0.000192261	0.00653992
1483.8	-0.699005	-0.0168945
1484.26	0.000888062	0.00339233
1484.74	0.000979614	0.00653015
1485.2	-0.699432	-0.0168976
1485.66	-0.000802612	0.00339996
1486.14	9.15527e-05	0.00653656
1486.6	-0.699066	-0.0168915
1487.06	-0.000616455	0.00339752
1487.54	-0.000308228	0.0065387
1488	-0.698669	-0.0169067
1488.46	0.00101929	0.00338928
1488.94	0.000561523	0.00653473
1489.4	-0.697601	-0.0169098
1489.86	-0.000637817	0.00340363
1490.34	-0.000186157	0.00653198
1490.8	-0.698761	-0.0169098
1491.26	0.000732422	0.00339142
1491.74	0.000942993	0.00652374
1492.2	-0.697723	-0.0169067
1492.66	0.00116882	0.00339691
1493.14	-0.000802612	0.0065329
1493.6	-0.697632	-0.0169037
1494.06	-0.00043335	0.00340363
1494.54	0.00102234	0.00652374
1495	-0.698242	-0.0168945
1495.46	0.00114746	0.003396
1495.94	-0.000286865	0.00653259
1496.4	-0.697449	-0.0168945
1496.86	-0.000216675	0.00340942
1497.34	-0.000564575	0.00653015
1497.8	-0.698151	-0.0168945
1498.26	-0.000167847	0.00341217
1498.74	-0.000912476	0.00653259
1499.2	-0.698883	-0.0168915
1499.66	-0.000704956	0.00340912
1500.14	-0.000845337	0.00653198
1500.6	-0.697327	-0.0169006
1501.06	0.000796509	0.00340057
1501.54	0.00020752	0.00652283
1502	-0.697998	-0.0169067
1502.46	-0.000775146	0.00340973
1502.94	-0.00039978	0.00651947
1503.4	-0.697479	-0.0168976
1503.86	0.00090332	0.00340485
1504.34	0.000424194	0.00651764
1504.8	-0.698303	-0.0168854
1505.26	0.000997925	0.00340729
1505.74	0.00102539	0.0065155
1506.2	-0.698303	-0.0168854
1506.66	-0.000601196	0.00341278
1507.14	-0.000323486	0.00652557
1507.6	-0.699371	-0.0168793
1508.06	0.000408936	0.00341553
1508.54	-0.000531006	0.00652374
1509	-0.698364	-0.0168945
1509.46	-0.000704956	0.00341675
1509.94	-0.000115967	0.00651947
1510.4	-0.698212	-0.0168854
1510.86	0.000421143	0.003414
1511.34	0.000241089	0.00652039
1511.8	-0.69931	-0.0168823
1512.26	0.000939941	0.0034079
1512.74	0.0011322	0.00651184
1513.2	-0.699402	-0.0168884
1513.66	-0.000762939	0.00342163
1514.14	0.000369263	0.00651611
1514.6	-0.698944	-0.0168976
1515.06	0.00111389	0.00340851
1515.54	-8.23975e-05	0.00651184
1516	-0.698334	-0.0168945
1516.46	-0.000775146	0.00342285
1516.94	-0.000909424	0.00651459
1517.4	-0.698425	-0.0168793
1517.86	-0.000762939	0.00342407
1518.34	0.000460815	0.00650696
1518.8	-0.699371	-0.0168793
1519.26	0.000683594	0.00341614
1519.74	-0.000219727	0.00651489
1520.2	-0.698334	-0.0168884
1520.66	-0.000671387	0.00342529
1521.14	-0.000708008	0.00651184
1521.6	-0.698608	-0.0168762
1522.06	0.000238037	0.00342621
1522.54	-0.000750732	0.00651581
1523	-0.699371	-0.0168732
1523.46	0.000631714	0.00341766
1523.94	0.00101318	0.0065036
1524.4	-0.699554	-0.0168793
1524.86	0.000341797	0.00342468
1525.34	-2.13623e-05	0.0065097
1525.8	-0.69751	-0.0168915
1526.26	-0.000637817	0.00343201
1526.74	0.000787354	0.00649872
1527.2	-0.698853	-0.0168701
1527.66	-0.000732422	0.00343048
1528.14	0.00109863	0.00649994
1528.6	-0.698456	-0.0168732
1529.06	0.00105896	0.00342438
1529.54	-0.000283813	0.00650757
1530	-0.69754	-0.0168823
1530.46	0.000592041	0.00342438
1530.94	0.00105286	0.00649567
1531.4	-0.699097	-0.0168671
1531.86	-0.000549316	0.0034317
1532.34	0.0010437	0.00649597
1532.8	-0.69751	-0.0168884
1533.26	0.00106506	0.00342682
1533.74	-0.000570679	0.00650787
1534.2	-0.69931	-0.0168823
1534.66	-4.27246e-05	0.00343536
1535.14	2.44141e-05	0.00650299
1535.6	-0.699188	-0.0168762
1536.06	0.00101624	0.0034259
1536.54	-0.000436401	0.00650665
1537	-0.698944	-0.0168701
1537.46	0.000576782	0.00343414
1537.94	-0.00015564	0.00650299
1538.4	-0.699249	-0.0168671
1538.86	-0.00071106	0.00343872
1539.34	-0.000631714	0.0065033
1539.8	-0.699402	-0.0168701
1540.26	0.000973511	0.00342834
1540.74	0.00102234	0.00648865
1541.2	-0.697845	-0.0168823
1541.66	-0.000692749	0.00344299
1542.14	-0.000149536	0.0064978
1542.6	-0.699341	-0.0168732
1543.06	0.000219727	0.00343506
1543.54	-0.000790405	0.00649963
1544	-0.698395	-0.0168701
1544.46	0.0011322	0.00343323
1544.94	-0.000497437	0.00649689
1545.4	-0.69751	-0.0168762
1545.86	-0.000268555	0.00343597
1546.34	0.00115662	0.00649017
1546.8	-0.69812	-0.0168823
1547.26	-0.000808716	0.00344543
1547.74	0.000665283	0.00649139
1548.2	-0.699066	-0.016864
1548.66	0.000180054	0.00343903
1549.14	0.000567627	0.00648956
1549.6	-0.697479	-0.0168732
1550.06	0.0009552	0.00343536
1550.54	0.00116272	0.0064856
1551	-0.697876	-0.0168732
1551.46	-0.000698853	0.00344788
1551.94	0.000997925	0.00648376
1552.4	-0.699249	-0.016864
1552.86	-0.000442505	0.00345123
1553.34	-0.000839233	0.00649414
1553.8	-0.698761	-0.016861
1554.26	-0.000714111	0.00345306
1554.74	-0.000738525	0.00649445
1555.2	-0.69754	-0.0168732
1555.66	0.000231934	0.00345245
1556.14	0.000299072	0.00648102
1556.6	-0.697723	-0.016861
1557.06	0.000775146	0.00344635
1557.54	-0.000830078	0.00649017
1558	-0.69873	-0.0168518
1558.46	0.000891113	0.00344147
1558.94	0.000967407	0.00647797
1559.4	-0.697845	-0.016864
1559.86	0.000817871	0.00344177
1560.34	-0.000695801	0.00648163
1560.8	-0.69754	-0.016864
1561.26	0.00111389	0.00344452
1561.74	0.000137329	0.00648499
1562.2	-0.697876	-0.016861
1562.66	0.00106201	0.00344635
1563.14	0.000848389	0.00647949
1563.6	-0.698578	-0.0168701
1564.06	-0.000601196	0.00345612
1564.54	-6.71387e-05	0.00647919
1565	-0.697998	-0.016861
1565.46	-0.000601196	0.00345276
1565.94	0.000549316	0.00647675
1566.4	-0.697906	-0.0168701
1566.86	-0.000317383	0.00345825
1567.34	-0.000805664	0.00648376
1567.8	-0.697845	-0.0168488
1568.26	0.00115967	0.00345001
1568.74	-0.000308228	0.00648315
1569.2	-0.697449	-0.016861
1569.66	-0.000167847	0.00345245
1570.14	-0.000354004	0.00648346
1570.6	-0.697906	-0.0168549
1571.06	0.00102844	0.00345215
1571.54	0.000161743	0.00647797
1572	-0.699402	-0.0168488
1572.46	0.00105286	0.00345337
1572.94	-0.000759888	0.0064798
1573.4	-0.698029	-0.0168549
1573.86	0.000598145	0.00345886
1574.34	0.000204468	0.00647156
1574.8	-0.699249	-0.0168457
1575.26	0.000320435	0.00345459
1575.74	-0.000942993	0.00647919
1576.2	-0.699005	-0.0168549
1576.66	-3.66211e-05	0.00346497
1577.14	-0.00015564	0.00647034
1577.6	-0.699432	-0.0168457
1578.06	0.000650024	0.00346008
1578.54	0.000924683	0.00646576
1579	-0.699127	-0.0168396
1579.46	0.00110779	0.00346161
1579.94	0.000482178	0.00647308
1580.4	-0.699219	-0.0168427
1580.86	0.000152588	0.00346191
1581.34	-3.96729e-05	0.00647308
1581.8	-0.698944	-0.0168427
1582.26	-0.000750732	0.00347107
1582.74	0.000958252	0.00646484
1583.2	-0.698883	-0.0168427
1583.66	0.00106201	0.00345795
1584.14	-0.000149536	0.00646606
1584.6	-0.698364	-0.0168701
1585.06	0.000619507	0.00346222
1585.54	-0.000827026	0.006474
1586	-0.697571	-0.0168518
1586.46	-0.000259399	0.0034726
1586.94	-0.000546265	0.00646973
1587.4	-0.697357	-0.0168518
1587.86	0.000363159	0.00346863
1588.34	0.00022583	0.0064624
1588.8	-0.69809	-0.0168549
1589.26	-0.000704956	0.00347717
1589.74	-6.71387e-05	0.00647156
1590.16	0.000817871	0.00185913