File: Edgar/20240607/20240607/electrodeposition_pulsed_potential_20240607_E/pulses_3000_to_4000.txt
Time (s)	WE(1).Potential (V)	WE(1).Current (A)
2307.91	-0.699219	-0.0192841
2308.37	0.000717163	0.00246643
2308.85	0.000613403	0.00547668
2309.31	-0.698639	-0.0169891
2309.77	-0.00043335	0.00348419
2310.25	-0.00083313	0.00591248
2310.71	-0.699341	-0.0167572
2311.17	-0.000238037	0.0036319
2311.65	0.00114746	0.00599182
2312.11	-0.697632	-0.0167114
2312.57	0.00104675	0.00367615
2313.05	-0.000436401	0.00603607
2313.51	-0.698914	-0.0166626
2313.97	-0.000701904	0.00370941
2314.45	-0.000799561	0.00605621
2314.91	-0.697968	-0.0166626
2315.37	0.000494385	0.00371552
2315.85	0.00105286	0.00605804
2316.31	-0.699005	-0.0166351
2316.77	-0.000881958	0.00373383
2317.25	0.00039978	0.00607635
2317.71	-0.697662	-0.0166382
2318.17	-0.00072937	0.00374359
2318.65	-0.000762939	0.00608612
2319.11	-0.69754	-0.0166321
2319.57	0.00088501	0.00374268
2320.05	0.00067749	0.00608582
2320.51	-0.699402	-0.0166199
2320.97	-0.000778198	0.0037561
2321.45	-0.000717163	0.00609467
2321.91	-0.697845	-0.016629
2322.37	0.0012146	0.00375214
2322.85	-0.000259399	0.0060965
2323.31	-0.699371	-0.0166077
2323.77	0.000863647	0.00375458
2324.25	-0.000671387	0.00610107
2324.71	-0.697388	-0.0166046
2325.17	-0.000698853	0.00376892
2325.65	-0.000827026	0.00610626
2326.11	-0.699066	-0.0166168
2326.57	0.00113831	0.00376099
2327.05	-0.000125122	0.00611115
2327.51	-0.698761	-0.0165985
2327.97	-0.0006073	0.00377808
2328.45	0.000167847	0.00610474
2328.91	-0.699371	-0.0166046
2329.37	0.000442505	0.00377136
2329.85	-1.2207e-05	0.00611206
2330.31	-0.698639	-0.0165955
2330.77	-0.000238037	0.00377899
2331.25	0.000540161	0.00611023
2331.71	-0.697754	-0.0165985
2332.17	-0.000384521	0.00377686
2332.65	-0.000823975	0.00611877
2333.11	-0.697693	-0.0165924
2333.57	0.00101624	0.0037796
2334.05	-0.000350952	0.00611908
2334.51	-0.699249	-0.0165833
2334.97	0.000695801	0.0037793
2335.45	-0.000830078	0.00612061
2335.91	-0.699127	-0.0165833
2336.37	-0.000125122	0.00379272
2336.85	0.000662231	0.00611908
2337.31	-0.697571	-0.0165894
2337.77	0.000744629	0.00378479
2338.25	-0.000482178	0.00612244
2338.71	-0.697479	-0.0165924
2339.17	0.00104675	0.0037851
2339.65	-0.000811768	0.00612274
2340.11	-0.699341	-0.0165833
2340.57	0.000332642	0.00379211
2341.05	-0.000814819	0.00612457
2341.51	-0.698334	-0.0165955
2341.97	8.23975e-05	0.00378815
2342.45	0.00112	0.00611542
2342.91	-0.698792	-0.0165802
2343.37	0.000958252	0.00379059
2343.85	0.000125122	0.00612152
2344.31	-0.699371	-0.0165741
2344.77	0.000927734	0.00379303
2345.25	-0.000378418	0.00612518
2345.71	-0.698517	-0.0165863
2346.17	0.000408936	0.0037912
2346.65	0.000839233	0.00612091
2347.11	-0.699371	-0.016571
2347.57	0.000549316	0.00379425
2348.05	0.000860596	0.00611572
2348.51	-0.698059	-0.0165863
2348.97	-0.00057373	0.00380371
2349.45	-0.000286865	0.00612152
2349.91	-0.697693	-0.0165771
2350.37	-0.000592041	0.00380524
2350.85	-0.000836182	0.00612701
2351.31	-0.698303	-0.0165833
2351.77	7.62939e-05	0.00379883
2352.25	0.0006073	0.00612488
2352.71	-0.699432	-0.016571
2353.17	-0.000286865	0.00380981
2353.65	-0.000656128	0.00612793
2354.11	-0.698761	-0.0165619
2354.57	0.000753784	0.00380249
2355.05	9.15527e-06	0.0061261
2355.51	-0.698456	-0.0165649
2355.97	-0.000656128	0.00380859
2356.45	0.000753784	0.00612518
2356.91	-0.699097	-0.0165771
2357.37	0.000335693	0.00380768
2357.85	3.05176e-05	0.00612183
2358.31	-0.698242	-0.016571
2358.77	0.000741577	0.0038028
2359.25	0.000479126	0.00612488
2359.71	-0.698761	-0.0165619
2360.17	-0.000430298	0.00381134
2360.65	0.000201416	0.00612305
2361.11	-0.698669	-0.016571
2361.57	-0.000387573	0.00381897
2362.05	0.000149536	0.00613068
2362.51	-0.699127	-0.0165619
2362.97	-7.01904e-05	0.00381256
2363.45	-0.000216675	0.00612549
2363.91	-0.699554	-0.016571
2364.37	0.000842285	0.00380402
2364.85	0.000674438	0.00612213
2365.31	-0.6987	-0.0165558
2365.77	-0.000466919	0.00381317
2366.25	0.000930786	0.00611633
2366.71	-0.697784	-0.016571
2367.17	-0.000418091	0.00381989
2367.65	0.000186157	0.0061264
2368.11	-0.69751	-0.0165649
2368.57	0.00109253	0.00380859
2369.05	-0.000668335	0.00612976
2369.51	-0.699463	-0.0165558
2369.97	0.00110474	0.00381012
2370.45	0.000891113	0.00611908
2370.91	-0.699432	-0.0165527
2371.37	0.000610352	0.00381714
2371.85	0.000613403	0.0061145
2372.31	-0.699402	-0.0165558
2372.77	-0.000802612	0.00382111
2373.25	0.00100708	0.00611755
2373.71	-0.697479	-0.0165588
2374.17	0.000762939	0.00381409
2374.65	-0.000201416	0.00612213
2375.11	-0.699432	-0.0165527
2375.57	0.000167847	0.00381989
2376.05	-0.000787354	0.00612732
2376.51	-0.697845	-0.0165558
2376.97	0.000289917	0.00382446
2377.45	0.000872803	0.00611725
2377.91	-0.69754	-0.0165588
2378.37	-0.00067749	0.00382416
2378.85	-0.000131226	0.00612213
2379.31	-0.699463	-0.0165466
2379.77	0.00105286	0.00381195
2380.25	0.000143433	0.00612183
2380.71	-0.697968	-0.0165649
2381.17	-0.000680542	0.00382446
2381.65	0.000811768	0.00611298
2382.11	-0.699432	-0.0165436
2382.57	0.000354004	0.00382294
2383.05	-0.000604248	0.00613098
2383.51	-0.699493	-0.0165497
2383.97	0.000500488	0.00381653
2384.45	-3.96729e-05	0.00612305
2384.91	-0.697784	-0.0165649
2385.37	-0.00045166	0.00382416
2385.85	0.000567627	0.00611328
2386.31	-0.699432	-0.0165405
2386.77	-0.000820923	0.00382538
2387.25	0.00111389	0.00611786
2387.71	-0.698212	-0.0165497
2388.17	4.88281e-05	0.00382294
2388.65	0.000311279	0.00612
2389.11	-0.69928	-0.0165558
2389.57	-3.35693e-05	0.00382233
2390.05	0.000146484	0.00611969
2390.51	-0.697632	-0.0165558
2390.97	0.00106506	0.00381897
2391.45	-0.000631714	0.00612579
2391.91	-0.699158	-0.0165497
2392.37	-0.000134277	0.00382965
2392.85	-0.000793457	0.00612305
2393.31	-0.699249	-0.0165375
2393.77	0.00022583	0.0038266
2394.25	-0.000326538	0.00611786
2394.71	-0.698181	-0.0165588
2395.17	0.00085144	0.00382263
2395.65	2.13623e-05	0.00611847
2396.11	-0.69751	-0.0165497
2396.57	0.000946045	0.00381989
2397.05	-0.000653076	0.0061264
2397.51	-0.699432	-0.0165527
2397.97	0.00103455	0.00382141
2398.45	0.00055542	0.00611938
2398.91	-0.697815	-0.0165405
2399.37	0.000866699	0.00382355
2399.85	0.000735474	0.00611755
2400.31	-0.699402	-0.0165466
2400.77	0.000973511	0.00382385
2401.25	0.000909424	0.00611328
2401.71	-0.699066	-0.0165375
2402.17	0.000378418	0.00383423
2402.65	-0.00065918	0.00612488
2403.11	-0.698029	-0.0165405
2403.57	0.000402832	0.003828125
2404.05	0.000756836	0.00611511
2404.51	-0.699066	-0.0165375
2404.97	0.00108032	0.00382416
2405.45	0.000439453	0.0061145
2405.91	-0.698547	-0.0165375
2406.37	0.00120544	0.0038266
2406.85	-0.000775146	0.00612183
2407.31	-0.698456	-0.0165558
2407.77	-0.000714111	0.00383545
2408.25	0.000778198	0.0061084
2408.71	-0.699463	-0.0165314
2409.17	0.00088501	0.00382874
2409.65	-0.000137329	0.00611786
2410.11	-0.698822	-0.0165314
2410.57	-0.000686646	0.00383728
2411.05	-0.000787354	0.00611877
2411.51	-0.699249	-0.0165375
2411.97	0.00115051	0.0038269
2412.45	0.00110779	0.00610962
2412.91	-0.699463	-0.0165375
2413.37	-0.000302124	0.00383636
2413.85	-0.000762939	0.0061203
2414.31	-0.698273	-0.0165558
2414.77	-0.000811768	0.00383789
2415.25	-0.000857544	0.00612061
2415.71	-0.698853	-0.0165344
2416.17	-0.000735474	0.0038385
2416.65	0.000109863	0.00611084
2417.11	-0.698975	-0.0165375
2417.57	0.000967407	0.00382843
2418.05	0.000894165	0.00611084
2418.51	-0.699341	-0.0165375
2418.97	0.00105896	0.00382874
2419.45	0.00106201	0.00610748
2419.91	-0.698761	-0.0165497
2420.37	0.000448608	0.00383484
2420.85	-0.000482178	0.00611572
2421.31	-0.69873	-0.0165466
2421.77	0.000912476	0.00382843
2422.25	0.000378418	0.00610535
2422.71	-0.699219	-0.0165436
2423.17	0.000439453	0.00383118
2423.65	-0.00027771	0.00611115
2424.11	-0.698303	-0.0165497
2424.57	-3.96729e-05	0.00383667
2425.05	0.000372314	0.00610901
2425.51	-0.697601	-0.0165436
2425.97	-0.000558472	0.00384094
2426.45	0.000964355	0.00610657
2426.91	-0.699005	-0.0165344
2427.37	0.00103149	0.00383026
2427.85	-0.000210571	0.00610687
2428.31	-0.697845	-0.0165466
2428.77	0.000402832	0.00383667
2429.25	0.000805664	0.00610413
2429.71	-0.699402	-0.0165405
2430.17	0.000393677	0.0038382
2430.65	0.000137329	0.00611115
2431.11	-0.699005	-0.0165344
2431.57	-0.000796509	0.00384247
2432.05	0.00108337	0.00610474
2432.51	-0.698334	-0.0165314
2432.97	-0.00072937	0.00384277
2433.45	-0.00071106	0.00611176
2433.91	-0.699371	-0.0165314
2434.37	0.00101624	0.00383362
2434.85	0.00100098	0.00610352
2435.31	-0.697906	-0.0165314
2435.77	-0.000750732	0.00384369
2436.25	-0.000296021	0.0061084
2436.71	-0.697601	-0.0165375
2437.17	0.00119629	0.0038324
2437.65	-0.000915527	0.00611267
2438.11	-0.69931	-0.0165253
2438.57	0.00103455	0.00383331
2439.05	-0.000158691	0.00610535
2439.51	-0.697693	-0.0165344
2439.97	-0.000445557	0.00384338
2440.45	0.00020752	0.00610565
2440.91	-0.698181	-0.0165375
2441.37	0.000332642	0.00383759
2441.85	-0.000842285	0.00611053
2442.31	-0.698578	-0.0165283
2442.77	0.000354004	0.00383514
2443.25	-0.000515747	0.00610992
2443.71	-0.699463	-0.0165314
2444.17	0.000320435	0.00384308
2444.65	0.000332642	0.00609955
2445.11	-0.698151	-0.0165405
2445.57	-0.000439453	0.00384338
2446.05	0.000796509	0.00610077
2446.51	-0.697876	-0.0165283
2446.97	0.00102539	0.00383514
2447.45	0.00101929	0.00610138
2447.91	-0.699432	-0.0165253
2448.37	0.00106201	0.0038385
2448.85	0.00100098	0.00609894
2449.31	-0.699249	-0.0165314
2449.77	0.000115967	0.00384186
2450.25	-0.000759888	0.00611084
2450.71	-0.698669	-0.0165222
2451.17	0.000534058	0.00384521
2451.65	0.000668335	0.00610443
2452.11	-0.699432	-0.0165283
2452.57	-0.000848389	0.00384796
2453.05	0.000848389	0.00609924
2453.51	-0.697601	-0.0165375
2453.97	-0.00072937	0.00385132
2454.45	-0.000787354	0.0061087
2454.91	-0.698364	-0.0165253
2455.37	0.00100708	0.00383911
2455.85	0.000671387	0.00610168
2456.31	-0.699097	-0.0165222
2456.77	0.000888062	0.00383881
2457.25	-0.000961304	0.00610748
2457.71	-0.698608	-0.0165375
2458.17	0.000875854	0.00384308
2458.65	0.000549316	0.0060965
2459.11	-0.69931	-0.0165283
2459.57	0.00102234	0.00384186
2460.05	-0.00085144	0.00610626
2460.51	-0.699432	-0.0165314
2460.97	-0.000646973	0.00385406
2461.45	0.00085144	0.00609924
2461.91	-0.697662	-0.0165375
2462.37	0.00116577	0.00384399
2462.85	-0.000656128	0.00610748
2463.31	-0.697632	-0.0165375
2463.77	0.000283813	0.0038501
2464.25	-0.000531006	0.00610779
2464.71	-0.699554	-0.0165314
2465.17	0.000375366	0.00384613
2465.65	0.000564575	0.00609924
2466.11	-0.697845	-0.0165253
2466.57	-0.000854492	0.00385376
2467.05	0.00088501	0.00609833
2467.51	-0.697571	-0.0165283
2467.97	0.000878906	0.00384796
2468.45	0.000964355	0.00609192
2468.91	-0.699432	-0.0165253
2469.37	-0.000772095	0.00385498
2469.85	-0.000335693	0.00609772
2470.31	-0.699341	-0.0165161
2470.77	0.000747681	0.00384308
2471.25	-0.000753784	0.00610352
2471.71	-0.698639	-0.0165192
2472.17	0.000964355	0.00384857
2472.65	6.10352e-06	0.00609497
2473.11	-0.69812	-0.0165222
2473.57	-0.00057373	0.00385651
2474.05	7.01904e-05	0.0060968
2474.51	-0.699188	-0.0165283
2474.97	0.000128174	0.00385437
2475.45	0.000665283	0.00609253
2475.91	-0.69809	-0.0165344
2476.37	-0.000747681	0.00385651
2476.85	0.000686646	0.0060907
2477.31	-0.697754	-0.0165253
2477.77	0.000735474	0.00385315
2478.25	0.00100403	0.00609192
2478.71	-0.699219	-0.0165253
2479.17	-0.000289917	0.00385559
2479.65	0.000997925	0.00609375
2480.11	-0.698517	-0.0165314
2480.57	-0.000747681	0.00386047
2481.05	0.000802612	0.00609253
2481.51	-0.699341	-0.0165253
2481.97	0.0011261	0.00384918
2482.45	0.00112	0.00609253
2482.91	-0.69928	-0.0165192
2483.37	0.00107727	0.00385162
2483.85	0.00103455	0.00609009
2484.31	-0.699249	-0.0165283
2484.77	-0.000689697	0.00386322
2485.25	-0.000640869	0.00609833
2485.71	-0.699371	-0.0165131
2486.17	-0.000527954	0.00385712
2486.65	0.0006073	0.0060965
2487.11	-0.699432	-0.0165222
2487.57	0.000411987	0.0038559
2488.05	-0.000872803	0.00609985
2488.51	-0.699463	-0.0165283
2488.97	0.00106812	0.00384613
2489.45	-0.000756836	0.00609711
2489.91	-0.697754	-0.0165405
2490.37	0.00102539	0.00384705
2490.85	-0.000405884	0.00609772
2491.31	-0.698212	-0.0165436
2491.77	-0.000827026	0.00385925
2492.25	0.000787354	0.00609314
2492.71	-0.698425	-0.0165283
2493.17	-0.0003479	0.00385498
2493.65	0.000805664	0.00609039
2494.11	-0.697571	-0.0165253
2494.57	0.000741577	0.00385132
2495.05	0.00105286	0.00608521
2495.51	-0.697968	-0.0165436
2495.97	-0.000796509	0.00386017
2496.45	-0.000326538	0.00608887
2496.91	-0.697998	-0.0165283
2497.37	0.00107422	0.00385132
2497.85	0.000216675	0.00608978
2498.31	-0.6987	-0.0165283
2498.77	0.000949097	0.00385345
2499.25	-0.00071106	0.00609894
2499.71	-0.699463	-0.0165314
2500.17	-0.000222778	0.00385803
2500.65	-1.83105e-05	0.0060968
2501.11	-0.697754	-0.0165436
2501.57	-9.76562e-05	0.00386505
2502.05	0.000439453	0.0060965
2502.51	-0.69754	-0.0165436
2502.97	0.000595093	0.00385864
2503.45	0.000772095	0.00609131
2503.91	-0.697662	-0.0165497
2504.37	-0.000552368	0.00386444
2504.85	0.00085144	0.00608551
2505.31	-0.699249	-0.0165253
2505.77	0.00107422	0.0038562
2506.25	-0.000915527	0.00609955
2506.71	-0.6987	-0.0165405
2507.17	-5.18799e-05	0.00385803
2507.65	-0.000192261	0.00609924
2508.11	-0.697571	-0.0165466
2508.57	0.00111084	0.0038562
2509.05	0.000915527	0.00609222
2509.51	-0.698029	-0.0165466
2509.97	0.000439453	0.00385925
2510.45	-0.000695801	0.00609894
2510.91	-0.697998	-0.0165527
2511.37	0.00113831	0.00386139
2511.85	0.000915527	0.00609039
2512.31	-0.699371	-0.0165436
2512.77	-0.000506592	0.00386536
2513.25	0.000305176	0.00609619
2513.71	-0.699432	-0.0165375
2514.17	0.000622559	0.00386383
2514.65	0.00090332	0.00608948
2515.11	-0.699249	-0.0165314
2515.57	-0.000445557	0.00386932
2516.05	-0.000518799	0.00610107
2516.51	-0.698151	-0.0165527
2516.97	0.000640869	0.00385773
2517.45	0.000897217	0.00608795
2517.91	-0.697998	-0.0165375
2518.37	0.000537109	0.00386292
2518.85	-0.000183105	0.00609283
2519.31	-0.697632	-0.0165436
2519.77	0.000213623	0.00386993
2520.25	-0.000476074	0.00609955
2520.71	-0.699188	-0.0165436
2521.17	-0.000296021	0.00386871
2521.65	-0.000671387	0.00610138
2522.11	-0.69809	-0.0165375
2522.57	-0.000390625	0.00387115
2523.05	0.000613403	0.00608826
2523.51	-0.697601	-0.0165436
2523.97	-0.000100708	0.00387329
2524.45	0.000796509	0.00609161
2524.91	-0.699493	-0.0165375
2525.37	-0.000765991	0.00387421
2525.85	-0.000692749	0.00609955
2526.31	-0.697632	-0.0165436
2526.77	0.000534058	0.0038736
2527.25	-0.000750732	0.00609406
2527.71	-0.698944	-0.0165436
2528.17	0.00102539	0.00386444
2528.65	0.00088501	0.0060907
2529.11	-0.698486	-0.0165466
2529.57	0.000283813	0.00386658
2530.05	-0.000668335	0.00609589
2530.51	-0.699371	-0.0165314
2530.97	-0.00072937	0.00387604
2531.45	-0.000811768	0.00609558
2531.91	-0.698822	-0.0165253
2532.37	-0.000823975	0.00387634
2532.85	0.000823975	0.00608673
2533.31	-0.697693	-0.0165466
2533.77	0.000296021	0.00387329
2534.25	-0.00038147	0.00609619
2534.71	-0.699524	-0.0165405
2535.17	0.000582886	0.00387146
2535.65	0.000326538	0.00609192
2536.11	-0.697632	-0.0165405
2536.57	-0.000793457	0.0038736
2537.05	-0.000897217	0.0060968
2537.51	-0.698639	-0.0165283
2537.97	0.000326538	0.00387024
2538.45	-0.000357056	0.00609558
2538.91	-0.697784	-0.0165466
2539.37	0.000253296	0.00387115
2539.85	0.000189209	0.006091
2540.31	-0.698029	-0.0165283
2540.77	-0.000750732	0.0038797
2541.25	-0.000274658	0.00609253
2541.71	-0.698181	-0.0165344
2542.17	-0.000820923	0.00387939
2542.65	-0.000845337	0.00608734
2543.11	-0.699127	-0.0165344
2543.57	0.000979614	0.00386871
2544.05	-0.000610352	0.00609222
2544.51	-0.697723	-0.0165405
2544.97	-0.00071106	0.00387939
2545.45	-0.000213623	0.00609039
2545.91	-0.699371	-0.0165283
2546.37	-0.000604248	0.00387756
2546.85	0.000628662	0.00608582
2547.31	-0.69931	-0.0165192
2547.77	0.00108643	0.00386871
2548.25	0.0003479	0.00608826
2548.71	-0.697906	-0.0165283
2549.17	-0.000509644	0.00387665
2549.65	0.000915527	0.00608154
2550.11	-0.698425	-0.0165405
2550.57	-0.000311279	0.00388
2551.05	-0.000738525	0.00609131
2551.51	-0.699127	-0.0165131
2551.97	0.000802612	0.00386749
2552.45	-0.000930786	0.00609222
2552.91	-0.697571	-0.0165375
2553.37	0.000234985	0.00387817
2553.85	0.00101318	0.00607788
2554.31	-0.697876	-0.0165283
2554.77	0.000640869	0.00387604
2555.25	0.000259399	0.00608154
2555.71	-0.699463	-0.0165253
2556.17	-5.18799e-05	0.00388153
2556.65	0.000704956	0.00607819
2557.11	-0.698853	-0.0165192
2557.57	0.000195313	0.00387268
2558.05	0.000897217	0.00608185
2558.51	-0.698578	-0.0165222
2558.97	5.18799e-05	0.00388214
2559.45	-0.000183105	0.00608673
2559.91	-0.697418	-0.0165253
2560.37	-0.000665283	0.00388458
2560.85	-0.000570679	0.00608887
2561.31	-0.698578	-0.0165314
2561.77	-0.000799561	0.00388428
2562.25	-7.01904e-05	0.00607941
2562.71	-0.697968	-0.0165436
2563.17	0.00104675	0.00387268
2563.65	0.000402832	0.00608032
2564.11	-0.699249	-0.0165253
2564.57	-0.000637817	0.00388336
2565.05	-0.000640869	0.00608917
2565.51	-0.698944	-0.0165283
2565.97	0.000311279	0.00388245
2566.45	0.00090332	0.00608063
2566.91	-0.697754	-0.0165314
2567.37	0.00101013	0.00387421
2567.85	0.000930786	0.00608307
2568.31	-0.698456	-0.0165253
2568.77	-0.000531006	0.00388733
2569.25	0.000445557	0.0060791
2569.71	-0.698669	-0.0165222
2570.17	-0.000637817	0.00388458
2570.65	-1.52588e-05	0.00608643
2571.11	-0.698273	-0.0165344
2571.57	-0.000296021	0.00388153
2572.05	-0.000201416	0.00608063
2572.51	-0.699158	-0.0165344
2572.97	0.000906372	0.00388153
2573.45	0.000439453	0.00607849
2573.91	-0.698547	-0.0165375
2574.37	0.000796509	0.00388245
2574.85	-0.000750732	0.006091
2575.31	-0.699341	-0.0165375
2575.77	0.000567627	0.00388153
2576.25	-0.000588989	0.00608917
2576.71	-0.698669	-0.0165283
2577.17	0.00108337	0.00388
2577.65	0.000811768	0.00608398
2578.11	-0.697723	-0.0165344
2578.57	-0.000372314	0.00388641
2579.05	-0.000161743	0.00608643
2579.51	-0.697632	-0.0165405
2579.97	-0.000772095	0.00389069
2580.45	0.000888062	0.00607666
2580.91	-0.698517	-0.0165314
2581.37	-0.000540161	0.00388794
2581.85	3.05176e-06	0.00608032
2582.31	-0.697571	-0.0165436
2582.77	0.00117798	0.00388489
2583.25	-0.000985718	0.00608459
2583.71	-0.698517	-0.0165375
2584.17	0.000860596	0.00388153
2584.65	0.000427246	0.00608154
2585.11	-0.697388	-0.0165344
2585.57	0.000881958	0.00388611
2586.05	0.000283813	0.00608276
2586.51	-0.698029	-0.0165405
2586.97	0.00043335	0.00388336
2587.45	0.00109558	0.00607819
2587.91	-0.697815	-0.0165405
2588.37	-0.000296021	0.00388824
2588.85	0.000540161	0.00607574
2589.31	-0.698517	-0.0165436
2589.77	0.000247192	0.00388977
2590.25	-0.000326538	0.00608093
2590.71	-0.697876	-0.0165283
2591.17	0.000686646	0.00388855
2591.65	-0.000488281	0.00608276
2592.11	-0.69931	-0.0165314
2592.57	0.00116882	0.00388824
2593.05	0.000167847	0.00607452
2593.51	-0.698669	-0.0165405
2593.97	-0.000463867	0.00389374
2594.45	0.000436401	0.00607819
2594.91	-0.697357	-0.0165283
2595.37	0.000961304	0.00388672
2595.85	-0.000189209	0.00607788
2596.31	-0.699341	-0.0165253
2596.77	-0.000341797	0.00389221
2597.25	0.000912476	0.00607452
2597.71	-0.697876	-0.0165405
2598.17	0.000537109	0.00388519
2598.65	-0.000268555	0.00608002
2599.11	-0.699249	-0.0165283
2599.57	-0.000497437	0.00389679
2600.05	0.0009552	0.00607056
2600.51	-0.699402	-0.0165283
2600.97	0.000994873	0.00388947
2601.45	0.000421143	0.00607025
2601.91	-0.698578	-0.0165283
2602.37	-0.000717163	0.00389984
2602.85	1.2207e-05	0.00608063
2603.31	-0.699432	-0.0165161
2603.77	-0.000717163	0.00389832
2604.25	0.000961304	0.00606812
2604.71	-0.699371	-0.0165192
2605.17	0.000387573	0.00388916
2605.65	-0.000775146	0.0060791
2606.11	-0.69809	-0.0165283
2606.57	-0.000241089	0.00389618
2607.05	0.00015564	0.00606995
2607.51	-0.699402	-0.0165192
2607.97	0.000863647	0.00389191
2608.45	-0.00027771	0.00607025
2608.91	-0.697662	-0.0165344
2609.37	0.000335693	0.00388977
2609.85	-0.000366211	0.00607758
2610.31	-0.697449	-0.0165253
2610.77	0.000817871	0.0038913
2611.25	-0.000793457	0.0060791
2611.71	-0.699219	-0.0165161
2612.17	-0.000411987	0.00389435
2612.65	-0.000418091	0.00608063
2613.11	-0.699432	-0.0165131
2613.57	0.00110474	0.00388855
2614.05	-0.000579834	0.00607452
2614.51	-0.698547	-0.0165375
2614.97	0.00101624	0.00388947
2615.45	-0.000778198	0.0060788
2615.91	-0.697479	-0.0165222
2616.37	0.000335693	0.00389191
2616.85	0.00012207	0.0060733
2617.31	-0.698059	-0.0165344
2617.77	0.00112	0.00389435
2618.25	-4.27246e-05	0.00607635
2618.71	-0.699432	-0.0165161
2619.17	-0.000509644	0.00390259
2619.65	0.000363159	0.00607086
2620.11	-0.698334	-0.0165131
2620.57	0.0010498	0.0038916
2621.05	-0.000787354	0.00607361
2621.51	-0.699249	-0.0165192
2621.97	-4.27246e-05	0.00390289
2622.45	-0.0009552	0.00607025
2622.91	-0.697815	-0.0165222
2623.37	0.000473022	0.00389832
2623.85	0.00102844	0.00606354
2624.31	-0.698029	-0.0165283
2624.77	-0.000427246	0.00390015
2625.25	0.000430298	0.00606812
2625.71	-0.698059	-0.0165161
2626.17	-0.00032959	0.00389862
2626.65	0.000799561	0.00606598
2627.11	-0.697571	-0.0165253
2627.57	3.66211e-05	0.00390442
2628.05	0	0.0060733
2628.51	-0.699402	-0.0165192
2628.97	0.0010498	0.00389313
2629.45	-0.000241089	0.00607208
2629.91	-0.698212	-0.0165131
2630.37	-0.00065918	0.00390533
2630.85	-0.000793457	0.00607147
2631.31	-0.69931	-0.01651
2631.77	-0.000100708	0.00389832
2632.25	0.000982666	0.00606323
2632.71	-0.698578	-0.0165314
2633.17	0.00120544	0.0038974
2633.65	-0.000280762	0.00606781
2634.11	-0.698364	-0.0165314
2634.57	0.00067749	0.00389954
2635.05	0.000393677	0.00606659
2635.51	-0.697662	-0.0165222
2635.97	0.000280762	0.00389832
2636.45	-0.000463867	0.00606995
2636.91	-0.698853	-0.0165161
2637.37	0.00120544	0.00389984
2637.85	-0.000521851	0.00607452
2638.31	-0.69751	-0.0165314
2638.77	-0.000598145	0.00390869
2639.25	-0.000354004	0.006073
2639.71	-0.698669	-0.0165375
2640.17	0.000909424	0.00389618
2640.65	-0.000390625	0.00606781
2641.11	-0.698334	-0.0165314
2641.57	0.000738525	0.00389679
2642.05	-0.000854492	0.00607147
2642.51	-0.699341	-0.0165131
2642.97	0.000537109	0.00389618
2643.45	0.00105896	0.00605896
2643.91	-0.699036	-0.0165253
2644.37	8.23975e-05	0.00390106
2644.85	-5.79834e-05	0.00606567
2645.31	-0.699371	-0.0165283
2645.77	2.74658e-05	0.00390686
2646.25	-0.000579834	0.00607422
2646.71	-0.699005	-0.0165253
2647.17	-0.000823975	0.00390808
2647.65	0.00108032	0.00606506
2648.11	-0.697906	-0.0165344
2648.57	-0.000708008	0.00391113
2649.05	0.000302124	0.0060614
2649.51	-0.697662	-0.0165344
2649.97	0.000344849	0.00390259
2650.45	0.00100708	0.00606293
2650.91	-0.697601	-0.0165314
2651.37	0.000241089	0.00390472
2651.85	-0.000802612	0.00607178
2652.31	-0.69931	-0.0165283
2652.77	-0.000231934	0.00390289
2653.25	0.000158691	0.00605957
2653.71	-0.698853	-0.0165344
2654.17	-0.000698853	0.00391296
2654.65	0.000894165	0.00606232
2655.11	-0.698853	-0.0165405
2655.57	7.62939e-05	0.00391327
2656.05	-0.000765991	0.00607086
2656.51	-0.698578	-0.0165161
2656.97	-0.000100708	0.00390625
2657.45	-0.000872803	0.00606628
2657.91	-0.698456	-0.0165314
2658.37	-0.00027771	0.0039151
2658.85	-0.000561523	0.00606781
2659.31	-0.69754	-0.0165283
2659.77	-6.40869e-05	0.00391357
2660.25	0.000744629	0.00606384
2660.71	-0.698456	-0.0165222
2661.17	-0.000317383	0.00391541
2661.65	0.000741577	0.00605896
2662.11	-0.69751	-0.0165283
2662.57	0.000753784	0.00390381
2663.05	0.000106812	0.00605896
2663.51	-0.697784	-0.0165314
2663.97	-0.000585937	0.00391357
2664.45	0.000396729	0.00606415
2664.91	-0.699097	-0.01651
2665.37	0.000546265	0.00391144
2665.85	0.00065918	0.00605774
2666.31	-0.698639	-0.0165283
2666.77	0.00067749	0.00390472
2667.25	-0.000857544	0.00606506
2667.71	-0.697906	-0.0165375
2668.17	-0.000756836	0.00391693
2668.65	-0.000274658	0.00606201
2669.11	-0.699432	-0.0165222
2669.57	0.000906372	0.00390747
2670.05	-0.00065918	0.00606537
2670.51	-0.69754	-0.0165283
2670.97	3.35693e-05	0.003909
2671.45	-0.00078125	0.0060675
2671.91	-0.697968	-0.0165314
2672.37	-0.000601196	0.00392029
2672.85	0.000238037	0.00606537
2673.31	-0.699219	-0.0165131
2673.77	-0.000366211	0.00391449
2674.25	-4.88281e-05	0.00606415
2674.71	-0.698486	-0.0165283
2675.17	0.000274658	0.00391571
2675.65	0.000997925	0.0060556
2676.11	-0.697693	-0.0165161
2676.57	0.000762939	0.00390747
2677.05	0.00114746	0.00605408
2677.51	-0.6987	-0.0165253
2677.97	0.000280762	0.00391144
2678.45	0.000265503	0.00605804
2678.91	-0.699127	-0.0165039
2679.37	0.000650024	0.00391235
2679.85	-0.000537109	0.00605896
2680.31	-0.699219	-0.0165222
2680.77	-0.000662231	0.00391876
2681.25	0.000512695	0.00605347
2681.71	-0.697571	-0.0165222
2682.17	-0.000213623	0.00390991
2682.65	-0.00039978	0.00606659
2683.11	-0.697571	-0.0165253
2683.57	0.000970459	0.00391144
2684.05	-4.88281e-05	0.00606171
2684.51	-0.698517	-0.0165131
2684.97	-0.000201416	0.00391724
2685.45	-9.76562e-05	0.00605804
2685.91	-0.697845	-0.0165314
2686.37	-0.000292969	0.0039209
2686.85	0.00078125	0.00605743
2687.31	-0.69754	-0.0165283
2687.77	0.000363159	0.00391968
2688.25	0.000241089	0.0060553
2688.71	-0.697876	-0.0165222
2689.17	-0.000366211	0.00392273
2689.65	0.000473022	0.00605865
2690.11	-0.699554	-0.016507
2690.57	-0.00078125	0.00392303
2691.05	0.000784302	0.00605103
2691.51	-0.698761	-0.0165222
2691.97	0.00115662	0.00391357
2692.45	0.000439453	0.00605133
2692.91	-0.698975	-0.0165131
2693.37	0.000454712	0.00391937
2693.85	-0.000762939	0.00606201
2694.31	-0.697845	-0.016507
2694.77	0.00109253	0.00391418
2695.25	-0.000656128	0.0060614
2695.71	-0.699402	-0.0165131
2696.17	0.00111694	0.00391388
2696.65	-0.000631714	0.00605713
2697.11	-0.699097	-0.0165161
2697.57	0.00085144	0.00391266
2698.05	0.000897217	0.00604736
2698.51	-0.699188	-0.0165161
2698.97	-0.000735474	0.00392578
2699.45	0.000958252	0.00604858
2699.91	-0.697845	-0.0165222
2700.37	-0.00078125	0.0039267
2700.85	-0.000778198	0.00605927
2701.31	-0.697601	-0.0165131
2701.77	0.000860596	0.00391327
2702.25	0.000860596	0.00605438
2702.71	-0.697937	-0.01651
2703.17	-0.000396729	0.00392303
2703.65	-0.000662231	0.0060556
2704.11	-0.699432	-0.0165131
2704.57	0.000619507	0.00391632
2705.05	0.000723267	0.00605225
2705.51	-0.699402	-0.016507
2705.97	0.000872803	0.00391846
2706.45	-0.000744629	0.00606049
2706.91	-0.698792	-0.0165222
2707.37	0.00118103	0.00391571
2707.85	-0.000256348	0.00604919
2708.31	-0.698029	-0.0165253
2708.77	0.00107422	0.00391693
2709.25	-0.000415039	0.00605774
2709.71	-0.698151	-0.0165253
2710.17	0.000112915	0.00392487
2710.65	0.00065918	0.00604523
2711.11	-0.698303	-0.0165222
2711.57	6.10352e-05	0.0039267
2712.05	9.15527e-06	0.00605469
2712.51	-0.697571	-0.0165161
2712.97	0.00090332	0.00391815
2713.45	0.000994873	0.00604553
2713.91	-0.698975	-0.01651
2714.37	-0.000726318	0.00392792
2714.85	-7.93457e-05	0.0060553
2715.31	-0.698273	-0.0165039
2715.77	-0.000726318	0.00392944
2716.25	0.000314331	0.00605103
2716.71	-0.698273	-0.0165192
2717.17	0.000802612	0.00392578
2717.65	-0.000653076	0.0060556
2718.11	-0.699371	-0.0165009
2718.57	-0.000650024	0.00393127
2719.05	0.00103149	0.00604218
2719.51	-0.69754	-0.01651
2719.97	0.000250244	0.00392212
2720.45	0.00101929	0.00604645
2720.91	-0.699188	-0.01651
2721.37	0.00055542	0.00391846
2721.85	-0.000631714	0.00605103
2722.31	-0.69809	-0.0165314
2722.77	-0.00017395	0.00391785
2723.25	0.00038147	0.00604248
2723.71	-0.698547	-0.0165161
2724.17	-0.000317383	0.00392731
2724.65	0.000500488	0.00604401
2725.11	-0.697388	-0.0165314
2725.57	-0.000262451	0.00392548
2726.05	-0.000646973	0.0060495
2726.51	-0.697571	-0.0165283
2726.97	-0.000753784	0.003927
2727.45	0.001171875	0.0060379
2727.91	-0.699402	-0.0165192
2728.37	0.00102539	0.00391449
2728.85	0.000595093	0.00603851
2729.31	-0.697784	-0.0165314
2729.77	0.000717163	0.00391998
2730.25	0.000863647	0.00603729
2730.71	-0.699127	-0.0165131
2731.17	-0.000378418	0.00392761
2731.65	-0.000360107	0.00604858
2732.11	-0.698761	-0.0165314
2732.57	0.000415039	0.003927
2733.05	-0.000952148	0.00604706
2733.51	-0.697632	-0.0165314
2733.97	0.000714111	0.00392212
2734.45	0.000601196	0.00603638
2734.91	-0.697418	-0.0165253
2735.37	-0.00065918	0.00392975
2735.85	0.00101013	0.00603455
2736.31	-0.697632	-0.0165283
2736.77	0.00107117	0.00391968
2737.25	0.000146484	0.00604431
2737.71	-0.697815	-0.0165253
2738.17	-0.00065918	0.00392548
2738.65	0.00100098	0.00603424
2739.11	-0.698029	-0.0165131
2739.57	-0.000219727	0.00392395
2740.05	0.000378418	0.00603882
2740.51	-0.699524	-0.01651
2740.97	0.00107117	0.00391876
2741.45	-0.000344849	0.00604492
2741.91	-0.69809	-0.0165131
2742.37	0.000305176	0.00392914
2742.85	0.000506592	0.00603241
2743.31	-0.699066	-0.01651
2743.77	0.00102539	0.00391968
2744.25	-0.000506592	0.00604584
2744.71	-0.698517	-0.0165253
2745.17	0.00102234	0.00392029
2745.65	-0.000262451	0.00604004
2746.11	-0.698395	-0.0165222
2746.57	0.000741577	0.00391998
2747.05	-4.88281e-05	0.00604218
2747.51	-0.699036	-0.0165039
2747.97	-0.000201416	0.00392273
2748.45	-0.00062561	0.00603851
2748.91	-0.699371	-0.016507
2749.37	-0.000344849	0.00392883
2749.85	-0.000335693	0.0060376
2750.31	-0.697601	-0.0165131
2750.77	-0.000592041	0.0039328
2751.25	-0.000793457	0.00604218
2751.71	-0.697632	-0.0165192
2752.17	0.0012146	0.00392365
2752.65	-0.000900269	0.00603729
2753.11	-0.698334	-0.01651
2753.57	-0.000546265	0.00393463
2754.05	0.00105896	0.00602936
2754.51	-0.69754	-0.0165131
2754.97	0.000839233	0.00392242
2755.45	-0.000552368	0.00604034
2755.91	-0.697632	-0.0165192
2756.37	-0.00072937	0.00393158
2756.85	-7.62939e-05	0.0060379
2757.31	-0.699066	-0.0165131
2757.77	-3.96729e-05	0.00393494
2758.25	-0.000793457	0.00603638
2758.71	-0.698883	-0.0165131
2759.17	0.000341797	0.00392639
2759.65	-0.000201416	0.00603363
2760.11	-0.697479	-0.0165161
2760.57	0.000546265	0.00392548
2761.05	-0.000161743	0.00603455
2761.51	-0.697601	-0.0165222
2761.97	0.000964355	0.00392395
2762.45	-0.000653076	0.00604279
2762.91	-0.699432	-0.0165131
2763.37	0.000140381	0.00392914
2763.85	-0.00083313	0.00604218
2764.31	-0.699341	-0.0165039
2764.77	0.000164795	0.00392975
2765.25	-0.000668335	0.00604248
2765.71	-0.699402	-0.0165192
2766.17	-0.000372314	0.00393768
2766.65	0.000994873	0.00603271
2767.11	-0.697998	-0.01651
2767.57	0.000869751	0.00392517
2768.05	0.00012207	0.00602997
2768.51	-0.697693	-0.0165131
2768.97	0.000637817	0.00392822
2769.45	0.000152588	0.00603729
2769.91	-0.698212	-0.0165222
2770.37	-0.000637817	0.00394104
2770.85	0.00088501	0.00602692
2771.31	-0.699127	-0.0165039
2771.77	-0.000479126	0.00394043
2772.25	-0.000598145	0.00603577
2772.71	-0.697845	-0.01651
2773.17	-4.88281e-05	0.00393372
2773.65	0.000335693	0.00602814
2774.11	-0.699036	-0.01651
2774.57	0.00107117	0.00393066
2775.05	-0.000393677	0.00603699
2775.51	-0.699188	-0.0165131
2775.97	0.000415039	0.00393127
2776.45	0.000790405	0.00602539
2776.91	-0.699432	-0.016507
2777.37	-0.000915527	0.00393951
2777.85	0.00108948	0.0060321
2778.31	-0.697723	-0.01651
2778.77	-0.000488281	0.00394043
2779.25	0.000613403	0.00602814
2779.71	-0.697571	-0.0165161
2780.17	-0.000708008	0.00393982
2780.65	0.000231934	0.00603088
2781.11	-0.69754	-0.01651
2781.57	-0.000741577	0.00394135
2782.05	0.000543213	0.00602753
2782.51	-0.697632	-0.0165161
2782.97	-0.000598145	0.00393677
2783.45	0.000720215	0.00603027
2783.91	-0.698578	-0.0165161
2784.37	-0.000720215	0.00394379
2784.85	0.00083313	0.00602661
2785.31	-0.697937	-0.0165009
2785.77	0.000238037	0.00394043
2786.25	-0.000646973	0.00603607
2786.71	-0.699341	-0.0165131
2787.17	0.000842285	0.00393829
2787.65	0.000619507	0.00603668
2788.11	-0.699249	-0.0165131
2788.57	-0.000161743	0.0039447
2789.05	0.000918579	0.00602692
2789.51	-0.699371	-0.016507
2789.97	0.00104675	0.00393646
2790.45	-0.000512695	0.00603485
2790.91	-0.699249	-0.0165161
2791.37	0.00106812	0.00393433
2791.85	0.000390625	0.0060257
2792.31	-0.69928	-0.0165131
2792.77	-0.000836182	0.00394287
2793.25	0.000302124	0.00602386
2793.71	-0.69812	-0.0165161
2794.17	0.00017395	0.00393921
2794.65	-0.000186157	0.00603546
2795.11	-0.698944	-0.0165131
2795.57	0.00108032	0.00393463
2796.05	-0.000823975	0.00603394
2796.51	-0.699463	-0.0165039
2796.97	0.000762939	0.00393951
2797.45	0.000491333	0.0060318
2797.91	-0.697632	-0.0165131
2798.37	0.00104675	0.0039386
2798.85	0.000952148	0.00602356
2799.31	-0.699432	-0.0165039
2799.77	2.44141e-05	0.0039389
2800.25	0.000692749	0.00602722
2800.71	-0.699463	-0.01651
2801.17	0.00104675	0.00393494
2801.65	0.000497437	0.00602478
2802.11	-0.697662	-0.0165131
2802.57	-0.000579834	0.0039502
2803.05	0.00113831	0.00602234
2803.51	-0.698486	-0.0165131
2803.97	0.000942993	0.00393829
2804.45	0.000909424	0.00602142
2804.91	-0.697693	-0.016507
2805.37	0.000189209	0.0039444
2805.85	7.93457e-05	0.00602783
2806.31	-0.699432	-0.0165009
2806.77	-0.000708008	0.00394745
2807.25	0.000253296	0.00602112
2807.71	-0.698517	-0.0165039
2808.17	-0.000805664	0.00394958
2808.65	0.0006073	0.00602173
2809.11	-0.697998	-0.01651
2809.57	0.000778198	0.00394287
2810.05	0.000689697	0.00602478
2810.51	-0.699005	-0.0165131
2810.97	-0.000656128	0.0039505
2811.45	-0.000799561	0.00602905
2811.91	-0.697723	-0.0165131
2812.37	-0.000564575	0.00395081
2812.85	0.00112915	0.0060202
2813.31	-0.698822	-0.0164978
2813.77	0.000158691	0.00394135
2814.25	8.23975e-05	0.00602203
2814.71	-0.6987	-0.0165131
2815.17	0.000897217	0.00394012
2815.65	0.000991821	0.00601959
2816.11	-0.699127	-0.0164978
2816.57	-0.000534058	0.00395081
2817.05	-0.000585937	0.00602966
2817.51	-0.698151	-0.0165131
2817.97	0.000570679	0.00393829
2818.45	0.000726318	0.00601776
2818.91	-0.697845	-0.0165161
2819.37	0	0.00394379
2819.85	-0.000119019	0.006026
2820.31	-0.697449	-0.016507
2820.77	0.000933838	0.00394012
2821.25	-0.000695801	0.00602631
2821.71	-0.699432	-0.0164978
2822.17	0.000738525	0.00394867
2822.65	0.00115051	0.00601868
2823.11	-0.697784	-0.0165131
2823.57	-0.000335693	0.00394806
2824.05	0.00102234	0.00601746
2824.51	-0.698883	-0.0164917
2824.97	-0.000195313	0.00394745
2825.45	0.000274658	0.00602325
2825.91	-0.697479	-0.016507
2826.37	0.000546265	0.00394257
2826.85	0.000189209	0.00602173
2827.31	-0.697815	-0.0165131
2827.77	-0.000793457	0.00395355
2828.25	-0.000643921	0.00602051
2828.71	-0.697662	-0.0165039
2829.17	0.000363159	0.0039505
2829.65	0.000985718	0.00601501
2830.11	-0.697571	-0.0165039
2830.57	0.000912476	0.00394623
2831.05	0.000814819	0.00601318
2831.51	-0.698334	-0.0164978
2831.97	0.000952148	0.00394379
2832.45	0.0010498	0.00601776
2832.91	-0.697906	-0.0165039
2833.37	0.000692749	0.00394348
2833.85	0.000253296	0.00601593
2834.31	-0.699158	-0.0164886
2834.77	-0.000756836	0.00395447
2835.25	0.000280762	0.00601929
2835.71	-0.697937	-0.0164948
2836.17	0.000521851	0.00394531
2836.65	-0.000793457	0.00602325
2837.11	-0.699432	-0.0164978
2837.57	0.000537109	0.00395355
2838.05	-0.000790405	0.0060257
2838.51	-0.698242	-0.0165039
2838.97	-0.000723267	0.00395752
2839.45	0.000866699	0.00601685
2839.91	-0.698883	-0.01651
2840.37	-0.000689697	0.00395508
2840.85	0.00101318	0.0060144
2841.31	-0.697571	-0.0165039
2841.77	-0.00078125	0.00395935
2842.25	-0.000579834	0.00602814
2842.71	-0.698456	-0.0164978
2843.17	0.00102234	0.00394714
2843.65	-0.000588989	0.00602509
2844.11	-0.697998	-0.0164978
2844.57	0.000299072	0.00394958
2845.05	0.000958252	0.006015625
2845.51	-0.697937	-0.0164978
2845.97	-0.000222778	0.00395386
2846.45	0.000961304	0.00601471
2846.91	-0.697723	-0.0165039
2847.37	-0.000488281	0.00395203
2847.85	-0.000836182	0.0060202
2848.31	-0.698212	-0.0165009
2848.77	0.00109558	0.00394958
2849.25	-0.000588989	0.00602081
2849.71	-0.697388	-0.016507
2850.17	0.000100708	0.00395813
2850.65	-0.000613403	0.00602142
2851.11	-0.69812	-0.01651
2851.57	-0.000274658	0.00395935
2852.05	0.00110779	0.00601288
2852.51	-0.698151	-0.01651
2852.97	-0.000775146	0.00395844
2853.45	0.000463867	0.00601654
2853.91	-0.698669	-0.0165039
2854.37	-0.000762939	0.00396057
2854.85	0.000991821	0.00601135
2855.31	-0.697937	-0.0165161
2855.77	-0.000683594	0.00396088
2856.25	0.00101318	0.00601105
2856.71	-0.69751	-0.0165009
2857.17	-0.000796509	0.00396179
2857.65	0.000646973	0.00600891
2858.11	-0.698029	-0.0164978
2858.57	0.00107727	0.00394989
2859.05	-0.00078125	0.00602142
2859.51	-0.698456	-0.01651
2859.97	0.000924683	0.0039502
2860.45	-0.000796509	0.00602051
2860.91	-0.699249	-0.0164917
2861.37	0.00110474	0.00395142
2861.85	5.79834e-05	0.00601044
2862.31	-0.699402	-0.0164886
2862.77	-0.000765991	0.0039624
2863.25	-0.000540161	0.00601685
2863.71	-0.697937	-0.0164978
2864.17	-0.000735474	0.00396271
2864.65	-0.000109863	0.00601227
2865.11	-0.698303	-0.0164886
2865.57	5.49316e-05	0.00396118
2866.06	-0.000701904	0.006015625
2866.52	-0.698608	-0.0165039
2866.98	-0.000378418	0.00396545
2867.46	-0.000973511	0.00601593
2867.92	-0.699066	-0.0164856
2868.38	5.79834e-05	0.00395721
2868.86	0.000357056	0.0060083
2869.32	-0.699005	-0.0164948
2869.78	0.000567627	0.00395355
2870.26	0.00100708	0.00600464
2870.72	-0.69931	-0.0164856
2871.18	0.00085144	0.00395538
2871.66	0.000622559	0.00600922
2872.12	-0.699402	-0.0164886
2872.58	-0.000738525	0.00396454
2873.06	0.000939941	0.00600372
2873.52	-0.69809	-0.0164886
2873.98	-0.000628662	0.00396057
2874.46	9.46045e-05	0.00601318
2874.92	-0.697388	-0.0164948
2875.38	0.000946045	0.00395172
2875.86	-0.00062561	0.00601715
2876.32	-0.698883	-0.0164856
2876.78	-0.000476074	0.00395874
2877.26	-0.000744629	0.00601044
2877.72	-0.698425	-0.0165009
2878.18	-0.000369263	0.00396484
2878.66	-0.000762939	0.006015625
2879.12	-0.697937	-0.0165039
2879.58	-0.000689697	0.00396759
2880.06	-0.000457764	0.00601257
2880.52	-0.698456	-0.0164978
2880.98	0.000799561	0.00395508
2881.46	0.00102234	0.00600586
2881.92	-0.697937	-0.0165009
2882.38	0.000558472	0.00396332
2882.86	0.000900269	0.00600616
2883.32	-0.699219	-0.0164795
2883.78	0.000765991	0.00395538
2884.26	0.000814819	0.00600739
2884.72	-0.698639	-0.0164795
2885.18	0.000985718	0.00395782
2885.66	0.000582886	0.00600525
2886.12	-0.697479	-0.0164948
2886.58	-0.000546265	0.00395996
2887.06	-7.01904e-05	0.00601288
2887.52	-0.697632	-0.0165039
2887.98	-0.000506592	0.0039679
2888.46	-0.000656128	0.00601044
2888.92	-0.697693	-0.0165009
2889.38	0.000695801	0.00396118
2889.86	0.000900269	0.00600128
2890.32	-0.698608	-0.0164948
2890.78	0.000250244	0.00395905
2891.26	0.000268555	0.00600708
2891.72	-0.697693	-0.0165009
2892.18	-9.15527e-05	0.00395782
2892.66	-0.00027771	0.00600342
2893.12	-0.69754	-0.0164948
2893.58	-0.000747681	0.00396881
2894.06	0.000857544	0.00600403
2894.52	-0.699066	-0.0164795
2894.98	-0.000680542	0.0039679
2895.46	0.00100098	0.00600037
2895.92	-0.697693	-0.0164978
2896.38	0.000137329	0.0039682
2896.86	0.000558472	0.00599854
2897.32	-0.697906	-0.0165009
2897.78	-0.000579834	0.00396729
2898.26	0.000872803	0.00599884
2898.72	-0.697723	-0.0164948
2899.18	-0.000747681	0.00397003
2899.66	0.000921631	0.00599915
2900.12	-0.699158	-0.0164886
2900.58	-0.00022583	0.00396423
2901.06	0.00107117	0.00600006
2901.52	-0.698212	-0.0164948
2901.98	0.000646973	0.00396667
2902.46	0.00106201	0.00599854
2902.92	-0.698975	-0.0164795
2903.38	0.000698853	0.00396515
2903.86	1.83105e-05	0.00600189
2904.32	-0.698853	-0.0164764
2904.78	-0.000671387	0.00397308
2905.26	0.00062561	0.00599792
2905.72	-0.699432	-0.0164825
2906.18	0.000994873	0.00396729
2906.66	-0.000231934	0.00599854
2907.12	-0.699432	-0.0164825
2907.58	-3.05176e-06	0.00396912
2908.06	-0.000213623	0.00600281
2908.52	-0.697632	-0.0165009
2908.98	-0.000622559	0.00397369
2909.46	0.000823975	0.00599823
2909.92	-0.69754	-0.0164917
2910.38	0.00108032	0.0039621
2910.86	-0.000726318	0.00600922
2911.32	-0.698608	-0.0164886
2911.78	-0.000650024	0.00397522
2912.26	-0.000204468	0.0060083
2912.72	-0.698456	-0.0164917
2913.18	-0.000717163	0.00397369
2913.66	-0.000799561	0.00600861
2914.12	-0.698395	-0.0164764
2914.58	-0.000534058	0.00397064
2915.06	-0.000653076	0.0060083
2915.52	-0.699005	-0.0164856
2915.98	0.00103455	0.00396576
2916.46	-0.000497437	0.00600861
2916.92	-0.698639	-0.0164886
2917.38	-0.000448608	0.0039743
2917.86	0.000128174	0.00599731
2918.32	-0.698242	-0.0164825
2918.78	-0.000744629	0.00397369
2919.26	-0.00010376	0.00599976
2919.72	-0.698761	-0.0164948
2920.18	0.000360107	0.00396393
2920.66	0.000912476	0.00599548
2921.12	-0.697723	-0.0164886
2921.58	0.000183105	0.00397339
2922.06	4.57764e-05	0.00600067
2922.52	-0.698547	-0.0164917
2922.98	-0.000402832	0.00397552
2923.46	0.000918579	0.00599182
2923.92	-0.698547	-0.0164642
2924.38	0.000106812	0.00397247
2924.86	0.000997925	0.00599091
2925.32	-0.697662	-0.0164825
2925.78	0.000164795	0.00397522
2926.26	0.000732422	0.00598755
2926.72	-0.697601	-0.0164825
2927.18	-0.000485229	0.00397369
2927.66	-0.000784302	0.00600006
2928.12	-0.698425	-0.0164856
2928.58	-0.000109863	0.003974
2929.06	0.000302124	0.00599518
2929.52	-0.69812	-0.0164886
2929.98	0.00101624	0.00396484
2930.46	-0.000354004	0.00599365
2930.92	-0.698212	-0.0164673
2931.38	-0.000302124	0.00396851
2931.86	0.000570679	0.00598877
2932.32	-0.698944	-0.0164734
2932.78	0.000167847	0.00397247
2933.26	-0.000344849	0.00599854
2933.72	-0.697662	-0.0164825
2934.18	-0.000137329	0.00397461
2934.66	0.000231934	0.00599457
2935.12	-0.699097	-0.0164734
2935.58	0.000796509	0.00396393
2936.06	0.000823975	0.0059845
2936.52	-0.697693	-0.0164825
2936.98	0.000979614	0.00396606
2937.46	-0.000537109	0.00599457
2937.92	-0.69754	-0.0164764
2938.38	-0.000592041	0.00397552
2938.86	0.000686646	0.00599152
2939.32	-0.697723	-0.0164764
2939.78	-0.000714111	0.00397705
2940.26	0.000531006	0.00598755
2940.72	-0.699005	-0.0164642
2941.18	-8.8501e-05	0.00397736
2941.66	-0.000915527	0.00599701
2942.12	-0.697937	-0.0164734
2942.58	-0.000643921	0.00397888
2943.06	-0.000756836	0.0059964
2943.52	-0.699402	-0.0164825
2943.98	0.000985718	0.00396912
2944.46	-0.000286865	0.0059967
2944.92	-0.6987	-0.0164703
2945.38	0.000839233	0.0039679
2945.86	-9.46045e-05	0.00599823
2946.32	-0.698822	-0.0164612
2946.78	0.00103455	0.00397095
2947.26	0.000799561	0.0059848
2947.72	-0.698151	-0.0164734
2948.18	0.000793457	0.00396973
2948.66	0.00101318	0.00598511
2949.12	-0.69928	-0.0164734
2949.58	-0.000476074	0.00397766
2950.06	0.00100098	0.00598724
2950.52	-0.699371	-0.0164703
2950.98	-0.00071106	0.00398285
2951.46	0.000579834	0.00599243
2951.92	-0.699066	-0.0164673
2952.38	4.57764e-05	0.00397369
2952.86	0.000564575	0.00598419
2953.32	-0.699432	-0.0164673
2953.78	-0.000500488	0.00398254
2954.26	0.00022583	0.00599213
2954.72	-0.697815	-0.0164795
2955.18	-0.000289917	0.00398468
2955.66	0.000888062	0.00598328
2956.12	-0.699371	-0.0164673
2956.58	0.000894165	0.00397156
2957.06	0.000109863	0.00598938
2957.52	-0.697784	-0.0164734
2957.98	-0.000689697	0.00398376
2958.46	0.00103149	0.00598724
2958.92	-0.697601	-0.0164795
2959.38	0.000778198	0.00397308
2959.86	0.00106812	0.00598572
2960.32	-0.698334	-0.0164856
2960.78	0.0012085	0.00397675
2961.26	-0.000827026	0.00599609
2961.72	-0.699402	-0.0164642
2962.18	6.40869e-05	0.00398285
2962.66	0.000177002	0.0059848
2963.12	-0.69812	-0.0164612
2963.58	0.000769043	0.00397552
2964.06	0.000567627	0.00598755
2964.52	-0.699432	-0.0164612
2964.98	0.00121155	0.00397491
2965.46	-0.000823975	0.00598907
2965.92	-0.69751	-0.0164825
2966.38	0.000387573	0.00398163
2966.86	-0.000161743	0.00599152
2967.32	-0.698975	-0.0164764
2967.78	0.00101318	0.00397583
2968.26	8.23975e-05	0.00598633
2968.72	-0.699219	-0.0164764
2969.18	-0.000662231	0.00398468
2969.66	0.000265503	0.00598816
2970.12	-0.69754	-0.0164734
2970.58	8.23975e-05	0.00398621
2971.06	0.00102844	0.00598602
2971.52	-0.699158	-0.0164642
2971.98	0.00102844	0.00397522
2972.46	-0.000323486	0.0059903
2972.92	-0.698517	-0.0164642
2973.38	-0.000695801	0.00398926
2973.86	0.000671387	0.00598938
2974.32	-0.698425	-0.0164795
2974.78	0.00100403	0.00397644
2975.26	0.000463867	0.00599274
2975.72	-0.699432	-0.0164764
2976.18	0.000900269	0.00397736
2976.66	-9.46045e-05	0.00599152
2977.12	-0.699097	-0.0164703
2977.58	-0.00078125	0.00398773
2978.06	-0.000445557	0.00599365
2978.52	-0.698029	-0.0164673
2978.98	0.00104065	0.00397888
2979.46	-0.000650024	0.00599731
2979.92	-0.69754	-0.0164795
2980.38	0.000405884	0.00397797
2980.86	-0.000598145	0.00598907
2981.32	-0.698578	-0.0164673
2981.78	0.00109863	0.0039801
2982.26	-0.000769043	0.00599304
2982.72	-0.699585	-0.0164795
2983.18	-0.000732422	0.00399261
2983.66	-0.000466919	0.00599335
2984.12	-0.697571	-0.0164856
2984.58	-0.000430298	0.00399261
2985.06	-0.000839233	0.0059903
2985.52	-0.698547	-0.0164825
2985.98	-0.000775146	0.00399231
2986.46	-0.000717163	0.00599548
2986.92	-0.699341	-0.0164734
2987.38	0.000372314	0.00398865
2987.86	0.000180054	0.00598969
2988.32	-0.699097	-0.0164825
2988.78	0.00104065	0.00398102
2989.26	0.000814819	0.00598175
2989.72	-0.699402	-0.0164734
2990.18	0.000527954	0.00398071
2990.66	-0.000894165	0.00599213
2991.12	-0.699188	-0.0164734
2991.58	-0.000125122	0.00398651
2992.06	-0.000598145	0.00599091
2992.52	-0.699188	-0.0164825
2992.98	-0.000686646	0.00399445
2993.46	0.000958252	0.00598419
2993.92	-0.697968	-0.0164734
2994.38	-0.000372314	0.00399078
2994.86	0.000546265	0.00597961
2995.32	-0.698669	-0.0164764
2995.78	-0.000726318	0.00399323
2996.26	0.00106201	0.00597931
2996.72	-0.697937	-0.0164703
2997.18	0.000476074	0.00398895
2997.66	-0.000317383	0.00599091
2998.12	-0.697937	-0.0164856
2998.58	-0.000692749	0.00399445
2999.06	0.000869751	0.005979
2999.52	-0.697815	-0.0164886
2999.98	-0.000183105	0.00398621
3000.46	0.00108032	0.005979
3000.92	-0.698517	-0.0164703
3001.38	0.000244141	0.00399048
3001.86	0.000964355	0.00597778
3002.32	-0.699524	-0.0164764
3002.78	0.000930786	0.00398376
3003.26	0.00015564	0.00598083
3003.72	-0.697754	-0.0164795
3004.18	-0.00067749	0.00399323
3004.66	0.000299072	0.00598816
3005.12	-0.698425	-0.0164673
3005.58	-0.000546265	0.00399628
3006.06	0.00104675	0.00597778
3006.52	-0.697876	-0.0164856
3006.98	0.000830078	0.00398407
3007.46	-8.23975e-05	0.00598602
3007.88	0.000418091	0.00278809