File: Edgar/20230619/20230619/electrodeposition_WO3_thin_films_onto_ITO_A/wo3_film_continuous_electrodeposition_B/CA_2
Time (s)	WE(1).Current (A)	WE(1).Potential (V)
66.5097	-0.00202209	-0.699677
67.0097	-0.00204651	-0.699066
67.5097	-0.00236786	-0.6987
68.0097	-0.00279938	-0.698792
68.5097	-0.00319763	-0.69928
69.0097	-0.00351654	-0.699554
69.5097	-0.00376709	-0.699158
70.0097	-0.00396851	-0.699554
70.5097	-0.00413391	-0.699463
71.0097	-0.00427246	-0.699158
71.5097	-0.00438995	-0.699585
72.0097	-0.00448975	-0.699432
72.5097	-0.00457672	-0.699341
73.0097	-0.00465149	-0.699219
73.5097	-0.00471588	-0.699188
74.0097	-0.00477112	-0.699493
74.5097	-0.00481812	-0.699341
75.0097	-0.00485809	-0.699127
75.5097	-0.00489105	-0.699249
76.0097	-0.00491821	-0.69931
76.5097	-0.00494019	-0.699493
77.0097	-0.00495728	-0.699158
77.5097	-0.00496979	-0.699493
78.0097	-0.00497833	-0.69928
78.5097	-0.00498291	-0.699188
79.0097	-0.00498474	-0.699493
79.5097	-0.00498352	-0.699066
80.0097	-0.00498016	-0.699493
80.5097	-0.00497375	-0.699524
81.0097	-0.00496582	-0.699493
81.5097	-0.00495636	-0.699127
82.0097	-0.00494568	-0.699524
82.5097	-0.00493378	-0.69928
83.0097	-0.00492096	-0.699524
83.5097	-0.00490662	-0.699127
84.0097	-0.00489258	-0.699524
84.5097	-0.00487701	-0.699097
85.0097	-0.00486206	-0.699371
85.5097	-0.00484619	-0.699554
86.0097	-0.00483063	-0.699432
86.5097	-0.00481415	-0.699432
87.0097	-0.00479767	-0.699127
87.5097	-0.00478058	-0.699524
88.0097	-0.00476471	-0.699097
88.5097	-0.00474823	-0.699402
89.0097	-0.00473206	-0.69928
89.5097	-0.00471527	-0.699493
90.0097	-0.00469727	-0.699127
90.5097	-0.00468109	-0.699463
91.0097	-0.00466553	-0.699493
91.5097	-0.00464996	-0.699493
92.0097	-0.0046344	-0.699158
92.5097	-0.00461914	-0.699493
93.0097	-0.00460358	-0.699097
93.5097	-0.00458893	-0.699463
94.0097	-0.00457367	-0.699341
94.5097	-0.00455933	-0.699249
95.0097	-0.00454437	-0.699219
95.5097	-0.00453003	-0.699463
96.0097	-0.00451599	-0.699615
96.5097	-0.00450195	-0.699097
97.0097	-0.00448853	-0.69931
97.5097	-0.0044754	-0.699524
98.0097	-0.00446198	-0.699127
98.5097	-0.00444946	-0.699554
99.0097	-0.00443695	-0.699493
99.5097	-0.00442413	-0.699188
100.01	-0.00441223	-0.69931
100.51	-0.00440033	-0.699585
101.01	-0.00438843	-0.699097
101.51	-0.00437775	-0.699585
102.01	-0.00436646	-0.699524
102.51	-0.00435547	-0.69931
103.01	-0.0043454	-0.699127
103.51	-0.00433533	-0.699463
104.01	-0.00432526	-0.699585
104.51	-0.0043161	-0.699158
105.01	-0.00430664	-0.699554
105.51	-0.00429749	-0.699097
106.01	-0.00428894	-0.699554
106.51	-0.00428131	-0.69931
107.01	-0.00427307	-0.699249
107.51	-0.00426575	-0.699127
108.01	-0.00425842	-0.699554
108.51	-0.0042514	-0.699127
109.01	-0.00424469	-0.699158
109.51	-0.00423767	-0.699554
110.01	-0.00423157	-0.699493
110.51	-0.00422577	-0.699341
111.01	-0.00422028	-0.699219
111.51	-0.00421478	-0.699585
112.01	-0.00420929	-0.699524
112.51	-0.00420441	-0.699493
113.01	-0.00419983	-0.699188
113.51	-0.00419525	-0.699554
114.01	-0.00418976	-0.699127
114.51	-0.00418701	-0.699554
115.01	-0.00418304	-0.69931
115.51	-0.00417938	-0.699524
116.01	-0.00417633	-0.699249
116.51	-0.00417297	-0.699127
117.01	-0.00416992	-0.699341
117.51	-0.00416565	-0.699463
118.01	-0.0041629	-0.699524
118.51	-0.00416107	-0.699188
119.01	-0.00415863	-0.699463
119.51	-0.00415436	-0.699463
120.01	-0.00415222	-0.699127
120.51	-0.0041507	-0.699493
121.01	-0.00414886	-0.69931
121.51	-0.00414734	-0.699066
122.01	-0.00414459	-0.699524
122.51	-0.00414337	-0.699554
123.01	-0.00414154	-0.699219
123.51	-0.004140625	-0.699585
124.01	-0.00413879	-0.699188
124.51	-0.00413757	-0.699402
125.01	-0.00413574	-0.699554
125.51	-0.00413483	-0.699097
126.01	-0.00413208	-0.699554
126.51	-0.00413086	-0.699158
127.01	-0.00412872	-0.699493
127.51	-0.00412872	-0.699158
128.01	-0.00412781	-0.699432
128.51	-0.00412689	-0.699524
129.01	-0.00412628	-0.699158
129.51	-0.00412476	-0.699432
130.01	-0.00412354	-0.699554
130.51	-0.00412262	-0.699524
131.01	-0.0041217	-0.699219
131.51	-0.00412079	-0.699585
132.01	-0.00411896	-0.699127
132.51	-0.00411865	-0.699371
133.01	-0.00411835	-0.699371
133.51	-0.00411743	-0.699432
134.01	-0.00411652	-0.699097
134.51	-0.00411621	-0.699371
135.01	-0.00411499	-0.699524
135.51	-0.00411438	-0.699585
136.01	-0.00411346	-0.699493
136.51	-0.00411285	-0.699127
137.01	-0.00411102	-0.699524
137.51	-0.00411072	-0.699493
138.01	-0.00411041	-0.699158
138.51	-0.00410919	-0.699402
139.01	-0.00410858	-0.699493
139.51	-0.00410767	-0.699219
140.01	-0.00410706	-0.699341
140.51	-0.00410675	-0.699402
141.01	-0.00410583	-0.699524
141.51	-0.00410553	-0.699158
142.01	-0.00410461	-0.699219
142.51	-0.0041037	-0.699554
143.01	-0.00410339	-0.699341
143.51	-0.00410248	-0.699066
144.01	-0.00410156	-0.699066
144.51	-0.00410095	-0.699158
145.01	-0.00410065	-0.699493
145.51	-0.00409882	-0.699463
146.01	-0.00409821	-0.699341
146.51	-0.0040976	-0.69928
147.01	-0.00409668	-0.699463
147.51	-0.00409607	-0.699371
148.01	-0.00409515	-0.699219
148.51	-0.00409424	-0.699432
149.01	-0.00409393	-0.699585
149.51	-0.00409332	-0.699493
150.01	-0.00409271	-0.69931
150.51	-0.00409149	-0.699554
151.01	-0.00409058	-0.699188
151.51	-0.00409027	-0.699097
152.01	-0.00408997	-0.69931
152.51	-0.00408661	-0.699249
153.01	-0.00408691	-0.699554
153.51	-0.00408661	-0.699341
154.01	-0.0040863	-0.699463
154.51	-0.004086	-0.699554
155.01	-0.00408569	-0.699127
155.51	-0.00408447	-0.699188
156.01	-0.00408417	-0.699188
156.51	-0.00408295	-0.699097
157.01	-0.00408295	-0.699219
157.51	-0.00408264	-0.699127
158.01	-0.00408203	-0.69928
158.51	-0.00408142	-0.699249
159.01	-0.00408081	-0.699188
159.51	-0.0040802	-0.699341
160.01	-0.00407928	-0.699127
160.51	-0.00407867	-0.699554
161.01	-0.00407806	-0.699585
161.51	-0.00407745	-0.699493
162.01	-0.00407684	-0.699493
162.51	-0.00407623	-0.699554
163.01	-0.00407562	-0.699127
163.51	-0.00407379	-0.699554
164.01	-0.00407288	-0.699524
164.51	-0.00407257	-0.699127
165.01	-0.00407227	-0.699585
165.51	-0.00407135	-0.699066
166.01	-0.00407104	-0.699493
166.51	-0.00407043	-0.699493
167.01	-0.00406982	-0.699036
167.51	-0.00406952	-0.69931
168.01	-0.00406891	-0.699493
168.51	-0.0040683	-0.699097
169.01	-0.00406769	-0.69931
169.51	-0.00406769	-0.699463
170.01	-0.00406708	-0.699554
170.51	-0.00406616	-0.699188
171.01	-0.00406525	-0.699463
171.51	-0.00406464	-0.699097
172.01	-0.00406403	-0.699371
172.51	-0.00406342	-0.699554
173.01	-0.00406281	-0.699463
173.51	-0.0040625	-0.699158
174.01	-0.00406189	-0.699524
174.51	-0.00406097	-0.699341
175.01	-0.00406067	-0.699341
175.51	-0.00406006	-0.699158
176.01	-0.00405945	-0.699402
176.51	-0.00405853	-0.699158
177.01	-0.00405823	-0.699585
177.51	-0.00405792	-0.699097
178.01	-0.00405762	-0.699066
178.51	-0.0040564	-0.699493
179.01	-0.00405579	-0.699127
179.51	-0.00405518	-0.699554
180.01	-0.00405487	-0.699158
180.51	-0.00405426	-0.699585
181.01	-0.00405365	-0.699554
181.51	-0.00405212	-0.699127
182.01	-0.00405151	-0.699463
182.51	-0.00405121	-0.699158
183.01	-0.0040509	-0.699493
183.51	-0.00404785	-0.699219
184.01	-0.00404938	-0.699249
184.51	-0.00404785	-0.699554
185.01	-0.00404816	-0.699158
185.51	-0.00404785	-0.699432
186.01	-0.00404755	-0.699524
186.51	-0.00404755	-0.69931
187.01	-0.00404694	-0.699219
187.51	-0.00404633	-0.699493
188.01	-0.00404572	-0.699158
188.51	-0.00404541	-0.699341
189.01	-0.0040451	-0.699158
189.51	-0.00404388	-0.699554
190.01	-0.00404358	-0.699127
190.51	-0.00404327	-0.699554
191.01	-0.00404327	-0.699402
191.51	-0.00404266	-0.699554
192.01	-0.00404205	-0.699127
192.51	-0.00404144	-0.699493
193.01	-0.00404083	-0.699371
193.51	-0.00404053	-0.699341
194.01	-0.00404022	-0.699066
194.51	-0.00403931	-0.699127
195.01	-0.00403931	-0.699493
195.51	-0.004039	-0.699158
196.01	-0.00403809	-0.69931
196.51	-0.00403625	-0.699219
197.01	-0.00403656	-0.699432
197.51	-0.00403564	-0.69928
198.01	-0.00403564	-0.69928
198.51	-0.00403534	-0.699554
199.01	-0.00403503	-0.69931
199.51	-0.00403503	-0.699371
200.01	-0.00403442	-0.699402
200.51	-0.00403381	-0.699249
201.01	-0.00403351	-0.699493
201.51	-0.0040332	-0.699371
202.01	-0.00403259	-0.699554
202.51	-0.00403229	-0.699341
203.01	-0.00403198	-0.699402
203.51	-0.00403137	-0.699341
204.01	-0.00403107	-0.699341
204.51	-0.00403046	-0.699127
205.01	-0.00403015	-0.699097
205.51	-0.00402954	-0.699493
206.01	-0.00402893	-0.699249
206.51	-0.00402863	-0.699524
207.01	-0.00402802	-0.699615
207.51	-0.00402771	-0.69928
208.01	-0.00402618	-0.699249
208.51	-0.00402649	-0.69928
209.01	-0.00402649	-0.699341
209.51	-0.00402588	-0.699371
210.01	-0.00402557	-0.699493
210.51	-0.00402527	-0.699188
211.01	-0.00402496	-0.699249
211.51	-0.00402435	-0.699524
212.01	-0.00402405	-0.699554
212.51	-0.00402374	-0.699219
213.01	-0.00402344	-0.699219
213.51	-0.00402313	-0.699493
214.01	-0.00402283	-0.699554
214.51	-0.00402222	-0.699585
215.01	-0.00402222	-0.69931
215.51	-0.0040213	-0.699463
216.01	-0.00402069	-0.699188
216.51	-0.00402039	-0.699127
217.01	-0.00402008	-0.699249
217.51	-0.00401917	-0.699493
218.01	-0.00401886	-0.699158
218.51	-0.00401855	-0.699432
219.01	-0.00401825	-0.699493
219.51	-0.00401794	-0.699524
220.01	-0.00401733	-0.699585
220.51	-0.00401733	-0.69931
221.01	-0.00401611	-0.699524
221.51	-0.00401611	-0.699585
222.01	-0.00401581	-0.699371
222.51	-0.0040152	-0.699341
223.01	-0.00401459	-0.699524
223.51	-0.00401428	-0.699524
224.01	-0.00401398	-0.699066
224.51	-0.00401337	-0.699463
225.01	-0.00401276	-0.699493
225.51	-0.00401276	-0.699585
226.01	-0.00401215	-0.699615
226.51	-0.00401184	-0.69931
227.01	-0.00401123	-0.699158
227.51	-0.00401123	-0.699554
228.01	-0.00401093	-0.699524
228.51	-0.00401031	-0.699493
229.01	-0.00401001	-0.699554
229.51	-0.00401001	-0.69931
230.01	-0.00400909	-0.69928
230.51	-0.00400909	-0.699097
231.01	-0.00400818	-0.699005
231.51	-0.00400818	-0.699127
232.01	-0.00400757	-0.699097
232.51	-0.00400696	-0.699493
233.01	-0.00400604	-0.699615
233.51	-0.00400635	-0.699402
234.01	-0.00400604	-0.699493
234.51	-0.00400543	-0.699554
235.01	-0.00400513	-0.699188
235.51	-0.00400513	-0.699554
236.01	-0.00400513	-0.699097
236.51	-0.00400452	-0.699493
237.01	-0.00400452	-0.699493
237.51	-0.00400421	-0.699249
238.01	-0.0040036	-0.699158
238.51	-0.0040033	-0.699341
239.01	-0.0040033	-0.699524
239.51	-0.00400299	-0.699158
240.01	-0.00400269	-0.699402
240.51	-0.00400269	-0.699493
241.01	-0.00400208	-0.699066
241.51	-0.00400177	-0.699524
242.01	-0.00400177	-0.699097
242.51	-0.00400146	-0.699554
243.01	-0.00400116	-0.699127
243.51	-0.00400055	-0.699127
244.01	-0.00400024	-0.699097
244.51	-0.00399933	-0.699341
245.01	-0.00399872	-0.699493
245.51	-0.00399841	-0.699188
246.01	-0.00399872	-0.699127
246.51	-0.00399841	-0.699463
247.01	-0.00399841	-0.699097
247.51	-0.00399811	-0.699524
248.01	-0.00399811	-0.699097
248.51	-0.0039978	-0.699066
249.01	-0.0039975	-0.699127
249.51	-0.00399719	-0.699524
250.01	-0.00399689	-0.699188
250.51	-0.00399658	-0.699524
251.01	-0.00399658	-0.699219
251.51	-0.00399597	-0.69931
252.01	-0.00399567	-0.699524
252.51	-0.00399536	-0.699066
253.01	-0.00399536	-0.699493
253.51	-0.00399475	-0.699524
254.01	-0.00399475	-0.699219
254.51	-0.00399445	-0.699097
255.01	-0.00399384	-0.699524
255.51	-0.00399384	-0.699402
256.01	-0.00399353	-0.699219
256.51	-0.00399292	-0.69928
257.01	-0.00399231	-0.699097
257.51	-0.003992	-0.699432
258.01	-0.003992	-0.699554
258.51	-0.0039917	-0.699371
259.01	-0.00399139	-0.699188
259.51	-0.00399078	-0.699371
260.01	-0.00399048	-0.699066
260.51	-0.00398987	-0.699524
261.01	-0.00398926	-0.699127
261.51	-0.00398895	-0.699036
262.01	-0.00398865	-0.699402
262.51	-0.00398834	-0.699585
263.01	-0.00398743	-0.699188
263.51	-0.00398743	-0.699127
264.01	-0.00398712	-0.699493
264.51	-0.00398682	-0.699341
265.01	-0.00398682	-0.699554
265.51	-0.00398529	-0.699097
266.01	-0.0039856	-0.69931
266.51	-0.0039856	-0.699432
267.01	-0.00398529	-0.699493
267.51	-0.0039856	-0.699432
268.01	-0.00398529	-0.699249
268.51	-0.00398499	-0.69931
269.01	-0.00398468	-0.699524
269.51	-0.003984375	-0.699097
270.01	-0.00398285	-0.699554
270.51	-0.00398285	-0.699066
271.01	-0.00398163	-0.699554
271.51	-0.00398102	-0.699188
272.01	-0.00398041	-0.699585
272.51	-0.0039801	-0.699097
273.01	-0.0039798	-0.699219
273.51	-0.00397949	-0.699493
274.01	-0.00397949	-0.699219
274.51	-0.00397949	-0.699524
275.01	-0.00397919	-0.699127
275.51	-0.00397888	-0.699249
276.01	-0.00397858	-0.699585
276.51	-0.00397797	-0.699158
277.01	-0.00397766	-0.699402
277.51	-0.00397705	-0.699402
278.01	-0.00397614	-0.699127
278.51	-0.00397614	-0.699432
279.01	-0.00397583	-0.699158
279.51	-0.00397522	-0.699341
280.01	-0.00397461	-0.699097
280.51	-0.00397461	-0.699158
281.01	-0.00397461	-0.699585
281.51	-0.0039743	-0.699402
282.01	-0.00397369	-0.699219
282.51	-0.00397339	-0.699127
283.01	-0.00397278	-0.699493
283.51	-0.00397217	-0.699158
284.01	-0.00397186	-0.699585
284.51	-0.00397125	-0.69931
285.01	-0.00397095	-0.699493
285.51	-0.00397064	-0.699097
286.01	-0.00397034	-0.699249
286.51	-0.00397003	-0.699127
287.01	-0.00396942	-0.699463
287.51	-0.00396881	-0.699463
288.01	-0.00396881	-0.69931
288.51	-0.00396851	-0.699158
289.01	-0.0039682	-0.699524
289.51	-0.00396881	-0.699188
290.01	-0.00396851	-0.699402
290.51	-0.0039682	-0.699188
291.01	-0.0039679	-0.699158
291.51	-0.00396667	-0.699463
292.01	-0.00396667	-0.699249
292.51	-0.00396637	-0.699219
293.01	-0.00396606	-0.699554
293.51	-0.00396576	-0.699524
294.01	-0.00396545	-0.69931
294.51	-0.00396454	-0.699371
295.01	-0.00396423	-0.699249
295.51	-0.00396362	-0.69931
296.01	-0.00396332	-0.699249
296.51	-0.0039621	-0.699524
297.01	-0.00396149	-0.699097
297.51	-0.00396118	-0.699554
298.01	-0.00396057	-0.699554
298.51	-0.00396027	-0.699219
299.01	-0.00395996	-0.699127
299.51	-0.00395966	-0.69931
300.01	-0.00395935	-0.699249
300.51	-0.00395905	-0.699402
301.01	-0.00395874	-0.699066
301.51	-0.00395844	-0.699432
302.01	-0.0039566	-0.699554
302.51	-0.00395721	-0.699188
303.01	-0.00395691	-0.699524
303.51	-0.0039566	-0.69928
304.01	-0.00395599	-0.699371
304.51	-0.00395569	-0.699066
305.01	-0.00395416	-0.699463
305.51	-0.00395447	-0.699341
306.01	-0.00395416	-0.699432
306.51	-0.00395416	-0.699158
307.01	-0.00395355	-0.699524
307.51	-0.00395325	-0.699341
308.01	-0.00395325	-0.699097
308.51	-0.00395264	-0.699127
309.01	-0.00395264	-0.699463
309.51	-0.00395233	-0.699249
310.01	-0.00395203	-0.699524
310.51	-0.00395142	-0.699127
311.01	-0.00395111	-0.699554
311.51	-0.00395081	-0.699097
312.01	-0.0039505	-0.699219
312.51	-0.0039502	-0.699158
313.01	-0.00394989	-0.699493
313.51	-0.00394928	-0.699402
314.01	-0.00394897	-0.699097
314.51	-0.00394897	-0.699097
315.01	-0.00394867	-0.699188
315.51	-0.00394836	-0.69931
316.01	-0.00394775	-0.699463
316.51	-0.00394775	-0.699219
317.01	-0.00394714	-0.699554
317.51	-0.00394653	-0.699554
318.01	-0.00394623	-0.699341
318.51	-0.00394592	-0.699341
319.01	-0.00394562	-0.699585
319.51	-0.00394562	-0.699554
320.01	-0.00394501	-0.699341
320.51	-0.0039447	-0.699188
321.01	-0.0039444	-0.699097
321.51	-0.00394379	-0.699249
322.01	-0.00394379	-0.699097
322.51	-0.00394318	-0.699554
323.01	-0.00394257	-0.699249
323.51	-0.00394226	-0.699158
324.01	-0.00394165	-0.699097
324.51	-0.00394135	-0.699554
325.01	-0.00394104	-0.699341
325.51	-0.00394073	-0.699524
326.01	-0.00394043	-0.699341
326.51	-0.00393982	-0.699249
327.01	-0.00393951	-0.699524
327.51	-0.00393921	-0.699097
328.01	-0.0039389	-0.699554
328.51	-0.00393829	-0.699402
329.01	-0.00393799	-0.69928
329.51	-0.00393768	-0.699036
330.01	-0.00393738	-0.699554
330.51	-0.00393738	-0.699127
331.01	-0.00393707	-0.699493
331.51	-0.00393646	-0.699585
332.01	-0.00393585	-0.699463
332.51	-0.00393524	-0.699554
333.01	-0.00393463	-0.699066
333.51	-0.00393402	-0.699524
334.01	-0.00393402	-0.699066
334.51	-0.00393341	-0.699432
335.01	-0.00393311	-0.699158
335.51	-0.00393311	-0.699524
336.01	-0.0039328	-0.699158
336.51	-0.00393219	-0.699463
337.01	-0.00393188	-0.699249
337.51	-0.00393158	-0.699219
338.01	-0.00393127	-0.699066
338.51	-0.00393127	-0.699585
339.01	-0.00393066	-0.699127
339.51	-0.00392975	-0.699493
340.01	-0.00392975	-0.699188
340.51	-0.00392944	-0.699463
341.01	-0.00392944	-0.699432
341.51	-0.00392883	-0.699219
342.01	-0.00392822	-0.699402
342.51	-0.00392853	-0.699463
343.01	-0.00392822	-0.699554
343.51	-0.00392822	-0.699249
344.01	-0.00392761	-0.69931
344.51	-0.00392731	-0.699249
345.01	-0.00392639	-0.699158
345.51	-0.00392517	-0.699402
346.01	-0.00392578	-0.699188
346.51	-0.00392548	-0.699463
347.01	-0.00392548	-0.699371
347.51	-0.00392517	-0.699066
348.01	-0.00392517	-0.699524
348.51	-0.00392395	-0.699341
349.01	-0.00392365	-0.699615
349.51	-0.00392303	-0.699524
350.01	-0.00392273	-0.699402
350.51	-0.00392242	-0.699127
351.01	-0.00392212	-0.699127
351.51	-0.00392151	-0.699402
352.01	-0.00392151	-0.699554
352.51	-0.0039212	-0.699463
353.01	-0.00392059	-0.699554
353.51	-0.00392029	-0.699127
354.01	-0.00391998	-0.699402
354.51	-0.00391968	-0.699493
355.01	-0.00391785	-0.699463
355.51	-0.00391815	-0.699524
356.01	-0.00391846	-0.699493
356.51	-0.00391693	-0.699432
357.01	-0.00391754	-0.699463
357.51	-0.00391754	-0.699341
358.01	-0.00391724	-0.699158
358.51	-0.00391663	-0.699127
359.01	-0.00391632	-0.699097
359.51	-0.00391632	-0.699097
360.01	-0.00391541	-0.699371
360.51	-0.0039151	-0.699127
361.01	-0.0039151	-0.699066
361.51	-0.00391388	-0.69928
362.01	-0.00391296	-0.699432
362.51	-0.00391357	-0.699493
363.01	-0.00391327	-0.699554
363.51	-0.00391296	-0.699524
364.01	-0.00391235	-0.699097
364.51	-0.00391266	-0.699219
365.01	-0.00391235	-0.699493
365.51	-0.00391205	-0.699554
366.01	-0.00391144	-0.699402
366.51	-0.00391113	-0.699249
367.01	-0.00391052	-0.699524
367.51	-0.00391052	-0.699432
368.01	-0.00390991	-0.699127
368.51	-0.00390961	-0.699646
369.01	-0.00390961	-0.699341
369.51	-0.003909	-0.699127
370.01	-0.003909	-0.699554
370.51	-0.00390839	-0.699493
371.01	-0.00390808	-0.699463
371.51	-0.00390778	-0.699402
372.01	-0.00390747	-0.699188
372.51	-0.00390717	-0.699493
373.01	-0.00390717	-0.699097
373.51	-0.00390656	-0.699554
374.01	-0.00390625	-0.699219
374.51	-0.00390594	-0.699371
375.01	-0.00390564	-0.69931
375.51	-0.00390533	-0.699585
376.01	-0.00390472	-0.699432
376.51	-0.00390442	-0.699432
377.01	-0.00390442	-0.699554
377.51	-0.00390381	-0.699463
378.01	-0.0039035	-0.699127
378.51	-0.0039032	-0.699615
379.01	-0.00390289	-0.699188
379.51	-0.00390259	-0.699127
380.01	-0.00390228	-0.699493
380.51	-0.00390076	-0.699158
381.01	-0.00390106	-0.699554
381.51	-0.00390076	-0.699097
382.01	-0.00389984	-0.699097
382.51	-0.00389984	-0.699249
383.01	-0.00389954	-0.699554
383.51	-0.00389923	-0.699158
384.01	-0.00389893	-0.699066
384.51	-0.00389832	-0.699493
385.01	-0.00389801	-0.699402
385.51	-0.00389709	-0.699097
386.01	-0.00389679	-0.699585
386.51	-0.00389648	-0.699158
387.01	-0.00389618	-0.699127
387.51	-0.00389587	-0.699371
388.01	-0.00389526	-0.699463
388.51	-0.00389526	-0.699402
389.01	-0.00389435	-0.699158
389.51	-0.00389435	-0.699249
390.01	-0.00389374	-0.699219
390.51	-0.00389282	-0.699432
391.01	-0.00389282	-0.699524
391.51	-0.00389221	-0.699341
392.01	-0.00389221	-0.699524
392.51	-0.0038916	-0.699371
393.01	-0.00389099	-0.699158
393.51	-0.00389069	-0.699127
394.01	-0.00389038	-0.699371
394.51	-0.00388947	-0.699524
395.01	-0.00388855	-0.699188
395.51	-0.00388855	-0.699554
396.01	-0.00388824	-0.699371
396.51	-0.00388763	-0.699341
397.01	-0.00388611	-0.69928
397.51	-0.00388611	-0.699493
398.01	-0.0038855	-0.699249
398.51	-0.00388489	-0.699097
399.01	-0.00388489	-0.699249
399.51	-0.00388428	-0.699188
400.01	-0.00388397	-0.699066
400.51	-0.00388306	-0.699493
401.01	-0.00388275	-0.699432
401.51	-0.00388245	-0.699097
402.01	-0.00388245	-0.699524
402.51	-0.00388153	-0.699158
403.01	-0.00388123	-0.69931
403.51	-0.00388123	-0.699585
404.01	-0.00388062	-0.69931
404.51	-0.00388031	-0.699127
405.01	-0.00387939	-0.699493
405.51	-0.00387939	-0.69928
406.01	-0.00387878	-0.699219
406.51	-0.00387848	-0.699554
407.01	-0.00387817	-0.699432
407.51	-0.00387756	-0.699554
408.01	-0.00387695	-0.699066
408.51	-0.00387665	-0.699585
409.01	-0.00387573	-0.699432
409.51	-0.00387543	-0.699493
410.01	-0.00387482	-0.699219
410.51	-0.00387421	-0.699493
411.01	-0.00387421	-0.699097
411.51	-0.0038736	-0.699524
412.01	-0.00387115	-0.699554
412.51	-0.00387177	-0.699066
413.01	-0.00387146	-0.699493
413.51	-0.00387146	-0.699097
414.01	-0.00387115	-0.699188
414.51	-0.00387054	-0.699158
415.01	-0.00387054	-0.699585
415.51	-0.00386963	-0.699066
416.01	-0.00386932	-0.699097
416.51	-0.00386902	-0.699524
417.01	-0.00386871	-0.699158
417.51	-0.00386841	-0.699249
418.01	-0.0038681	-0.699585
418.51	-0.00386719	-0.69928
419.01	-0.00386688	-0.699066
419.51	-0.00386627	-0.699554
420.01	-0.00386597	-0.699524
420.51	-0.00386536	-0.699402
421.01	-0.00386505	-0.69928
421.51	-0.00386414	-0.699249
422.01	-0.00386383	-0.699585
422.51	-0.00386353	-0.699432
423.01	-0.00386292	-0.699432
423.51	-0.00386261	-0.699463
424.01	-0.0038623	-0.699432
424.51	-0.003862	-0.699127
425.01	-0.00386139	-0.699097
425.51	-0.00386108	-0.699585
426.01	-0.00386078	-0.699127
426.51	-0.00386017	-0.699493
427.01	-0.00386017	-0.699371
427.51	-0.00385956	-0.699463
428.01	-0.00385895	-0.699463
428.51	-0.00385864	-0.69928
429.01	-0.00385834	-0.699219
429.51	-0.00385681	-0.699493
430.01	-0.00385651	-0.699097
430.51	-0.0038562	-0.699524
431.01	-0.00385559	-0.699127
431.51	-0.00385559	-0.699554
432.01	-0.00385498	-0.699127
432.51	-0.00385498	-0.699524
433.01	-0.00385437	-0.699463
433.51	-0.00385406	-0.699402
434.01	-0.00385406	-0.699249
434.51	-0.00385345	-0.699371
435.01	-0.00385315	-0.699554
435.51	-0.00385254	-0.699097
436.01	-0.00385254	-0.699524
436.51	-0.00385223	-0.699158
437.01	-0.00385193	-0.699615
437.51	-0.00385162	-0.699554
438.01	-0.00385101	-0.69928
438.51	-0.0038504	-0.699371
439.01	-0.0038504	-0.69928
439.51	-0.0038501	-0.699371
440.01	-0.00384949	-0.699554
440.51	-0.00384827	-0.699158
441.01	-0.00384705	-0.699127
441.51	-0.00384735	-0.699188
442.01	-0.00384735	-0.699524
442.51	-0.00384644	-0.699371
443.01	-0.00384674	-0.699249
443.51	-0.00384491	-0.699097
444.01	-0.00384491	-0.699127
444.51	-0.0038443	-0.69931
445.01	-0.0038443	-0.699585
445.51	-0.0038443	-0.699493
446.01	-0.00384399	-0.699432
446.51	-0.00384369	-0.699432
447.01	-0.00384338	-0.699158
447.51	-0.00384308	-0.699432
448.01	-0.00384277	-0.699554
448.51	-0.00384247	-0.699524
449.01	-0.00384186	-0.699371
449.51	-0.00384155	-0.699127
450.01	-0.00384125	-0.699188
450.51	-0.00384094	-0.699219
451.01	-0.00384033	-0.699158
451.51	-0.00384003	-0.699249
452.01	-0.00384003	-0.69931
452.51	-0.00383942	-0.699249
453.01	-0.00383911	-0.699524
453.51	-0.00383881	-0.69931
454.01	-0.0038385	-0.699463
454.51	-0.0038382	-0.699585
455.01	-0.00383759	-0.699524
455.51	-0.00383728	-0.699341
456.01	-0.00383698	-0.699524
456.51	-0.00383667	-0.699524
457.01	-0.00383636	-0.69931
457.51	-0.00383575	-0.699097
458.01	-0.00383514	-0.699219
458.51	-0.00383484	-0.699158
459.01	-0.00383453	-0.69928
459.51	-0.00383423	-0.699524
460.01	-0.00383362	-0.699127
460.51	-0.00383331	-0.699463
461.01	-0.00383301	-0.699188
461.51	-0.0038327	-0.699554
462.01	-0.00383209	-0.699158
462.51	-0.00383209	-0.69931
463.01	-0.00383148	-0.699585
463.51	-0.00383118	-0.69931
464.01	-0.00383087	-0.699402
464.51	-0.00383057	-0.699524
465.01	-0.00382965	-0.699127
465.51	-0.00382935	-0.699158
466.01	-0.00382904	-0.699554
466.51	-0.00382904	-0.699188
467.01	-0.003828125	-0.699432
467.51	-0.00382782	-0.699188
468.01	-0.00382782	-0.699127
468.51	-0.00382751	-0.699463
469.01	-0.0038269	-0.699158
469.51	-0.0038266	-0.699249
470.01	-0.00382629	-0.699463
470.51	-0.00382599	-0.699219
471.01	-0.00382568	-0.699524
471.51	-0.00382507	-0.699493
472.01	-0.00382446	-0.69931
472.51	-0.00382416	-0.699158
473.01	-0.00382385	-0.699524
473.51	-0.00382355	-0.699341
474.01	-0.00382324	-0.699341
474.51	-0.00382294	-0.699097
475.01	-0.00382263	-0.699554
475.51	-0.00382202	-0.69928
476.01	-0.00382172	-0.69931
476.51	-0.00382111	-0.699097
477.01	-0.0038205	-0.699432
477.51	-0.00382019	-0.69928
478.01	-0.00381927	-0.699188
478.51	-0.00381866	-0.699188
479.01	-0.00381866	-0.699371
479.51	-0.00381836	-0.699402
480.01	-0.00381775	-0.699249
480.51	-0.00381744	-0.699402
481.01	-0.00381744	-0.699066
481.51	-0.00381714	-0.699097
482.01	-0.00381714	-0.699554
482.51	-0.00381653	-0.699158
483.01	-0.00381622	-0.699432
483.51	-0.00381592	-0.699066
484.01	-0.00381561	-0.699158
484.51	-0.003815	-0.699554
485.01	-0.0038147	-0.699341
485.51	-0.00381348	-0.699005
486.01	-0.00381317	-0.699188
486.51	-0.00381317	-0.699341
487.01	-0.00381287	-0.699127
487.51	-0.00381287	-0.699493
488.01	-0.00381226	-0.699493
488.51	-0.00381195	-0.699615
489.01	-0.00381073	-0.699493
489.51	-0.00381104	-0.699097
490.01	-0.00381073	-0.699341
490.51	-0.00381042	-0.699524
491.01	-0.00381012	-0.699554
491.51	-0.00381012	-0.699371
492.01	-0.00380951	-0.699127
492.51	-0.0038092	-0.699249
493.01	-0.0038092	-0.699615
493.51	-0.0038089	-0.699066
494.01	-0.00380859	-0.699585
494.51	-0.00380859	-0.699036
495.01	-0.00380798	-0.699127
495.51	-0.00380768	-0.69931
496.01	-0.00380707	-0.699432
496.51	-0.00380615	-0.699158
497.01	-0.00380615	-0.699402
497.51	-0.00380585	-0.699127
498.01	-0.00380096	-0.69931
498.51	-0.0038031	-0.699585
499.01	-0.0038031	-0.699127
499.51	-0.0038031	-0.699493
500.01	-0.0038028	-0.699188
500.51	-0.0038028	-0.699463
501.01	-0.00380249	-0.699249
501.51	-0.00380249	-0.699463
502.01	-0.00380157	-0.699554
502.51	-0.00380127	-0.699097
503.01	-0.00380127	-0.699524
503.51	-0.00380066	-0.699249
504.01	-0.00380035	-0.699127
504.51	-0.00380005	-0.699097
505.01	-0.00380035	-0.699249
505.51	-0.00380005	-0.699585
506.01	-0.00379944	-0.699127
506.51	-0.00379944	-0.699066
507.01	-0.00379913	-0.699249
507.51	-0.00379883	-0.699493
508.01	-0.00379822	-0.699524
508.51	-0.00379822	-0.699127
509.01	-0.00379761	-0.699219
509.51	-0.003797	-0.699158
510.01	-0.0037973	-0.699554
510.51	-0.003797	-0.699463
511.01	-0.00379669	-0.699127
511.51	-0.00379639	-0.699585
512.01	-0.00379608	-0.699158
512.51	-0.00379547	-0.699524
513.01	-0.00379547	-0.699249
513.51	-0.00379547	-0.699219
514.01	-0.00379425	-0.699585
514.51	-0.00379425	-0.699493
515.01	-0.00379364	-0.699463
515.51	-0.00379333	-0.699341
516.01	-0.00379333	-0.69931
516.51	-0.00379333	-0.699371
517.01	-0.00379303	-0.699402
517.51	-0.00379242	-0.699127
518.01	-0.00379181	-0.699554
518.51	-0.00379181	-0.699371
519.01	-0.0037915	-0.699554
519.51	-0.0037915	-0.699585
520.01	-0.0037912	-0.699432
520.51	-0.00379089	-0.699493
521.01	-0.00379059	-0.699463
521.51	-0.00378998	-0.699158
522.01	-0.00378967	-0.699585
522.51	-0.00378937	-0.699249
523.01	-0.00378937	-0.699066
523.51	-0.00378815	-0.699188
524.01	-0.00378784	-0.699554
524.51	-0.00378723	-0.699585
525.01	-0.00378723	-0.699219
525.51	-0.00378693	-0.699127
526.01	-0.00378693	-0.699097
526.51	-0.00378632	-0.699524
527.01	-0.00378632	-0.699524
527.51	-0.00378601	-0.699127
528.01	-0.00378571	-0.699493
528.51	-0.0037851	-0.699554
529.01	-0.0037854	-0.699524
529.51	-0.00378479	-0.699524
530.01	-0.00378448	-0.699524
530.51	-0.00378387	-0.69931
531.01	-0.00378357	-0.699219
531.51	-0.00378326	-0.69931
532.01	-0.00378296	-0.699402
532.51	-0.00378235	-0.699554
533.01	-0.00378204	-0.699402
533.51	-0.00378143	-0.69931
534.01	-0.00378143	-0.699188
534.51	-0.00378113	-0.699585
535.01	-0.00378082	-0.699158
535.51	-0.00378052	-0.699524
536.01	-0.00378021	-0.699524
536.51	-0.00377991	-0.699341
537.01	-0.00377869	-0.699432
537.51	-0.00377869	-0.699158
538.01	-0.00377808	-0.699463
538.51	-0.00377777	-0.699493
539.01	-0.00377747	-0.699493
539.51	-0.00377716	-0.699158
540.01	-0.00377686	-0.699341
540.51	-0.00377625	-0.699158
541.01	-0.00377625	-0.699127
541.51	-0.00377563	-0.69928
542.01	-0.00377533	-0.699554
542.51	-0.00377502	-0.699402
543.01	-0.00377411	-0.699493
543.51	-0.0037735	-0.699432
544.01	-0.00377319	-0.699524
544.51	-0.00377289	-0.69931
545.01	-0.00377228	-0.699158
545.51	-0.00377197	-0.699127
546.01	-0.00377167	-0.699127
546.51	-0.00377167	-0.699188
547.01	-0.00377106	-0.699432
547.51	-0.00376984	-0.69931
548.01	-0.00376953	-0.699432
548.51	-0.00376923	-0.699493
549.01	-0.00376892	-0.699493
549.51	-0.00376892	-0.699615
550.01	-0.00376862	-0.699493
550.51	-0.00376831	-0.699493
551.01	-0.0037677	-0.699432
551.51	-0.0037674	-0.699493
552.01	-0.00376709	-0.699524
552.51	-0.00376678	-0.699493
553.01	-0.00376648	-0.699188
553.51	-0.00376587	-0.699188
554.01	-0.00376526	-0.699127
554.51	-0.00376495	-0.699341
555.01	-0.00376495	-0.699341
555.51	-0.00376465	-0.69928
556.01	-0.00376465	-0.69931
556.51	-0.00376282	-0.699158
557.01	-0.00376343	-0.699249
557.51	-0.00376312	-0.699341
558.01	-0.00376221	-0.699524
558.51	-0.0037619	-0.699463
559.01	-0.0037619	-0.699493
559.51	-0.0037616	-0.699432
560.01	-0.0037616	-0.699127
560.51	-0.00376099	-0.699127
561.01	-0.00376068	-0.699188
561.51	-0.00376038	-0.699097
562.01	-0.00376007	-0.699188
562.51	-0.00375946	-0.699188
563.01	-0.00375916	-0.699524
563.51	-0.00375885	-0.699432
564.01	-0.00375824	-0.699371
564.51	-0.00375793	-0.69931
565.01	-0.00375793	-0.699554
565.51	-0.00375732	-0.699493
566.01	-0.00375702	-0.699158
566.51	-0.00375519	-0.699219
567.01	-0.00375488	-0.699341
567.51	-0.00375458	-0.699524
568.01	-0.00375458	-0.699188
568.51	-0.00375427	-0.699524
569.01	-0.00375397	-0.699493
569.51	-0.00375366	-0.69928
570.01	-0.00375366	-0.699127
570.51	-0.00375458	-0.699188
571.01	-0.00375427	-0.699432
571.51	-0.00375366	-0.699554
572.01	-0.00375366	-0.699524
572.51	-0.00375305	-0.69931
573.01	-0.00375275	-0.699158
573.51	-0.00375244	-0.699249
574.01	-0.00375214	-0.699402
574.51	-0.00375183	-0.699554
575.01	-0.00375153	-0.699463
575.51	-0.00375092	-0.699493
576.01	-0.00375092	-0.699463
576.51	-0.00375	-0.699402
577.01	-0.00374969	-0.699341
577.51	-0.00374847	-0.699158
578.01	-0.00374847	-0.699432
578.51	-0.00374817	-0.699341
579.01	-0.00374786	-0.69928
579.51	-0.00374786	-0.69928
580.01	-0.00374756	-0.699463
580.51	-0.00374725	-0.699554
581.01	-0.00374695	-0.699158
581.51	-0.00374664	-0.699188
582.01	-0.00374664	-0.699127
582.51	-0.00374634	-0.699219
583.01	-0.00374603	-0.699463
583.51	-0.00374573	-0.699127
584.01	-0.00374542	-0.699158
584.51	-0.00374481	-0.699219
585.01	-0.00374451	-0.699219
585.51	-0.00374451	-0.699524
586.01	-0.0037439	-0.69928
586.51	-0.00374359	-0.699188
587.01	-0.00374268	-0.699219
587.51	-0.00374237	-0.699127
588.01	-0.00374207	-0.699554
588.51	-0.00374176	-0.699249
589.01	-0.00374146	-0.699249
589.51	-0.00374115	-0.69931
590.01	-0.00374023	-0.699341
590.51	-0.00373962	-0.69928
591.01	-0.00373932	-0.699402
591.51	-0.00373932	-0.699127
592.01	-0.00373871	-0.699219
592.51	-0.0037384	-0.699402
593.01	-0.0037381	-0.699493
593.51	-0.00373779	-0.69931
594.01	-0.00373749	-0.699219
594.51	-0.00373688	-0.699585
595.01	-0.00373718	-0.699432
595.51	-0.00373688	-0.699493
596.01	-0.00373657	-0.699493
596.51	-0.00373627	-0.699371
597.01	-0.00373596	-0.699524
597.51	-0.00373596	-0.699432
598.01	-0.00373566	-0.699249
598.51	-0.00373505	-0.699463
599.01	-0.00373474	-0.699432
599.51	-0.00373444	-0.699127
600.01	-0.00373444	-0.699402
600.51	-0.00373383	-0.699524
601.01	-0.00373352	-0.699188
601.51	-0.00373322	-0.699554
602.01	-0.00373291	-0.699158
602.51	-0.0037326	-0.699249
603.01	-0.0037326	-0.699524
603.51	-0.00373138	-0.699097
604.01	-0.00373108	-0.699219
604.51	-0.00373047	-0.699432
605.01	-0.00373047	-0.699402
605.51	-0.00373047	-0.699188
606.01	-0.00372986	-0.699127
606.51	-0.00372955	-0.699402
607.01	-0.00372925	-0.699341
607.51	-0.00372864	-0.699249
608.01	-0.00372864	-0.699158
608.51	-0.00372803	-0.699371
609.01	-0.00372803	-0.699188
609.51	-0.00372681	-0.699127
610.01	-0.00372681	-0.699127
610.51	-0.0037265	-0.699188
611.01	-0.0037262	-0.699585
611.51	-0.0037262	-0.699524
612.01	-0.00372559	-0.699188
612.51	-0.00372528	-0.699371
613.01	-0.00372498	-0.699554
613.51	-0.00372467	-0.699219
614.01	-0.00372437	-0.699127
614.51	-0.00372345	-0.699188
615.01	-0.00372314	-0.699188
615.51	-0.00372284	-0.699127
616.01	-0.00372253	-0.699158
616.51	-0.00372223	-0.699341
617.01	-0.00372192	-0.699554
617.51	-0.00372131	-0.699554
618.01	-0.00372101	-0.699463
618.51	-0.00372009	-0.699493
619.01	-0.00371979	-0.699158
619.51	-0.00371887	-0.699371
620.01	-0.00371857	-0.699463
620.51	-0.00371796	-0.699219
621.01	-0.00371796	-0.699127
621.51	-0.00371552	-0.699493
622.01	-0.00371521	-0.699249
622.51	-0.00371521	-0.699463
623.01	-0.00371521	-0.699463
623.51	-0.00371552	-0.699524
624.01	-0.00371521	-0.69928
624.51	-0.0037146	-0.699219
625.01	-0.00371399	-0.69928
625.51	-0.00371368	-0.699554
626.01	-0.00371338	-0.699524
626.51	-0.00371246	-0.699554
627.01	-0.00371246	-0.699158
627.51	-0.00371216	-0.699188
628.01	-0.00371185	-0.699219
628.51	-0.00371124	-0.699188
629.01	-0.00371094	-0.699402
629.51	-0.00371063	-0.699219
630.01	-0.00371063	-0.699554
630.51	-0.00371002	-0.699585
631.01	-0.00371002	-0.699463
631.51	-0.00370941	-0.699615
632.01	-0.00370941	-0.699371
632.51	-0.0037088	-0.699554
633.01	-0.0037085	-0.699585
633.51	-0.0037085	-0.699493
634.01	-0.0037085	-0.699158
634.51	-0.00370758	-0.69931
635.01	-0.00370728	-0.699188
635.51	-0.00370697	-0.699158
636.01	-0.00370697	-0.699341
636.51	-0.00370636	-0.699524
637.01	-0.00370605	-0.699158
637.51	-0.00370575	-0.699249
638.01	-0.00370514	-0.699463
638.51	-0.00370483	-0.699463
639.01	-0.00370453	-0.69931
639.51	-0.00370422	-0.699463
640.01	-0.00370392	-0.69928
640.51	-0.00370361	-0.699402
641.01	-0.00370331	-0.699371
641.51	-0.003703	-0.699127
642.01	-0.0037027	-0.699158
642.51	-0.00370239	-0.69928
643.01	-0.00370178	-0.699554
643.51	-0.00370148	-0.699585
644.01	-0.00370117	-0.699127
644.51	-0.00370056	-0.699463
645.01	-0.00369995	-0.699127
645.51	-0.00369965	-0.699219
646.01	-0.00369934	-0.699493
646.51	-0.00369904	-0.699493
647.01	-0.00369904	-0.699402
647.51	-0.00369843	-0.699158
648.01	-0.00369812	-0.699585
648.51	-0.00369781	-0.699493
649.01	-0.0036972	-0.699097
649.51	-0.0036969	-0.699127
650.01	-0.00369629	-0.699554
650.51	-0.00369598	-0.69931
651.01	-0.00369568	-0.699097
651.51	-0.00369568	-0.699127
652.01	-0.00369537	-0.699219
652.51	-0.00369476	-0.699524
653.01	-0.00369446	-0.69928
653.51	-0.00369415	-0.699158
654.01	-0.00369385	-0.699127
654.51	-0.00369354	-0.699432
655.01	-0.00369324	-0.699432
655.51	-0.00369263	-0.699097
656.01	-0.00369232	-0.699524
656.51	-0.00369202	-0.699219
657.01	-0.00369171	-0.699524
657.51	-0.00369141	-0.699524
658.01	-0.0036911	-0.699219
658.51	-0.0036908	-0.699219
659.01	-0.00369019	-0.699341
659.51	-0.00369019	-0.699127
660.01	-0.00368958	-0.699219
660.51	-0.00368927	-0.699249
661.01	-0.00368927	-0.699371
661.51	-0.00368866	-0.699371
662.01	-0.00368805	-0.699066
662.51	-0.00368835	-0.699188
663.01	-0.00368774	-0.699188
663.51	-0.00368774	-0.699127
664.01	-0.00368713	-0.699524
664.51	-0.00368683	-0.699341
665.01	-0.00368622	-0.699249
665.51	-0.00368591	-0.699097
666.01	-0.00368561	-0.699097
666.51	-0.0036853	-0.699402
667.01	-0.003685	-0.699554
667.51	-0.00368439	-0.699524
668.01	-0.00368408	-0.699493
668.51	-0.00368378	-0.699249
669.01	-0.00368317	-0.69928
669.51	-0.00368286	-0.699554
670.01	-0.00368256	-0.699493
670.51	-0.00368225	-0.699127
671.01	-0.0036795	-0.699158
671.51	-0.00368042	-0.699646
672.01	-0.00367981	-0.699127
672.51	-0.0036795	-0.699127
673.01	-0.0036792	-0.699127
673.51	-0.00367889	-0.699188
674.01	-0.00367859	-0.699493
674.51	-0.00367828	-0.699188
675.01	-0.00367828	-0.699127
675.51	-0.00367798	-0.699097
676.01	-0.00367767	-0.699127
676.51	-0.00367767	-0.699341
677.01	-0.00367706	-0.699127
677.51	-0.00367676	-0.699524
678.01	-0.00367645	-0.699524
678.51	-0.00367645	-0.699493
679.01	-0.00367584	-0.699585
679.51	-0.00367584	-0.699585
680.01	-0.00367554	-0.699158
680.51	-0.00367523	-0.699341
681.01	-0.00367432	-0.699432
681.51	-0.00367401	-0.699402
682.01	-0.00367371	-0.699585
682.51	-0.00367371	-0.69928
683.01	-0.0036734	-0.699066
683.51	-0.0036731	-0.699158
684.01	-0.00367249	-0.699585
684.51	-0.00367218	-0.699188
685.01	-0.00367157	-0.699585
685.51	-0.00367126	-0.699188
686.01	-0.00367096	-0.699493
686.51	-0.00367065	-0.699188
687.01	-0.00367035	-0.699554
687.51	-0.00366974	-0.699188
688.01	-0.00366852	-0.699341
688.51	-0.00366852	-0.699463
689.01	-0.00366821	-0.699493
689.51	-0.00366791	-0.699219
690.01	-0.0036676	-0.699341
690.51	-0.0036673	-0.699463
691.01	-0.00366699	-0.699127
691.51	-0.00366699	-0.699188
692.01	-0.00366669	-0.699249
692.51	-0.00366608	-0.699554
693.01	-0.00366577	-0.69928
693.51	-0.00366547	-0.699249
694.01	-0.00366486	-0.699158
694.51	-0.00366455	-0.699585
695.01	-0.00366425	-0.699463
695.51	-0.00366364	-0.699097
696.01	-0.00366333	-0.699524
696.51	-0.00366302	-0.699249
697.01	-0.00366272	-0.699463
697.51	-0.00366241	-0.699249
698.01	-0.00366211	-0.699219
698.51	-0.0036615	-0.699493
699.01	-0.00366028	-0.69931
699.51	-0.00366028	-0.699493
700.01	-0.00365997	-0.699188
700.51	-0.00365967	-0.699066
701.01	-0.00365906	-0.699493
701.51	-0.00365906	-0.699158
702.01	-0.00365875	-0.699554
702.51	-0.00365845	-0.699127
703.01	-0.00365845	-0.699249
703.51	-0.00365784	-0.699585
704.01	-0.00365723	-0.699097
704.51	-0.00365692	-0.699432
705.01	-0.00365662	-0.699127
705.51	-0.00365601	-0.699097
706.01	-0.0036557	-0.699158
706.51	-0.00365509	-0.699585
707.01	-0.00365479	-0.699219
707.51	-0.00365448	-0.699554
708.01	-0.00365417	-0.699554
708.51	-0.00365356	-0.699524
709.01	-0.00365326	-0.699554
709.51	-0.00365265	-0.69931
710.01	-0.00365265	-0.699432
710.51	-0.00365234	-0.699219
711.01	-0.00365204	-0.699097
711.51	-0.00365143	-0.699615
712.01	-0.00365112	-0.699127
712.51	-0.00364899	-0.699097
713.01	-0.00364899	-0.699341
713.51	-0.00364868	-0.699554
714.01	-0.00364777	-0.699371
714.51	-0.00364746	-0.699646
715.01	-0.00364716	-0.699493
715.51	-0.00364716	-0.699219
716.01	-0.00364685	-0.699158
716.51	-0.00364655	-0.699524
717.01	-0.00364655	-0.699219
717.51	-0.00364624	-0.699493
718.01	-0.00364563	-0.699524
718.51	-0.00364532	-0.699219
719.01	-0.00364471	-0.699249
719.51	-0.00364441	-0.699127
720.01	-0.0036441	-0.699341
720.51	-0.0036438	-0.699585
721.01	-0.00364349	-0.699371
721.51	-0.00364319	-0.699158
722.01	-0.00364288	-0.699188
722.51	-0.00364258	-0.699219
723.01	-0.00364197	-0.699188
723.51	-0.00364166	-0.699127
724.01	-0.00364136	-0.699524
724.51	-0.00364044	-0.699158
725.01	-0.00364014	-0.699066
725.51	-0.00363983	-0.699127
726.01	-0.00363983	-0.69931
726.51	-0.00363953	-0.699585
727.01	-0.00363922	-0.699432
727.51	-0.00363831	-0.699585
728.01	-0.00363861	-0.699524
728.51	-0.003638	-0.69928
729.01	-0.0036377	-0.699066
729.51	-0.00363739	-0.699524
730.01	-0.00363739	-0.699524
730.51	-0.00363678	-0.699402
731.01	-0.00363678	-0.69928
731.51	-0.00363617	-0.699524
732.01	-0.00363617	-0.699493
732.51	-0.00363556	-0.699554
733.01	-0.00363556	-0.699585
733.51	-0.00363525	-0.699554
734.01	-0.00363495	-0.699554
734.51	-0.00363464	-0.699219
735.01	-0.00363403	-0.699371
735.51	-0.00363373	-0.699585
736.01	-0.00363342	-0.699554
736.51	-0.00363312	-0.699493
737.01	-0.00363251	-0.699127
737.51	-0.0036322	-0.699554
738.01	-0.0036319	-0.699371
738.51	-0.00363159	-0.699036
739.01	-0.00363129	-0.699127
739.51	-0.00363098	-0.699341
740.01	-0.00363098	-0.699219
740.51	-0.00363068	-0.699097
741.01	-0.00362976	-0.699097
741.51	-0.00362946	-0.699127
742.01	-0.00362915	-0.699554
742.51	-0.00362885	-0.699493
743.01	-0.00362854	-0.699554
743.51	-0.00362793	-0.699524
744.01	-0.00362793	-0.699371
744.51	-0.00362732	-0.699066
745.01	-0.00362671	-0.699219
745.51	-0.00362671	-0.699463
746.01	-0.0036264	-0.699524
746.51	-0.00362579	-0.699585
747.01	-0.00362549	-0.699249
747.51	-0.00362518	-0.699097
748.01	-0.00362457	-0.699188
748.51	-0.00362457	-0.699402
749.01	-0.00362427	-0.699615
749.51	-0.00362396	-0.699158
750.01	-0.00362366	-0.699219
750.51	-0.00362335	-0.699524
751.01	-0.00362305	-0.699493
751.51	-0.00362274	-0.699341
752.01	-0.00362244	-0.699554
752.51	-0.00362183	-0.699524
753.01	-0.00362152	-0.699554
753.51	-0.00362122	-0.699249
754.01	-0.00362091	-0.699127
754.51	-0.0036203	-0.699493
755.01	-0.0036203	-0.699188
755.51	-0.00362	-0.699097
756.01	-0.00361969	-0.699127
756.51	-0.00361908	-0.699371
757.01	-0.00361877	-0.699219
757.51	-0.00361847	-0.69928
758.01	-0.00361786	-0.699341
758.51	-0.00361786	-0.69928
759.01	-0.00361755	-0.699249
759.51	-0.00361725	-0.699554
760.01	-0.00361694	-0.699615
760.51	-0.00361633	-0.699524
761.01	-0.00361633	-0.699463
761.51	-0.00361603	-0.699249
762.01	-0.00361542	-0.699524
762.51	-0.0036145	-0.699432
763.01	-0.0036142	-0.699402
763.51	-0.0036142	-0.69928
764.01	-0.00361389	-0.699554
764.51	-0.00361359	-0.699127
765.01	-0.00361267	-0.699188
765.51	-0.00361237	-0.699219
766.01	-0.00361176	-0.699341
766.41	-0.00361115	-0.699127