File: Edgar/20230619/20230619/electrodeposition_WO3_thin_films_onto_ITO_A/wo3_film_continuous_electrodeposition_B/OCP_3
Time (s)	WE(1).Potential (V)
767.421	-0.509033
768.421	-0.493164
769.421	-0.48172
770.421	-0.472595
771.421	-0.464935
772.421	-0.458313
773.421	-0.452423
774.421	-0.447113
775.421	-0.442291
776.421	-0.437836
777.421	-0.433685
778.421	-0.42981
779.421	-0.426178
780.421	-0.422699
781.421	-0.419403
782.421	-0.41626
783.421	-0.413269
784.421	-0.4104
785.421	-0.407623
786.421	-0.404938
787.421	-0.402344
788.421	-0.399811
789.421	-0.397369
790.421	-0.394958
791.421	-0.392639
792.421	-0.39035
793.421	-0.388123
794.421	-0.385925
795.421	-0.383759
796.421	-0.381653
797.421	-0.379547
798.421	-0.377502
799.421	-0.375458
800.421	-0.373474
801.421	-0.37146
802.421	-0.369476
803.421	-0.367523
804.421	-0.365601
805.421	-0.363678
806.421	-0.361755
807.421	-0.359863
808.421	-0.357971
809.421	-0.356079
810.421	-0.354187
811.421	-0.352325
812.421	-0.350464
813.421	-0.348572
814.421	-0.34671
815.421	-0.344879
816.421	-0.343018
817.421	-0.341187
818.421	-0.339325
819.421	-0.337463
820.421	-0.335632
821.421	-0.333771
822.421	-0.331909
823.421	-0.330048
824.421	-0.328339
825.421	-0.326447
826.421	-0.324585
827.421	-0.322693
828.421	-0.320831
829.421	-0.318939
830.421	-0.317078
831.421	-0.315216
832.421	-0.313324
833.421	-0.311462
834.421	-0.309601
835.421	-0.307709
836.421	-0.305847
837.421	-0.303955
838.421	-0.302094
839.421	-0.300201
840.421	-0.298309
841.421	-0.296417
842.421	-0.294525
843.421	-0.292664
844.421	-0.290802
845.421	-0.28891
846.421	-0.287048
847.421	-0.285187
848.421	-0.283325
849.421	-0.281464
850.421	-0.279633
851.421	-0.277802
852.421	-0.27594
853.421	-0.274109
854.421	-0.272278
855.421	-0.270477
856.421	-0.268646
857.421	-0.266846
858.421	-0.265076
859.421	-0.263306
860.421	-0.261536
861.421	-0.259796
862.421	-0.258057
863.421	-0.256378
864.421	-0.2547
865.421	-0.252991
866.421	-0.251312
867.421	-0.249664
868.421	-0.248016
869.421	-0.246399
870.421	-0.244812
871.421	-0.243225
872.421	-0.241669
873.421	-0.240112
874.421	-0.238586
875.421	-0.23703
876.421	-0.235565
877.421	-0.234039
878.421	-0.232574
879.421	-0.23111
880.421	-0.229706
881.421	-0.228271
882.421	-0.226929
883.421	-0.225525
884.421	-0.224152
885.421	-0.222778
886.421	-0.221436
887.421	-0.220123
888.421	-0.218781
889.421	-0.217468
890.421	-0.216187
891.421	-0.214905
892.421	-0.213654
893.421	-0.212402
894.421	-0.211182
895.421	-0.209961
896.421	-0.20874
897.421	-0.20755
898.421	-0.20636
899.421	-0.20517
900.421	-0.20401
901.421	-0.20282
902.421	-0.201691
903.421	-0.200531
904.421	-0.199402
905.421	-0.198273
906.421	-0.197174
907.421	-0.196045
908.421	-0.194946
909.421	-0.193848
910.421	-0.192749
911.421	-0.191681
912.421	-0.190613
913.421	-0.189545
914.421	-0.188477
915.421	-0.187408
916.421	-0.18634
917.421	-0.185272
918.421	-0.184235
919.421	-0.183167
920.421	-0.182129
921.421	-0.181061
922.421	-0.180023
923.421	-0.178986
924.421	-0.177979
925.421	-0.17691
926.421	-0.175873
927.421	-0.174835
928.421	-0.173798
929.421	-0.17276
930.421	-0.171722
931.421	-0.170654
932.421	-0.169617
933.421	-0.168579
934.421	-0.167542
935.421	-0.166504
936.421	-0.165466
937.421	-0.164429
938.421	-0.163361
939.421	-0.162323
940.421	-0.161285
941.421	-0.160278
942.421	-0.15921
943.421	-0.158142
944.421	-0.157074
945.421	-0.156006
946.421	-0.154938
947.421	-0.1539
948.421	-0.152832
949.421	-0.151764
950.421	-0.150696
951.421	-0.149628
952.421	-0.14859
953.421	-0.147552
954.421	-0.146484
955.421	-0.145447
956.421	-0.144379
957.421	-0.143341
958.421	-0.142273
959.421	-0.141235
960.421	-0.140167
961.421	-0.139099
962.421	-0.138062
963.421	-0.136993
964.421	-0.135956
965.421	-0.134888
966.421	-0.13382
967.421	-0.132782
968.421	-0.131744
969.421	-0.130676
970.421	-0.129608
971.421	-0.128571
972.421	-0.127502
973.421	-0.126465
974.421	-0.125397
975.421	-0.124359
976.421	-0.123291
977.421	-0.122253
978.421	-0.121216
979.421	-0.120148
980.421	-0.11911
981.421	-0.118042
982.421	-0.117004
983.421	-0.115967
984.421	-0.114899
985.421	-0.113831
986.421	-0.112762
987.421	-0.111725
988.421	-0.110657
989.421	-0.109619
990.421	-0.108582
991.421	-0.107513
992.421	-0.106476
993.421	-0.105438
994.421	-0.104401
995.421	-0.103363
996.421	-0.102325
997.421	-0.101288
998.421	-0.10025
999.421	-0.0992432
1000.42	-0.0982056
1001.42	-0.097168
1002.42	-0.0961609
1003.42	-0.0951233
1004.42	-0.0941162
1005.42	-0.0931091
1006.42	-0.0921021
1007.42	-0.091095
1008.42	-0.0900879
1009.42	-0.0890808
1010.42	-0.0880737
1011.42	-0.0870667
1012.42	-0.0860596
1013.42	-0.0850525
1014.42	-0.0840454
1015.42	-0.0830688
1016.42	-0.0820618
1017.42	-0.0810547
1018.42	-0.0800781
1019.42	-0.079071
1020.42	-0.078064
1021.42	-0.0770874
1022.42	-0.0760803
1023.42	-0.0750732
1024.42	-0.0740662
1025.42	-0.0730591
1026.42	-0.0720825
1027.42	-0.0710754
1028.42	-0.0700684
1029.42	-0.0690613
1030.42	-0.0680542
1031.42	-0.0670471
1032.42	-0.06604
1033.42	-0.0650024
1034.42	-0.0639954
1035.42	-0.0629578
1036.42	-0.0619507
1037.42	-0.0609436
1038.42	-0.059906
1039.42	-0.0588684
1040.42	-0.0578308
1041.42	-0.0567932
1042.42	-0.0557556
1043.42	-0.0546875
1044.42	-0.0536194
1045.42	-0.0525818
1046.42	-0.0515137
1047.42	-0.050415
1048.42	-0.0493469
1049.42	-0.0482635
1050.42	-0.047171
1051.42	-0.0460876
1052.42	-0.0449799
1053.42	-0.043866
1054.42	-0.0427582
1055.42	-0.0416351
1056.42	-0.0404999
1057.42	-0.0393585
1058.42	-0.0382141
1059.42	-0.0370605
1060.42	-0.035907
1061.42	-0.0347351
1062.42	-0.0335541
1063.42	-0.0323639
1064.42	-0.0311768
1065.42	-0.0299774
1066.42	-0.0287415
1067.42	-0.0275146
1068.42	-0.0262756
1069.42	-0.0250305
1070.42	-0.0237823
1071.42	-0.0225098
1072.42	-0.021228
1073.42	-0.0199402
1074.42	-0.018634
1075.42	-0.0173462
1076.42	-0.0160126
1077.42	-0.0146606
1078.42	-0.0132965
1079.42	-0.0119263
1080.42	-0.0105316
1081.42	-0.00914001
1082.42	-0.00773315
1083.42	-0.00630493
1084.42	-0.00485535
1085.42	-0.00339661
1086.42	-0.00191956
1087.42	-0.000430298
1088.42	0.00106201
1089.42	0.00259094
1090.42	0.00413208
1091.42	0.00570068
1092.42	0.00727844
1093.42	0.00887146
1094.42	0.010495
1095.42	0.0121277
1096.42	0.0137909
1097.42	0.0154694
1098.42	0.0171692
1099.42	0.0188995
1100.42	0.0206238
1101.42	0.0223846
1102.42	0.0241699
1103.42	0.0259949
1104.42	0.027832
1105.42	0.0296967
1106.42	0.0315704
1107.42	0.0334869
1108.42	0.0354095
1109.42	0.0373535
1110.42	0.0393158
1111.42	0.0413025
1112.42	0.0433289
1113.42	0.0453705
1114.42	0.0474304
1115.42	0.04953
1116.42	0.0516663
1117.42	0.0538025
1118.42	0.0559692
1119.42	0.0581665
1120.42	0.0603638
1121.42	0.0625916
1122.42	0.0648499
1123.42	0.0671082
1124.42	0.069397
1125.42	0.0716858
1126.42	0.0740051
1127.42	0.0763245
1128.42	0.0786743
1129.42	0.0810547
1130.42	0.0834351
1131.42	0.0858154
1132.42	0.0881958
1133.42	0.0905762
1134.42	0.0930176
1135.42	0.0954285
1136.42	0.0978699
1137.42	0.100311
1138.42	0.102722
1139.42	0.105164
1140.42	0.107605
1141.42	0.110077
1142.42	0.112518
1143.42	0.11496
1144.42	0.117401
1145.42	0.119812
1146.42	0.122253
1147.42	0.124695
1148.42	0.127075
1149.42	0.129486
1150.42	0.131897
1151.42	0.134277
1152.42	0.136658
1153.42	0.138977
1154.42	0.141357
1155.42	0.143677
1156.42	0.146027
1157.42	0.148346
1158.42	0.150665
1159.42	0.152954
1160.42	0.155273
1161.42	0.157532
1162.42	0.15979
1163.42	0.162048
1164.42	0.164276
1165.42	0.166504
1166.42	0.168732
1167.42	0.170898
1168.42	0.173096
1169.42	0.175262
1170.42	0.177429
1171.42	0.179565
1172.42	0.181671
1173.42	0.183777
1174.42	0.185852
1175.42	0.187927
1176.42	0.190002
1177.42	0.192047
1178.42	0.194061
1179.42	0.196075
1180.42	0.198059
1181.42	0.200043
1182.42	0.201996
1183.42	0.203949
1184.42	0.205872
1185.42	0.207764
1186.42	0.209656
1187.42	0.211548
1188.42	0.213409
1189.42	0.21521
1190.42	0.21701
1191.42	0.218811
1192.42	0.220581
1193.42	0.222321
1194.42	0.22406
1195.42	0.225739
1196.42	0.227386
1197.42	0.229004
1198.42	0.230621
1199.42	0.232178
1200.42	0.233704
1201.42	0.235199
1202.42	0.236633
1203.42	0.238037
1204.42	0.23938
1205.42	0.240723
1206.42	0.241974
1207.42	0.243195
1208.42	0.244385
1209.42	0.245514
1210.42	0.246613
1211.42	0.247681
1212.42	0.248718
1213.42	0.249725
1214.42	0.250702
1215.42	0.251617
1216.42	0.252533
1217.42	0.253387
1218.42	0.254272
1219.42	0.255066
1220.42	0.25589
1221.42	0.256683
1222.42	0.257477
1223.42	0.258209
1224.42	0.258972
1225.42	0.259674
1226.42	0.260406
1227.42	0.261108
1228.42	0.26181
1229.42	0.262482
1230.42	0.263153
1231.42	0.263824
1232.42	0.264465
1233.42	0.265106
1234.42	0.265747
1235.42	0.266357
1236.42	0.266937
1237.42	0.267548
1238.42	0.268158
1239.42	0.268738
1240.42	0.269318
1241.42	0.269897
1242.42	0.270477
1243.42	0.271057
1244.42	0.271606
1245.42	0.272156
1246.42	0.272705
1247.42	0.273254
1248.42	0.273773
1249.42	0.274292
1250.42	0.274841
1251.42	0.27536
1252.42	0.275909
1253.42	0.276398
1254.42	0.276947
1255.42	0.277466
1256.42	0.277954
1257.42	0.278442
1258.42	0.2789
1259.42	0.279388
1260.42	0.279846
1261.42	0.280304
1262.42	0.280762
1263.42	0.28125
1264.42	0.281708
1265.42	0.282166
1266.42	0.282623
1267.42	0.283081
1268.42	0.283508
1269.42	0.283966
1270.42	0.284393
1271.42	0.284821
1272.42	0.285248
1273.42	0.285706
1274.42	0.286133
1275.42	0.28656
1276.42	0.287018
1277.42	0.287445
1278.42	0.287872
1279.42	0.2883
1280.42	0.288727
1281.42	0.289154
1282.42	0.289581
1283.42	0.290009
1284.42	0.290405
1285.42	0.290802
1286.42	0.291229
1287.42	0.291656
1288.42	0.292053
1289.42	0.29248
1290.42	0.292877
1291.42	0.293274
1292.42	0.293671
1293.42	0.294067
1294.42	0.294495
1295.42	0.294891
1296.42	0.295288
1297.42	0.295715
1298.42	0.296112
1299.42	0.296509
1300.42	0.296906
1301.42	0.297302
1302.42	0.297699
1303.42	0.298096
1304.42	0.298462
1305.42	0.298859
1306.42	0.299255
1307.42	0.299652
1308.42	0.300049
1309.42	0.300446
1310.42	0.300842
1311.42	0.301239
1312.42	0.301636
1313.42	0.302032
1314.42	0.302429
1315.42	0.302826
1316.42	0.303223
1317.42	0.303619
1318.42	0.304016
1319.42	0.304382
1320.42	0.304779
1321.42	0.305176
1322.42	0.305573
1323.42	0.305969
1324.42	0.306335
1325.42	0.306702
1326.42	0.307098
1327.42	0.307495
1328.42	0.307892
1329.42	0.308289
1330.42	0.308685
1331.42	0.309082
1332.42	0.309509
1333.42	0.309906
1334.42	0.310303
1335.42	0.310699
1336.42	0.311096
1337.42	0.311523
1338.42	0.31192
1339.42	0.312347
1340.42	0.312744
1341.42	0.313171
1342.42	0.313599
1343.42	0.313995
1344.42	0.314423
1345.42	0.314819
1346.42	0.315247
1347.42	0.315674
1348.42	0.316071
1349.42	0.316498
1350.42	0.316895
1351.42	0.317322
1352.42	0.317749
1353.42	0.318146
1354.42	0.318573
1355.42	0.319
1356.42	0.319427
1357.42	0.319824
1358.42	0.320251
1359.42	0.320679
1360.42	0.321106
1361.42	0.321503
1362.42	0.32193
1363.42	0.322388
1364.42	0.322815
1365.42	0.323212
1366.42	0.323639
1367.42	0.324097
1368.42	0.324524
1369.42	0.324921
1370.42	0.325378
1371.42	0.325806
1372.42	0.326233
1373.42	0.326691
1374.42	0.327118
1375.42	0.327545
1376.42	0.327972
1377.42	0.3284
1378.42	0.328827
1379.42	0.329254
1380.42	0.329712
1381.42	0.330139
1382.42	0.330536
1383.42	0.330994
1384.42	0.331421
1385.42	0.331848
1386.42	0.332275
1387.42	0.332703
1388.42	0.33313
1389.42	0.333588
1390.42	0.334015
1391.42	0.334442
1392.42	0.334869
1393.42	0.335297
1394.42	0.335724
1395.42	0.336121
1396.42	0.336548
1397.42	0.336945
1398.42	0.337372
1399.42	0.337799
1400.42	0.338196
1401.42	0.338623
1402.42	0.33905
1403.42	0.339478
1404.42	0.339874
1405.42	0.340302
1406.42	0.340698
1407.42	0.341125
1408.42	0.341522
1409.42	0.341919
1410.42	0.342316
1411.42	0.342743
1412.42	0.343109
1413.42	0.343536
1414.42	0.343903
1415.42	0.344299
1416.42	0.344696
1417.42	0.345062
1418.42	0.345428
1419.42	0.345825
1420.42	0.346191
1421.42	0.346558
1422.42	0.346924
1423.42	0.34729
1424.42	0.347656
1425.42	0.348022
1426.42	0.348389
1427.42	0.348724
1428.42	0.349091
1429.42	0.349426
1430.42	0.349792
1431.42	0.350098
1432.42	0.350433
1433.42	0.3508
1434.42	0.351105
1435.42	0.351471
1436.42	0.351776
1437.42	0.352081
1438.42	0.352417
1439.42	0.352722
1440.42	0.353027
1441.42	0.353333
1442.42	0.353638
1443.42	0.353943
1444.42	0.354248
1445.42	0.354553
1446.42	0.354858
1447.42	0.355133
1448.42	0.355438
1449.42	0.355743
1450.42	0.356018
1451.42	0.356293
1452.42	0.356598
1453.42	0.356873
1454.42	0.357147
1455.42	0.357422
1456.42	0.357697
1457.42	0.357971
1458.42	0.358246
1459.42	0.35849
1460.42	0.358734
1461.42	0.359009
1462.42	0.359253
1463.42	0.359497
1464.42	0.359772
1465.42	0.360016
1466.42	0.360291
1467.42	0.360535
1468.42	0.360779
1469.42	0.361023
1470.42	0.361267
1471.42	0.361481
1472.42	0.361694
1473.42	0.361938
1474.42	0.362183
1475.42	0.362396
1476.42	0.36264
1477.42	0.362854
1478.42	0.363068
1479.42	0.363312
1480.42	0.363495
1481.42	0.363708
1482.42	0.363922
1483.42	0.364136
1484.42	0.364288
1485.42	0.364502
1486.42	0.364716
1487.42	0.364899
1488.42	0.365112
1489.42	0.365295
1490.42	0.365509
1491.42	0.365692
1492.42	0.365875
1493.42	0.366089
1494.42	0.366272
1495.42	0.366455
1496.42	0.366638
1497.42	0.366821
1498.42	0.367004
1499.42	0.3671875
1500.42	0.367371
1501.42	0.367554
1502.42	0.367706
1503.42	0.367889
1504.42	0.368073
1505.42	0.368225
1506.42	0.368408
1507.42	0.368591
1508.42	0.368744
1509.42	0.368927
1510.42	0.36908
1511.42	0.369263
1512.42	0.369415
1513.42	0.369568
1514.42	0.369751
1515.42	0.369904
1516.42	0.370056
1517.42	0.370239
1518.42	0.370392
1519.42	0.370514
1520.42	0.370697
1521.42	0.37085
1522.42	0.371002
1523.42	0.371155
1524.42	0.371307
1525.42	0.37146
1526.42	0.371613
1527.42	0.371735
1528.42	0.371857
1529.42	0.372009
1530.42	0.372162
1531.42	0.372314
1532.42	0.372467
1533.42	0.372589
1534.42	0.372711
1535.42	0.372864
1536.42	0.372986
1537.42	0.373108
1538.42	0.37326
1539.42	0.373413
1540.42	0.373535
1541.42	0.373688
1542.42	0.37381
1543.42	0.373962
1544.42	0.374084
1545.42	0.374207
1546.42	0.374329
1547.42	0.374451
1548.42	0.374603
1549.42	0.374725
1550.42	0.374847
1551.42	0.374969
1552.42	0.375092
1553.42	0.375214
1554.42	0.375336
1555.42	0.375427
1556.42	0.37558
1557.42	0.375702
1558.42	0.375824
1559.42	0.375946
1560.42	0.376068
1561.42	0.37619
1562.42	0.376312
1563.42	0.376404
1564.42	0.376526
1565.42	0.376648
1566.42	0.37677
1567.42	0.376862
1568.42	0.376984
1569.42	0.377106
1570.42	0.377197
1571.42	0.377319
1572.42	0.377411
1573.42	0.377533
1574.42	0.377655
1575.42	0.377747
1576.42	0.377869
1577.42	0.377991
1578.42	0.378082
1579.42	0.378204
1580.42	0.378296
1581.42	0.378418
1582.42	0.37851
1583.42	0.378632
1584.42	0.378723
1585.42	0.378815
1586.42	0.378937
1587.42	0.379028
1588.42	0.37912
1589.42	0.379211
1590.42	0.379333
1591.42	0.379425
1592.42	0.379547
1593.42	0.379639
1594.42	0.379761
1595.42	0.379852
1596.42	0.379944
1597.42	0.380066
1598.42	0.380157
1599.42	0.380249
1600.42	0.380371
1601.42	0.380463
1602.42	0.380554
1603.42	0.380646
1604.42	0.380768
1605.42	0.380859
1606.42	0.380951
1607.42	0.381042
1608.42	0.381134
1609.42	0.381226
1610.42	0.381287
1611.42	0.381378
1612.42	0.38147
1613.42	0.381561
1614.42	0.381653
1615.42	0.381744
1616.42	0.381805
1617.42	0.381897
1618.42	0.381989
1619.42	0.38208
1620.42	0.382172
1621.42	0.382294
1622.42	0.382355
1623.42	0.382446
1624.42	0.382538
1625.42	0.382629
1626.42	0.382721
1627.42	0.382782
1628.42	0.382904
1629.42	0.382996
1630.42	0.383057
1631.42	0.383148
1632.42	0.38324
1633.42	0.383331
1634.42	0.383423
1635.42	0.383514
1636.42	0.383606
1637.42	0.383667
1638.42	0.383759
1639.42	0.38385
1640.42	0.383911
1641.42	0.384003
1642.42	0.384064
1643.42	0.384155
1644.42	0.384247
1645.42	0.384338
1646.42	0.38443
1647.42	0.384521
1648.42	0.384583
1649.42	0.384674
1650.42	0.384766
1651.42	0.384827
1652.42	0.384888
1653.42	0.384979
1654.42	0.38504
1655.42	0.385132
1656.42	0.385223
1657.42	0.385315
1658.42	0.385376
1659.42	0.385468
1660.42	0.385529
1661.42	0.38562
1662.42	0.385681
1663.42	0.385773
1664.42	0.385834
1665.42	0.385925
1666.42	0.385986