File: Edgar/20240515/20240515/EC_measurements/Sample_20240502_B/CV/data/CV_1
Time (s)	Scan	WE(1).Potential (V)	WE(1).Current (A)	External(1).External 2 (V)	Q+	Q-
531.331	1	0.127411	9.49371e-07	4.01917
531.697	1	0.133728	4.05579e-06	4.09729
532.063	1	0.127106	-2.78839e-06	4.07837
532.429	1	0.120087	-4.79736e-06	4.07837
532.795	1	0.11261	-6.14624e-06	4.19586
533.162	1	0.105682	-7.46155e-06	4.1571
533.528	1	0.0974731	-8.85925e-06	4.01947
533.894	1	0.0907288	-1.03668e-05	4.0979
534.26	1	0.083374	-1.20239e-05	4.05792
534.626	1	0.076416	-1.3797e-05	4.07715
534.993	1	0.0683899	-1.56952e-05	4.17572
535.359	1	0.0614319	-1.7749e-05	4.01886
535.725	1	0.0545349	-1.99188e-05	4.13696
536.091	1	0.0462646	-2.21802e-05	4.05823
536.457	1	0.0427979	-2.45514e-05	4.03961
536.824	1	0.0357208	-2.69958e-05	4.05853
537.19	1	0.0277924	-2.95624e-05	3.98102
537.556	1	0.020694	-3.22876e-05	4.00024
537.922	1	0.0126617	-3.50067e-05	4.17603
538.289	1	0.00635071	-3.77899e-05	3.94165
538.655	1	-0.000912476	-4.06525e-05	3.98071
539.021	1	-0.00855408	-4.35242e-05	4.01978
539.387	1	-0.0157806	-4.64661e-05	4.05884
539.753	1	-0.0229584	-4.9469e-05	3.94257
540.12	1	-0.0309174	-5.24902e-05	4.01978
540.486	1	-0.0381836	-5.5542e-05	4.00055
540.852	1	-0.0443359	-5.859375E-05	0.999969
541.218	1	-0.0549927	-6.1676e-05	3.98071
541.584	1	-0.0633545	-6.47583e-05	4.01978
541.951	1	-0.0698242	-6.78406e-05	3.94257
542.317	1	-0.0774231	-7.08923e-05	4.13666
542.683	1	-0.0848999	-7.38831e-05	3.96149
543.049	1	-0.0913391	-7.67822e-05	3.92212
543.415	1	-0.099762	-7.96204e-05	4.05853
543.782	1	-0.106079	-8.23059e-05	3.94196
544.148	1	-0.114197	-8.48694e-05	4.02008
544.514	1	-0.120697	-8.71887e-05	3.98132
544.88	1	-0.127991	-8.93555e-05	3.98102
545.246	1	-0.135315	-9.13086e-05	3.92212
545.613	1	-0.142944	-9.29565e-05	3.94226
545.979	1	-0.150604	-9.43298e-05	3.98102
546.345	1	-0.157684	-9.53979e-05	3.90167
546.711	1	-0.164948	-9.60999e-05	3.98102
547.078	1	-0.171844	-9.64661e-05	3.90289
547.444	1	-0.178741	-9.65576e-05	3.72223
547.81	1	-0.187225	-9.6344e-05	3.94226
548.176	1	-0.193848	-9.58862e-05	3.96118
548.542	1	-0.200867	-9.52148e-05	3.88336
548.909	1	-0.209137	-9.44214e-05	3.92242
549.275	1	-0.216461	-9.35059e-05	3.90259
549.641	1	-0.222839	-9.25903e-05	3.82507
550.007	1	-0.231018	-9.16443e-05	3.90289
550.373	1	-0.23764	-9.07593e-05	3.96179
550.74	1	-0.244751	-8.98743e-05	3.88275
551.106	1	-0.252594	-8.90808e-05	3.84399
551.472	1	-0.259705	-8.83789e-05	3.86292
551.838	1	-0.266663	-8.77686e-05	3.92212
552.204	1	-0.274292	-8.72498e-05	3.78601
552.571	1	-0.281952	-8.68225e-05	3.96088
552.937	1	-0.289337	-8.65173e-05	3.7616
553.303	1	-0.296783	-8.63037e-05	3.82477
553.669	1	-0.303467	-8.61816e-05	3.8443
554.036	1	-0.311249	-8.61816e-05	3.82477
554.402	1	-0.317841	-8.63342e-05	3.72223
554.768	1	-0.325317	-8.65173e-05	3.76129
555.134	1	-0.333191	-8.6792e-05	3.7616
555.5	1	-0.339813	-8.72192e-05	3.74207
555.867	1	-0.347748	-8.7738e-05	3.84491
556.233	1	-0.355011	-8.83789e-05	3.7616
556.599	1	-0.361359	-8.91113e-05	3.68378
556.965	1	-0.369781	-9.00269e-05	3.74237
557.331	1	-0.376953	-9.10339e-05	3.74207
557.698	1	-0.383362	-9.21936e-05	3.80585
558.064	1	-0.390656	-9.34753e-05	3.80585
558.43	1	-0.398865	-9.48486e-05	3.68439
558.796	1	-0.405243	-9.6344e-05	3.68378
559.162	1	-0.4133	-9.79614e-05	3.72223
559.529	1	-0.420746	-9.96399e-05	3.58582
559.895	1	-0.426971	-0.00010141	3.56598
560.261	1	-0.43454	-0.00010321	3.72253
560.627	1	-0.442688	-0.000105072	3.60504
560.994	1	-0.449036	-0.000107025	3.58582
561.36	1	-0.456268	-0.000109009	3.70361
561.726	1	-0.464478	-0.000111023	3.50769
562.092	1	-0.470978	-0.000113068	3.6261
562.458	1	-0.478149	-0.000115143	3.46832
562.825	1	-0.48645	-0.00011731	3.60474
563.191	1	-0.493713	-0.000119476	3.58612
563.557	1	-0.500153	-0.000121735	3.48846
563.923	1	-0.498688	-0.000100494	3.56659
564.289	1	-0.49057	-7.36084e-05	3.54614
564.656	1	-0.483917	-5.13611e-05	3.58612
565.022	1	-0.476105	-3.24249e-05	3.46863
565.388	1	-0.46875	-1.61224e-05	3.48816
565.754	1	-0.462006	-1.89667e-06	3.48694
566.12	1	-0.453857	1.05469e-05	3.50739
566.487	1	-0.447479	2.15363e-05	3.48816
566.853	1	-0.440216	3.12225e-05	3.6261
567.219	1	-0.432861	3.97675e-05	3.54614
567.585	1	-0.424713	4.73297e-05	3.46832
567.952	1	-0.417847	5.40161e-05	3.64471
568.318	1	-0.410645	5.99365e-05	3.44788
568.684	1	-0.403717	6.51245e-05	3.56598
569.05	1	-0.396484	6.97021e-05	3.56628
569.416	1	-0.388214	7.37e-05	3.50769
569.783	1	-0.381256	7.72095e-05	3.6441
570.149	1	-0.374512	8.02002e-05	3.62549
570.515	1	-0.366608	8.28247e-05	3.66455
570.881	1	-0.358887	8.5022e-05	3.58582
571.247	1	-0.351715	8.68225e-05	3.60535
571.614	1	-0.34552	8.83484e-05	3.60565
571.98	1	-0.337952	8.95081e-05	3.72284
572.346	1	-0.329987	9.03931e-05	3.6264
572.712	1	-0.322632	9.09729e-05	3.72223
573.078	1	-0.315277	9.12476e-05	3.7027
573.445	1	-0.308746	9.13391e-05	3.72253
573.811	1	-0.300537	9.1095e-05	3.7027
574.177	1	-0.293945	9.06677e-05	3.66455
574.543	1	-0.286774	8.99658e-05	3.68347
574.91	1	-0.279205	8.91113e-05	3.7027
575.276	1	-0.271942	8.81042e-05	3.66364
575.642	1	-0.264221	8.70361e-05	3.84399
576.008	1	-0.256805	8.5907e-05	3.68317
576.374	1	-0.246704	8.47778e-05	0.999969
576.741	1	-0.24234	8.36487e-05	3.84399
577.107	1	-0.235809	8.26111e-05	3.66425
577.473	1	-0.227692	8.1665e-05	3.82446
577.839	1	-0.220856	8.07495e-05	3.74207
578.205	1	-0.213104	7.99866e-05	3.74268
578.572	1	-0.20636	7.92847e-05	3.76099
578.938	1	-0.198639	7.86743e-05	3.76068
579.304	1	-0.191986	7.81555e-05	3.8446
579.67	1	-0.184753	7.77283e-05	3.76129
580.036	1	-0.17691	7.73621e-05	3.78571
580.403	1	-0.169983	7.70569e-05	3.80554
580.769	1	-0.161987	7.68738e-05	3.74207
581.135	1	-0.155457	7.67212e-05	3.88245
581.501	1	-0.147644	7.66907e-05	3.8443
581.867	1	-0.140961	7.66907e-05	3.94165
582.234	1	-0.133148	7.68433e-05	3.74176
582.6	1	-0.126373	7.70264e-05	3.88336
582.966	1	-0.118103	7.72705e-05	3.90259
583.332	1	-0.110901	7.76062e-05	3.90259
583.699	1	-0.103851	7.79724e-05	3.96118
584.065	1	-0.0971069	7.84302e-05	3.90259
584.431	1	-0.0899658	7.89185e-05	3.90259
584.797	1	-0.0826721	7.94067e-05	4.039
585.163	1	-0.0744934	7.99255e-05	3.94165
585.53	1	-0.0673523	8.04138e-05	3.98102
585.896	1	-0.0603027	8.08411e-05	3.92181
586.262	1	-0.0505951	8.12073e-05	3.88245
586.628	1	-0.0431152	8.14819e-05	3.92212
586.994	1	-0.0353577	8.1665e-05	3.90259
587.361	1	-0.028299	8.17566e-05	3.86383
587.727	1	-0.0205902	8.17261e-05	3.8443
588.093	1	-0.0134918	8.16345e-05	3.92212
588.459	1	-0.00595093	8.14209e-05	3.92181
588.825	1	0.000662231	8.11768e-05	3.99963
589.192	1	0.00836182	8.08411e-05	3.98041
589.558	1	0.0160217	8.04138e-05	4.05914
589.924	1	0.0230255	7.9895e-05	3.94226
590.29	1	0.0304169	7.92542e-05	4.01978
590.657	1	0.0375854	7.83691e-05	3.88367
591.023	1	0.0445099	7.7179e-05	3.98102
591.389	1	0.0496521	7.56531e-05	4.05853
591.755	1	0.0561829	7.36389e-05	3.96118
592.121	1	0.0635681	7.10754e-05	3.94165
592.488	1	0.0714111	6.78711e-05	4.00024
592.854	1	0.0783997	6.40259e-05	3.98071
593.22	1	0.0856018	5.94177e-05	4.05823
593.586	1	0.0924072	5.41077e-05	4.0979
593.952	1	0.0997009	4.8172e-05	4.11713
594.319	1	0.107422	4.17328e-05	4.05853
594.685	1	0.115082	3.50891e-05	3.99994
595.051	1	0.121582	2.86713e-05	4.02008
595.417	2	0.129272	2.28546e-05	4.11713
595.783	2	0.136536	1.79657e-05	3.98041
596.15	2	0.143738	1.41266e-05	3.92181
596.516	2	0.151978	1.12305e-05	3.96149
596.882	2	0.158081	9.07593e-06	4.05884
597.248	2	0.165863	7.46765e-06	3.98102
597.615	2	0.173004	6.36902e-06	4.03809
597.981	2	0.180878	5.44739e-06	4.03839
598.347	2	0.188202	4.74548e-06	4.0387
598.713	2	0.194702	4.19312e-06	4.05823
599.079	2	0.201904	3.75885e-06	3.94104
599.446	2	0.209564	3.39355e-06	4.07776
599.812	2	0.216766	3.09265e-06	4.03839
600.178	2	0.224518	2.83569e-06	3.98071
600.544	2	0.23111	2.63458e-06	4.05853
600.91	2	0.239349	2.46948e-06	4.05853
601.277	2	0.246033	2.3288e-06	4.01886
601.643	2	0.253296	2.19391e-06	4.05823
602.009	2	0.261078	2.06665e-06	4.0979
602.375	2	0.267609	1.96503e-06	4.0979
602.741	2	0.275543	1.86829e-06	4.09698
603.108	2	0.282318	1.79871e-06	4.05823
603.474	2	0.290009	1.71967e-06	3.98071
603.84	2	0.296997	1.62628e-06	4.05823
604.206	2	0.304352	1.54022e-06	4.0387
604.573	2	0.312286	1.44531e-06	3.96118
604.939	2	0.319092	1.37421e-06	4.13635
605.305	2	0.326721	1.27441e-06	4.09729
605.671	2	0.334106	1.18622e-06	4.03961
606.037	2	0.340668	1.12122e-06	4.01947
606.404	2	0.348145	1.06598e-06	4.07806
606.77	2	0.356049	1.01898e-06	4.039
607.136	2	0.362732	9.86023e-07	3.98071
607.502	2	0.370361	9.62219e-07	3.98041
607.868	2	0.377686	9.64661e-07	3.94196
608.235	2	0.384888	9.54895e-07	3.99902
608.601	2	0.391541	9.30481e-07	4.09698
608.967	2	0.398834	9.1156e-07	4.0976
609.333	2	0.406586	8.88367e-07	4.11621
609.699	2	0.414398	8.66699e-07	4.07715
610.066	2	0.420929	8.43201e-07	4.05792
610.432	2	0.428131	8.1543e-07	3.9212
610.798	2	0.435394	7.91626e-07	4.11713
611.164	2	0.443329	7.8125E-07	4.00024
611.531	2	0.450134	7.73621e-07	4.11713
611.897	2	0.457428	7.70569e-07	4.11652
612.263	2	0.465179	7.58667e-07	4.07745
612.629	2	0.472504	7.47375e-07	3.94073
612.995	2	0.479462	7.33643e-07	4.07745
613.362	2	0.48645	7.2113e-07	4.19495
613.728	2	0.494171	6.96411e-07	3.94165
614.094	2	0.501617	6.63757e-07	3.96118
614.46	2	0.508301	6.47888e-07	4.07745
614.826	2	0.516205	6.41785e-07	4.11682
615.193	2	0.523224	6.43311e-07	4.05792
615.559	2	0.530151	6.427e-07	4.05762
615.925	2	0.538452	6.53687e-07	4.09698
616.291	2	0.545197	6.69861e-07	4.11652
616.657	2	0.552765	6.7749e-07	4.05792
617.024	2	0.559875	6.68335e-07	4.0387
617.39	2	0.567596	6.61926e-07	4.13605
617.756	2	0.574341	6.55823e-07	4.01886
618.122	2	0.581299	6.54907e-07	4.05823
618.488	2	0.588837	6.57959e-07	4.05762
618.855	2	0.59668	6.63757e-07	4.01825
619.221	2	0.604095	6.71387e-07	4.13666
619.587	2	0.61087	6.90308e-07	4.07776
619.953	2	0.618378	7.14111e-07	3.99994
620.32	2	0.625031	7.16553e-07	4.21417
620.686	2	0.632416	7.14111e-07	3.96088
621.052	2	0.640076	7.08618e-07	3.99963
621.418	2	0.647797	6.97937e-07	3.99963
621.784	2	0.654022	6.78711e-07	4.13635
622.151	2	0.662262	6.61926e-07	4.07715
622.517	2	0.669464	6.61621e-07	4.05823
622.883	2	0.676147	6.66504e-07	4.05792
623.249	2	0.683289	6.68335e-07	4.03778
623.615	2	0.691162	6.67419e-07	4.1748
623.982	2	0.698486	6.60706e-07	4.01886
624.348	2	0.705292	6.53992e-07	3.9212
624.714	2	0.713257	6.40564e-07	4.11652
625.08	2	0.720612	6.20422e-07	4.07715
625.446	2	0.727509	5.96313e-07	4.09729
625.813	2	0.734711	5.896e-07	4.11621
626.179	2	0.742035	5.89294e-07	4.01855
626.545	2	0.748901	5.91736e-07	3.9801
626.911	2	0.75592	5.9906e-07	4.17511
627.278	2	0.763855	6.08215e-07	4.03809
627.644	2	0.770874	6.25305e-07	4.13605
628.01	2	0.778198	6.40564e-07	4.01855
628.376	2	0.785828	6.44226e-07	4.21448
628.742	2	0.791931	6.46057e-07	4.07745
629.109	2	0.800781	6.44531e-07	4.07715
629.475	2	0.808105	6.46057e-07	4.07654
629.841	2	0.814514	6.51855e-07	3.96057
630.207	2	0.822754	6.64368e-07	4.03748
630.573	2	0.828857	6.78406e-07	3.94135
630.94	2	0.836182	7.00989e-07	4.11682
631.306	2	0.843811	7.27844e-07	4.07745
631.672	2	0.851135	7.40356e-07	4.03809
632.038	2	0.858765	7.46765e-07	4.09668
632.404	2	0.864868	7.49512e-07	4.07684
632.771	2	0.873413	7.45544e-07	4.07684
633.137	2	0.881348	7.4585e-07	4.11652
633.503	2	0.887756	7.29065e-07	4.11652
633.869	2	0.895691	7.30286e-07	4.01794
634.236	2	0.901794	7.35779e-07	4.09637
634.602	2	0.910339	7.41577e-07	4.05792
634.968	2	0.916443	7.48291e-07	4.1748
635.334	2	0.924683	7.49817e-07	3.99872
635.7	2	0.930481	7.4707e-07	4.19434
636.067	2	0.939331	7.40051e-07	3.97919
636.433	2	0.94635	7.20215e-07	4.01764
636.799	2	0.954285	6.96411e-07	2.77313
637.165	2	0.960999	6.95496e-07	4.03809
637.531	2	0.968628	6.96411e-07	3.99872
637.898	2	0.975647	7.0282e-07	3.94104
638.264	2	0.982666	7.09534e-07	4.11621
638.63	2	0.989685	7.23267e-07	4.05762
638.996	2	0.992126	6.82373e-07	4.01794
639.362	2	0.985718	5.9021e-07	3.94012
639.729	2	0.978394	5.19714e-07	4.05762
640.095	2	0.971375	4.65088e-07	4.01825
640.461	2	0.96344	4.21143e-07	4.01855
640.827	2	0.956116	3.86963e-07	4.05731
641.194	2	0.948181	3.68347e-07	4.09668
641.56	2	0.941772	3.49731e-07	4.11591
641.926	2	0.934448	3.35999e-07	4.11591
642.292	2	0.927124	3.31726e-07	4.03778
642.658	2	0.919189	3.41797e-07	3.99902
643.025	2	0.91217	3.28979e-07	4.05701
643.391	2	0.905457	3.15552e-07	4.11621
643.757	2	0.898132	2.96021e-07	4.09637
644.123	2	0.889893	2.76489e-07	4.07684
644.489	2	0.883789	2.49634e-07	4.01886
644.856	2	0.875549	2.2522e-07	4.13605
645.222	2	0.86792	2.20947e-07	4.21387
645.588	2	0.85968	2.15149e-07	3.95966
645.954	2	0.854187	2.07214e-07	3.94073
646.32	2	0.846863	1.95618e-07	4.05731
646.687	2	0.838623	1.78833e-07	4.07654
647.053	2	0.831604	1.66016e-07	4.03778
647.419	2	0.82489	1.40991e-07	4.09637
647.785	2	0.818176	1.14136e-07	4.07715
648.152	2	0.809631	9.33838e-08	4.01886
648.518	2	0.802307	8.8501e-08	4.01794
648.884	2	0.795288	8.36182e-08	4.09729
649.25	2	0.787964	8.66699e-08	4.01886
649.616	2	0.78125	9.21631e-08	4.0387
649.983	2	0.773926	1.09253e-07	4.03809
650.349	2	0.765076	1.07727e-07	4.07715
650.715	2	0.758057	1.01318e-07	4.03748
651.081	2	0.750122	9.18579e-08	4.07715
651.447	2	0.743713	9.39941e-08	3.8623
651.814	2	0.737701	9.06372e-08	4.07715
652.18	2	0.729797	9.8877e-08	4.01886
652.546	2	0.722778	1.06812e-07	3.99872
652.912	2	0.715546	1.18408e-07	4.15619
653.278	2	0.708496	1.46179e-07	4.05731
653.645	2	0.700745	1.43433e-07	4.07745
654.011	2	0.693024	1.40381e-07	4.15558
654.377	2	0.686188	1.33057e-07	4.00024
654.743	2	0.679413	1.19019e-07	4.0387
655.109	2	0.671356	9.67407e-08	4.15588
655.476	2	0.663971	9.18884e-08	4.05823
655.842	2	0.656799	9.44214e-08	4.09668
656.208	2	0.650238	9.2804e-08	3.9801
656.574	2	0.642914	8.8501e-08	4.07776
656.941	2	0.634857	8.09937e-08	4.07745
657.307	2	0.628296	7.00378e-08	4.19434
657.673	2	0.620575	4.89197e-08	4.11682
658.039	2	0.613678	2.50854e-08	4.03748
658.405	2	0.606384	7.62939e-10	4.01917
658.772	2	0.598694	5.49316e-10	4.15588
659.138	2	0.591766	4.27246e-10	4.09698
659.504	2	0.58371	-2.34985e-09	4.039
659.87	2	0.577209	8.23975e-09	4.11682
660.236	2	0.570007	2.37427e-08	3.9801
660.603	2	0.562714	2.97546e-08	3.98071
660.969	2	0.554871	2.43225e-08	4.15558
661.335	2	0.548279	1.97144e-08	4.15619
661.701	2	0.540009	1.13525e-08	4.07715
662.067	2	0.533386	1.16272e-08	4.05823
662.434	2	0.525269	1.64795e-08	4.17572
662.8	2	0.518066	2.56653e-08	4.0387
663.166	2	0.511627	3.72009e-08	4.11621
663.532	2	0.503143	5.82275e-08	4.13574
663.899	2	0.496582	7.09229e-08	4.09729
664.265	2	0.489197	6.60706e-08	4.07745
664.631	2	0.481903	5.8197e-08	4.09729
664.997	2	0.474335	5.06287e-08	3.94104
665.363	2	0.46698	3.1189e-08	4.05792
665.73	2	0.460297	2.22778e-09	4.039
666.096	2	0.453186	-4.30298e-09	3.98041
666.462	2	0.445831	-9.18579e-09	4.13666
666.828	2	0.438171	-1.16272e-08	4.07745
667.194	2	0.430756	-1.70898e-08	4.0976
667.561	2	0.423584	-2.83813e-08	3.94165
667.927	2	0.41629	-4.67224e-08	4.07776
668.293	2	0.409332	-7.04651e-08	4.09729
668.659	2	0.401642	-1.02722e-07	4.0387
669.025	2	0.394073	-1.29059e-07	4.03931
669.392	2	0.387634	-1.39435e-07	4.0979
669.758	2	0.380493	-1.42853e-07	4.0387
670.124	2	0.372986	-1.5152e-07	4.11682
670.49	2	0.365845	-1.53625e-07	4.05792
670.857	2	0.358276	-1.42181e-07	4.11774
671.223	2	0.351013	-1.52466e-07	4.07745
671.589	2	0.343445	-1.69617e-07	4.07776
671.955	2	0.336304	-1.8866e-07	4.13635
672.321	2	0.329315	-2.15485e-07	4.01855
672.688	2	0.321075	-2.36847e-07	4.07776
673.054	2	0.314667	-2.56012e-07	4.0976
673.42	2	0.307007	-2.88696e-07	3.94196
673.786	2	0.299744	-3.10059e-07	4.11682
674.152	2	0.292816	-3.43628e-07	4.05853
674.519	2	0.285492	-4.02832e-07	4.03809
674.885	2	0.277893	-4.70886e-07	4.07684
675.251	2	0.270172	-5.65491e-07	4.13666
675.617	2	0.262726	-6.68945e-07	4.01886
675.983	2	0.256012	-7.83386e-07	4.07806
676.35	2	0.249115	-8.99048e-07	3.96118
676.716	2	0.241394	-1.00555e-06	4.11774
677.082	2	0.233521	-1.11298e-06	4.05823
677.448	2	0.226715	-1.22314e-06	3.96057
677.815	2	0.219391	-1.33392e-06	4.01947
678.181	2	0.212341	-1.45782e-06	4.07837
678.547	2	0.205109	-1.59485e-06	4.05853
678.913	2	0.198029	-1.75934e-06	4.039
679.279	2	0.190613	-1.91284e-06	4.07745
679.646	2	0.183105	-2.099e-06	3.98041
680.012	2	0.176086	-2.31476e-06	4.11713
680.378	2	0.167816	-2.58545e-06	4.1571
680.744	2	0.161438	-2.91687e-06	3.96149
681.11	2	0.153229	-3.36761e-06	4.13605
681.477	2	0.150787	-3.90961e-06	0.481689
681.843	2	0.139465	-4.59595e-06	3.97949
682.209	2	0.131592	-5.3833e-06	4.05792
682.575	2	0.124176	-6.28967e-06	4.05853
682.941	2	0.117615	-7.34253e-06	4.05884
683.308	2	0.109955	-8.51135e-06	4.09821
683.674	2	0.10257	-9.88464e-06	4.05823
684.04	2	0.0950317	-1.14075e-05	4.01886
684.406	2	0.0884399	-1.30585e-05	4.11774
684.773	2	0.0805969	-1.48651e-05	4.02008
685.139	2	0.0737	-1.68121e-05	4.03931
685.505	2	0.0665588	-1.88416e-05	4.07806
685.871	2	0.0625916	-2.09991e-05	0.467377
686.237	2	0.0516663	-2.32605e-05	4.03931
686.604	2	0.0474609	-2.565e-05	4.07867
686.97	2	0.0402008	-2.81067e-05	4.1568
687.336	2	0.0321808	-3.06427e-05	4.07837
687.702	2	0.0253235	-3.33771e-05	4.01978
688.068	2	0.0185577	-3.60657e-05	3.96149
688.435	2	0.011261	-3.87726e-05	4.07898
688.801	2	0.00348816	-4.15375e-05	4.07745
689.167	2	-0.00364685	-4.4339e-05	4.03961
689.533	2	-0.0116791	-4.71649e-05	4.13727
689.899	2	-0.018045	-5.00793e-05	4.03961
690.266	2	-0.0252014	-5.3009e-05	4.03931
690.632	2	-0.0334839	-5.59082e-05	3.98132
690.998	2	-0.0403503	-5.88379e-05	4.13635
691.364	2	-0.0478607	-6.17676e-05	4.01947
691.73	2	-0.0583801	-6.46973e-05	4.039
692.097	2	-0.0648804	-6.75964e-05	3.96179
692.463	2	-0.072052	-7.04651e-05	4.03961
692.829	2	-0.0796509	-7.32727e-05	4.03961
693.195	2	-0.0865479	-7.59888e-05	3.96149
693.562	2	-0.093811	-7.85522e-05	3.82477
693.928	2	-0.10199	-8.10242e-05	4.03931
694.294	2	-0.108978	-8.32825e-05	3.88306
694.66	2	-0.115906	-8.53271e-05	3.98102
695.026	2	-0.123291	-8.71277e-05	4.02008
695.393	2	-0.13089	-8.87451e-05	4.11774
695.759	2	-0.138428	-9.01184e-05	4.03931
696.125	2	-0.145844	-9.12476e-05	3.90198
696.491	2	-0.15271	-9.21326e-05	3.92212
696.857	2	-0.160522	-9.27124e-05	4.00055
697.224	2	-0.16687	-9.29871e-05	3.8446
697.59	2	-0.174805	-9.30481e-05	4.03992
697.956	2	-0.181915	-9.2865e-05	3.98041
698.322	2	-0.188904	-9.24377e-05	3.94104
698.688	2	-0.197083	-9.18579e-05	4.01947
699.055	2	-0.203857	-9.1156e-05	3.88397
699.421	2	-0.211578	-9.03931e-05	3.86383
699.787	2	-0.218048	-8.96301e-05	3.92273
700.153	2	-0.22525	-8.88367e-05	3.82477
700.52	2	-0.233185	-8.80737e-05	3.86383
700.886	2	-0.240051	-8.73413e-05	3.92181
701.252	2	-0.24707	-8.66699e-05	3.92242
701.618	2	-0.255005	-8.60596e-05	3.88336
701.984	2	-0.261688	-8.55408e-05	3.86414
702.351	2	-0.269836	-8.51135e-05	3.88336
702.717	2	-0.276581	-8.47778e-05	3.82385
703.083	2	-0.284119	-8.45642e-05	3.76129
703.449	2	-0.291718	-8.44116e-05	3.88306
703.815	2	-0.298218	-8.43811e-05	3.78601
704.182	2	-0.305573	-8.43811e-05	3.78601
704.548	2	-0.313782	-8.45032e-05	3.86414
704.914	2	-0.320068	-8.47168e-05	3.72223
705.28	2	-0.327515	-8.49915e-05	3.72223
705.646	2	-0.33548	-8.53882e-05	3.82477
706.013	2	-0.342133	-8.58765e-05	3.72253
706.379	2	-0.349487	-8.64868e-05	3.92212
706.745	2	-0.357361	-8.72192e-05	3.72284
707.111	2	-0.364868	-8.80432e-05	3.80585
707.478	2	-0.37149	-8.89587e-05	3.80615
707.844	2	-0.379425	-9.00269e-05	3.60504
708.21	2	-0.386139	-9.11865e-05	3.78632
708.576	2	-0.393555	-9.24988e-05	3.82507
708.942	2	-0.401062	-9.38416e-05	3.68286
709.309	2	-0.407959	-9.53674e-05	3.72284
709.675	2	-0.415802	-9.69849e-05	3.62579
710.041	2	-0.423157	-9.86633e-05	3.64502
710.407	2	-0.429596	-0.000100433	3.72284
710.773	2	-0.437866	-0.000102203	3.64471
711.14	2	-0.444763	-0.000104065	3.68378
711.506	2	-0.451569	-0.000106018	3.64471
711.872	2	-0.459686	-0.000107941	3.74237
712.238	2	-0.466614	-0.000109955	3.60504
712.604	2	-0.474365	-0.000112	3.64471
712.971	2	-0.481445	-0.000114136	3.62549
713.337	2	-0.488037	-0.000116302	3.54675
713.703	2	-0.496246	-0.00011853	3.64502
714.069	2	-0.503265	-0.000120819	3.58551
714.436	2	-0.495331	-8.9325e-05	3.62579
714.802	2	-0.487976	-6.427e-05	3.54706
715.168	2	-0.481628	-4.33319e-05	3.58612
715.534	2	-0.47345	-2.54761e-05	3.58582
715.9	2	-0.466034	-1.00372e-05	3.44849
716.267	2	-0.459717	3.42712e-06	3.58551
716.633	2	-0.451691	1.52191e-05	3.54706
716.999	2	-0.444794	2.56348e-05	3.54645
717.365	2	-0.437073	3.4787e-05	3.68378
717.731	2	-0.429657	4.2865e-05	3.52692
718.098	2	-0.422943	5.00183e-05	3.46863
718.464	2	-0.415039	5.63354e-05	3.64502
718.83	2	-0.408325	6.19507e-05	3.66455
719.196	2	-0.401093	6.68335e-05	3.52722
719.562	2	-0.393738	7.11365e-05	3.54706
719.929	2	-0.385986	7.49207e-05	3.48785
720.295	2	-0.377899	7.8186e-05	0.67688
720.661	2	-0.372009	8.10242e-05	3.58551
721.027	2	-0.364105	8.34656e-05	3.58643
721.394	2	-0.357361	8.55103e-05	3.70361
721.76	2	-0.349243	8.71887e-05	3.64471
722.126	2	-0.342865	8.85925e-05	3.66425
722.492	2	-0.334869	8.96606e-05	3.62518
722.858	2	-0.327606	9.04236e-05	3.62427
723.225	2	-0.320404	9.08813e-05	3.74146
723.591	2	-0.312744	9.11255e-05	3.68347
723.957	2	-0.306213	9.09729e-05	3.76099
724.323	2	-0.298187	9.06372e-05	3.8443
724.689	2	-0.290833	9.00574e-05	3.72192
725.056	2	-0.284241	8.92944e-05	3.76099
725.422	2	-0.276855	8.84094e-05	3.68286
725.788	2	-0.269745	8.74023e-05	3.76129
726.154	2	-0.261902	8.63037e-05	3.66333
726.52	2	-0.254639	8.52356e-05	3.78601
726.887	2	-0.247314	8.41064e-05	3.74176
727.253	2	-0.240082	8.30383e-05	3.72253
727.619	2	-0.233246	8.203125E-05	3.72223
727.985	2	-0.225555	8.11157e-05	3.78571
728.351	2	-0.218597	8.02612e-05	3.74207
728.718	2	-0.210693	7.95288e-05	3.82477
729.084	2	-0.203613	7.88879e-05	3.84399
729.45	2	-0.196259	7.83081e-05	3.82477
729.816	2	-0.189545	7.78503e-05	3.8446
730.183	2	-0.181458	7.75146e-05	3.82416
730.549	2	-0.174225	7.72095e-05	3.74146
730.915	2	-0.166992	7.69653e-05	3.86322
731.281	2	-0.159454	7.68127e-05	3.8443
731.647	2	-0.152283	7.67212e-05	3.86292
732.014	2	-0.145935	7.67517e-05	3.80554
732.38	2	-0.137665	7.68433e-05	3.98102
732.746	2	-0.130859	7.69958e-05	3.90289
733.112	2	-0.123718	7.724e-05	3.84399
733.478	2	-0.115936	7.75146e-05	3.90259
733.845	2	-0.109314	7.78809e-05	3.84369
734.211	2	-0.102142	7.82776e-05	3.8443
734.577	2	-0.0944824	7.87048e-05	3.88367
734.943	2	-0.0872803	7.91931e-05	3.98041
735.309	2	-0.0798645	7.96814e-05	3.90228
735.676	2	-0.0725403	8.02002e-05	3.88336
736.042	2	-0.0658264	8.0658e-05	3.92181
736.408	2	-0.0582886	8.10547e-05	4.0387
736.774	2	-0.0475159	8.13599e-05	3.9621
737.141	2	-0.0405853	8.15735e-05	3.80585
737.507	2	-0.0336365	8.1665e-05	4.02008
737.873	2	-0.0259949	8.1665e-05	3.99994
738.239	2	-0.018634	8.1543e-05	3.90228
738.605	2	-0.0114258	8.13293e-05	3.92151
738.972	2	-0.00333557	8.10852e-05	3.96149
739.338	2	0.00297852	8.07495e-05	4.01917
739.704	2	0.010321	8.04138e-05	3.92212
740.07	2	0.0176056	7.99561e-05	3.96149
740.436	2	0.0248535	7.94373e-05	3.96149
740.803	2	0.0324432	7.87659e-05	4.13727
741.169	2	0.0398651	7.78198e-05	4.09851
741.535	2	0.0472076	7.65686e-05	4.039
741.901	2	0.0517883	7.49512e-05	4.05853
742.267	2	0.0585632	7.28149e-05	3.99994
742.634	2	0.0662537	7.01294e-05	4.07867
743	2	0.0732117	6.67725e-05	4.00024
743.366	2	0.0806274	6.27747e-05	4.039
743.732	2	0.0882568	5.80139e-05	3.92212
744.099	2	0.09552	5.25818e-05	3.98071
744.465	2	0.102936	4.65332e-05	4.0979
744.831	2	0.110107	4.00879e-05	3.98102
745.197	2	0.116852	3.35266e-05	4.03992
745.563	2	0.125092	2.7298e-05	4.01917
745.93	3	0.132233	2.17163e-05	4.01886
746.296	3	0.139404	1.70929e-05	4.13696
746.662	3	0.146912	1.3443e-05	4.05914
747.028	3	0.153961	1.0672e-05	4.15649
747.394	3	0.16153	8.61816e-06	4.05853
747.761	3	0.168732	7.17468e-06	4.11743
748.127	3	0.175812	5.99976e-06	4.15588
748.493	3	0.182404	5.11475e-06	4.15558
748.859	3	0.190643	4.45557e-06	4.19525
749.225	3	0.197998	3.94897e-06	4.11743
749.592	3	0.204468	3.5614e-06	4.19495
749.958	3	0.211639	3.25745e-06	4.13666
750.324	3	0.219818	2.99469e-06	4.0979
750.69	3	0.226288	2.76642e-06	4.0979
751.057	3	0.23349	2.55554e-06	3.9801
751.423	3	0.241272	2.37305e-06	4.13635
751.789	3	0.249054	2.21649e-06	4.11743
752.155	3	0.255341	2.09015e-06	4.0976
752.521	3	0.263123	1.98364e-06	4.07806
752.888	3	0.269989	1.89392e-06	4.11774
753.254	3	0.277496	1.8277e-06	4.01886
753.62	3	0.284973	1.73645e-06	3.94073
753.986	3	0.292633	1.65131e-06	3.94165
754.352	3	0.30011	1.56891e-06	4.15619
754.719	3	0.306335	1.48712e-06	4.05823
755.085	3	0.313904	1.40778e-06	4.07776
755.451	3	0.321045	1.34399e-06	4.11652
755.817	3	0.329071	1.29517e-06	4.039
756.183	3	0.336365	1.25183e-06	4.01886
756.55	3	0.342987	1.21002e-06	4.0387
756.916	3	0.350983	1.16394e-06	3.96149
757.282	3	0.358368	1.11694e-06	4.0387
757.648	3	0.364716	1.07544e-06	4.21509
758.015	3	0.372986	1.02356e-06	4.11713
758.381	3	0.379852	9.74731e-07	4.11682
758.747	3	0.387695	9.42383e-07	3.98041
759.113	3	0.394867	9.21631e-07	4.05884
759.479	3	0.401398	9.06982e-07	4.05823
759.846	3	0.408813	9.10339e-07	4.13635
760.212	3	0.416473	8.98743e-07	4.039
760.578	3	0.423218	9.06372e-07	4.039
760.944	3	0.43045	9.06982e-07	4.11713
761.31	3	0.438446	8.95081e-07	4.07776
761.677	3	0.445496	8.78296e-07	3.99963
762.043	3	0.452332	8.70361e-07	4.09729
762.409	3	0.460205	8.60291e-07	4.19495
762.775	3	0.467346	8.48083e-07	4.17511
763.141	3	0.474731	8.45947e-07	4.11743
763.508	3	0.482269	8.44116e-07	4.13635
763.874	3	0.489594	8.47473e-07	4.11713
764.24	3	0.496918	8.49915e-07	4.13666
764.606	3	0.503571	8.59985e-07	4.13635
764.972	3	0.510529	8.77075e-07	4.05823
765.339	3	0.518005	8.8562e-07	4.03839
765.705	3	0.526154	8.7738e-07	4.03778
766.071	3	0.533539	8.74023e-07	4.039
766.437	3	0.539795	8.62122e-07	4.07776
766.804	3	0.548096	8.51135e-07	4.15558
767.17	3	0.555328	8.30078e-07	4.03839
767.536	3	0.561981	8.14819e-07	4.0979
767.902	3	0.569427	7.91626e-07	4.07745
768.268	3	0.577271	7.70264e-07	4.17511
768.635	3	0.583984	7.58972e-07	4.03809
769.001	3	0.591003	7.51953e-07	4.0979
769.367	3	0.598694	7.38831e-07	3.99902
769.733	3	0.606384	7.22656e-07	4.07684
770.099	3	0.613556	7.06482e-07	3.99933
770.466	3	0.619934	6.96106e-07	4.13666
770.832	3	0.62738	6.81763e-07	4.05731
771.198	3	0.635406	6.65283e-07	4.07776
771.564	3	0.642853	6.44836e-07	4.01825
771.93	3	0.650299	6.1676e-07	4.05792
772.297	3	0.657104	5.88074e-07	4.01947
772.663	3	0.663879	5.7373e-07	4.1748
773.029	3	0.671356	5.5603e-07	3.99933
773.395	3	0.679291	5.51453e-07	4.01886
773.762	3	0.686554	5.46875E-07	4.13605
774.128	3	0.693573	5.46265e-07	4.11652
774.494	3	0.700958	5.4657e-07	3.95996
774.86	3	0.708038	5.56335e-07	4.03778
775.226	3	0.715057	5.59387e-07	4.15558
775.593	3	0.7229	5.52368e-07	4.25354
775.959	3	0.730469	5.44434e-07	4.13635
776.325	3	0.736908	5.35889e-07	4.05792
776.691	3	0.744324	5.30396e-07	4.05731
777.057	3	0.751648	5.24292e-07	4.03809
777.424	3	0.759888	5.24902e-07	4.07715
777.79	3	0.766602	5.27344e-07	4.05823
778.156	3	0.77301	5.29175e-07	4.09698
778.522	3	0.780029	5.39246e-07	4.11652
778.888	3	0.787964	5.49927e-07	4.09698
779.255	3	0.796204	5.67627e-07	4.13574
779.621	3	0.802917	5.67932e-07	3.96088
779.987	3	0.809937	5.77393e-07	4.05731
780.353	3	0.817261	5.67627e-07	4.13574
780.72	3	0.824585	5.67322e-07	4.13635
781.086	3	0.831604	5.59387e-07	4.05701
781.452	3	0.838928	5.50537e-07	4.07776
781.818	3	0.846863	5.44739e-07	4.0387
782.184	3	0.854492	5.3833e-07	4.03778
782.551	3	0.860901	5.24597e-07	4.13605
782.917	3	0.868835	5.27344e-07	4.09729
783.283	3	0.875854	5.29785e-07	4.11621
783.649	3	0.882568	5.32837e-07	4.13544
784.015	3	0.889587	5.3894e-07	4.07745
784.382	3	0.898132	5.40466e-07	4.09637
784.748	3	0.904846	5.43213e-07	4.05762
785.114	3	0.91217	5.49316e-07	4.1748
785.48	3	0.9198	5.48096e-07	4.03717
785.846	3	0.926514	5.49316e-07	4.11652
786.213	3	0.934753	5.53284e-07	4.19403
786.579	3	0.941162	5.50232e-07	4.11652
786.945	3	0.949402	5.50537e-07	4.13574
787.311	3	0.956726	5.3894e-07	4.15527
787.678	3	0.963135	5.31616e-07	4.11652
788.044	3	0.971069	5.32837e-07	3.96088
788.41	3	0.978699	5.40771e-07	4.01794
788.776	3	0.985718	5.4657e-07	3.97949
789.142	3	0.992432	5.5542e-07	4.13544
789.509	3	0.991211	4.70581e-07	4.09698
789.875	3	0.983276	4.08936e-07	4.03778
790.241	3	0.975037	3.75977e-07	4.15527
790.607	3	0.968323	3.479e-07	4.07654
790.973	3	0.961304	3.29285e-07	4.00482
791.34	3	0.953369	3.02734e-07	4.07715
791.706	3	0.946045	2.80457e-07	4.01794
792.072	3	0.938721	2.61536e-07	4.07715
792.438	3	0.932312	2.38953e-07	4.11652
792.804	3	0.924683	2.20642e-07	4.15619
793.171	3	0.917664	2.13318e-07	4.01917
793.537	3	0.908813	2.02637e-07	4.09698
793.903	3	0.90332	1.98669e-07	4.15497
794.269	3	0.894775	1.98059e-07	4.17542
794.636	3	0.888367	2.06604e-07	4.13605
795.002	3	0.880432	2.22168e-07	4.11621
795.368	3	0.872803	2.20032e-07	4.07776
795.734	3	0.865784	2.13928e-07	4.03809
796.1	3	0.858154	2.04773e-07	4.09729
796.467	3	0.852051	1.93481e-07	4.07623
796.833	3	0.843201	1.76086e-07	4.13666
797.199	3	0.835571	1.57471e-07	4.05762
797.565	3	0.830078	1.48315e-07	4.03809
797.931	3	0.822449	1.40991e-07	4.15527
798.298	3	0.814209	1.3855e-07	3.9798
798.664	3	0.806885	1.37939e-07	4.15527
799.03	3	0.799866	1.32141e-07	4.07684
799.396	3	0.793457	1.21155e-07	4.09698
799.762	3	0.786133	1.1261e-07	4.09698
800.129	3	0.777893	1.02844e-07	4.09668
800.495	3	0.770874	7.93457e-08	4.09729
800.861	3	0.763245	5.82886e-08	4.2334
801.227	3	0.757141	4.05884e-08	4.11652
801.593	3	0.748291	3.20435e-08	3.90137
801.96	3	0.741852	3.02124e-08	4.05792
802.326	3	0.735229	3.17383e-08	4.15588
802.692	3	0.727905	4.06189e-08	4.1748
803.058	3	0.719818	5.63965e-08	4.13574
803.425	3	0.712616	6.09131e-08	4.15497
803.791	3	0.705383	5.9021e-08	4.19495
804.157	3	0.698517	5.38025e-08	4.01886
804.523	3	0.690796	4.84924e-08	3.96027
804.889	3	0.684235	4.23584e-08	4.05731
805.256	3	0.676178	3.60413e-08	4.05731
805.622	3	0.669739	4.11682e-08	4.11652
805.988	3	0.66153	4.74548e-08	4.07715
806.354	3	0.654633	4.61426e-08	4.11713
806.72	3	0.647552	5.82886e-08	4.15527
807.087	3	0.639801	7.50427e-08	4.13605
807.453	3	0.632721	9.67712e-08	4.05731
807.819	3	0.625153	1.0141e-07	4.01886
808.185	3	0.618561	9.90906e-08	4.05792
808.551	3	0.610382	9.57642e-08	3.94104
808.918	3	0.603455	9.021e-08	4.09698
809.284	3	0.595947	7.75757e-08	4.0979
809.65	3	0.588623	6.82678e-08	4.09698
810.016	3	0.581604	5.24902e-08	4.07745
810.383	3	0.574829	4.03442e-08	4.01886
810.749	3	0.567627	4.19922e-08	3.98041
811.115	3	0.560272	4.47693e-08	3.9798
811.481	3	0.552032	4.06189e-08	4.07684
811.847	3	0.545654	4.05884e-08	4.11713
812.214	3	0.537842	3.69873e-08	4.11713
812.58	3	0.530701	2.14539e-08	4.07684
812.946	3	0.52356	1.19629e-08	4.15588
813.312	3	0.515594	-8.45337e-09	4.11713
813.678	3	0.509155	-3.28674e-08	4.13605
814.045	3	0.50119	-5.59387e-08	3.98041
814.411	3	0.494019	-6.29272e-08	4.13635
814.777	3	0.486664	-6.69556e-08	4.19464
815.143	3	0.479553	-6.74438e-08	4.05823
815.509	3	0.472015	-6.7688e-08	3.90167
815.876	3	0.465515	-6.54602e-08	3.96027
816.242	3	0.458282	-6.13403e-08	3.9801
816.608	3	0.450928	-5.15442e-08	4.05792
816.974	3	0.443573	-5.41077e-08	4.13635
817.341	3	0.43576	-5.84412e-08	4.13635
817.707	3	0.428802	-6.84814e-08	4.07806
818.073	3	0.421082	-7.74841e-08	4.11682
818.439	3	0.414215	-8.83789e-08	4.11682
818.805	3	0.407074	-8.63037e-08	4.0979
819.172	3	0.399261	-8.54797e-08	4.13635
819.538	3	0.391846	-8.60596e-08	4.05792
819.904	3	0.385193	-7.62634e-08	4.23401
820.27	3	0.376923	-6.14014e-08	4.039
820.636	3	0.370758	-5.69153e-08	3.98071
821.003	3	0.363129	-6.46667e-08	4.0387
821.369	3	0.355438	-7.98035e-08	4.05792
821.735	3	0.348145	-9.80835e-08	4.13666
822.101	3	0.340668	-1.14105e-07	4.07806
822.467	3	0.333221	-1.42212e-07	4.19403
822.834	3	0.325958	-1.85944e-07	4.09729
823.2	3	0.319641	-2.23236e-07	4.01947
823.566	3	0.31134	-2.58789e-07	4.15649
823.932	3	0.304108	-2.95715e-07	4.13605
824.299	3	0.297333	-3.42102e-07	4.15649
824.665	3	0.289429	-3.93372e-07	4.17603
825.031	3	0.282715	-4.57458e-07	4.00055
825.397	3	0.275452	-5.32532e-07	3.9801
825.763	3	0.267639	-6.17676e-07	4.09729
826.13	3	0.260284	-7.04956e-07	4.13727
826.496	3	0.253906	-8.02002e-07	4.03839
826.862	3	0.24588	-9.1095e-07	4.039
827.228	3	0.238861	-1.01532e-06	4.05853
827.594	3	0.231262	-1.11633e-06	3.96057
827.961	3	0.223907	-1.21307e-06	4.05792
828.327	3	0.216919	-1.30493e-06	3.96088
828.693	3	0.209259	-1.39832e-06	4.0387
829.059	3	0.202148	-1.50635e-06	4.07776
829.425	3	0.194672	-1.62964e-06	4.01917
829.792	3	0.187286	-1.78314e-06	4.09729
830.158	3	0.18103	-1.9754e-06	4.039
830.524	3	0.172821	-2.21313e-06	4.05792
830.89	3	0.165619	-2.53174e-06	4.11743
831.257	3	0.158142	-2.93945e-06	4.05823
831.623	3	0.150787	-3.44086e-06	4.13666
831.989	3	0.14444	-4.04663e-06	4.05853
832.355	3	0.136292	-4.79736e-06	4.11682
832.721	3	0.129059	-5.67322e-06	4.0979
833.088	3	0.121857	-6.6803e-06	4.13696
833.454	3	0.114288	-7.83691e-06	4.05792
833.82	3	0.107544	-9.13391e-06	4.07745
834.186	3	0.100403	-1.05682e-05	4.05884
834.552	3	0.0924377	-1.21674e-05	4.19556
834.919	3	0.0861206	-1.38763e-05	4.07837
835.285	3	0.0788269	-1.57135e-05	4.17572
835.651	3	0.0710449	-1.76819e-05	4.07776
836.017	3	0.0635071	-1.97571e-05	4.01917
836.383	3	0.0569458	-2.19391e-05	4.01947
836.75	3	0.0493774	-2.42523e-05	4.05762
837.116	3	0.0444641	-2.66571e-05	4.02008
837.482	3	0.0373444	-2.91168e-05	4.0979
837.848	3	0.0306519	-3.17657e-05	4.0979
838.214	3	0.0225281	-3.44116e-05	4.07776
838.581	3	0.0154419	-3.71063e-05	4.01947
838.947	3	0.00784302	-3.98529e-05	4.05914
839.313	3	0.000994873	-4.26453e-05	4.03961
839.679	3	-0.00636292	-4.54651e-05	4.17572
840.046	3	-0.0132568	-4.83093e-05	4.09821
840.412	3	-0.0207855	-5.1239e-05	4.01917
840.778	3	-0.0287933	-5.41077e-05	3.98132
841.144	3	-0.0357056	-5.70374e-05	4.00055
841.51	3	-0.0432983	-5.99365e-05	4.05823
841.877	3	-0.0499481	-6.28662e-05	4.1568
842.243	3	-0.060791	-6.57959e-05	3.98102
842.609	3	-0.0681458	-6.86951e-05	4.03839
842.975	3	-0.0753174	-7.15027e-05	3.94196
843.341	3	-0.0827026	-7.42798e-05	4.05853
843.708	3	-0.0900269	-7.69043e-05	3.96118
844.074	3	-0.097168	-7.93762e-05	4.00024
844.44	3	-0.104218	-8.16956e-05	3.98071
844.806	3	-0.111908	-8.38013e-05	3.98071
845.172	3	-0.119019	-8.56934e-05	4.03839
845.539	3	-0.125671	-8.73413e-05	3.98041
845.905	3	-0.132782	-8.88062e-05	3.88275
846.271	3	-0.140228	-9.00269e-05	3.96149
846.637	3	-0.148407	-9.09729e-05	3.92181
847.004	3	-0.155579	-9.16748e-05	3.88306
847.37	3	-0.161987	-9.20715e-05	3.92242
847.736	3	-0.169281	-9.22546e-05	3.88214
848.102	3	-0.177063	-9.21936e-05	3.96118
848.468	3	-0.184814	-9.19495e-05	3.96088
848.835	3	-0.192078	-9.14917e-05	4.05853
849.201	3	-0.198547	-9.08813e-05	3.98102
849.567	3	-0.205719	-9.021e-05	3.90259
849.933	3	-0.213684	-8.94775e-05	3.92212
850.299	3	-0.221191	-8.87146e-05	3.8443
850.666	3	-0.227844	-8.79517e-05	3.88306
851.032	3	-0.235077	-8.72192e-05	3.90228
851.398	3	-0.242706	-8.65479e-05	3.82477
851.764	3	-0.250244	-8.5907e-05	3.94226
852.13	3	-0.257538	-8.53577e-05	3.94196
852.497	3	-0.264526	-8.48999e-05	3.88306
852.863	3	-0.272369	-8.45337e-05	3.76099
853.229	3	-0.279327	-8.42285e-05	3.76129
853.595	3	-0.286224	-8.40149e-05	3.8446
853.962	3	-0.29422	-8.39233e-05	3.86353
854.328	3	-0.300598	-8.39233e-05	3.74176
854.694	3	-0.308167	-8.39844e-05	3.82477
855.06	3	-0.315369	-8.4198e-05	3.8446
855.426	3	-0.322937	-8.44116e-05	3.74115
855.793	3	-0.330017	-8.46863e-05	3.82507
856.159	3	-0.337524	-8.51135e-05	3.76099
856.525	3	-0.344391	-8.56323e-05	3.7616
856.891	3	-0.352509	-8.62732e-05	3.78601
857.257	3	-0.359863	-8.69751e-05	3.7616
857.624	3	-0.36731	-8.78296e-05	3.78632
857.99	3	-0.374725	-8.88367e-05	3.88336
858.356	3	-0.381714	-8.99353e-05	3.78632
858.722	3	-0.388733	-9.11255e-05	3.70331
859.088	3	-0.396027	-9.24377e-05	3.82507
859.455	3	-0.403748	-9.38416e-05	3.76129
859.821	3	-0.410797	-9.53369e-05	3.74176
860.187	3	-0.417908	-9.69238e-05	3.76129
860.553	3	-0.425018	-9.86023e-05	3.64502
860.92	3	-0.432159	-0.000100342	3.66364
861.286	3	-0.43985	-0.000102112	3.60535
861.652	3	-0.447266	-0.000103943	3.64471
862.018	3	-0.45459	-0.000105896	3.74146
862.384	3	-0.462006	-0.000107849	3.54675
862.751	3	-0.469391	-0.000109863	3.72314
863.117	3	-0.47641	-0.000111938	3.62488
863.483	3	-0.483368	-0.000114044	3.58612
863.849	3	-0.491058	-0.000116211	3.60474
864.215	3	-0.497894	-0.000118408	3.56567
864.582	3	-0.500793	-0.000108429	3.54736
864.948	3	-0.492798	-7.96509e-05	3.54675
865.314	3	-0.485687	-5.62134e-05	3.60535
865.68	3	-0.478271	-3.64594e-05	3.58521
866.046	3	-0.471802	-1.9519e-05	3.62549
866.413	3	-0.464539	-4.83093e-06	3.60474
866.779	3	-0.456879	7.97119e-06	3.62518
867.145	3	-0.449188	1.93176e-05	3.58582
867.511	3	-0.441895	2.92206e-05	3.56598
867.878	3	-0.435242	3.78632e-05	3.54675
868.244	3	-0.427704	4.55292e-05	3.60565
868.61	3	-0.419952	5.23071e-05	3.44818
868.976	3	-0.413177	5.82581e-05	3.40942
869.342	3	-0.405334	6.35681e-05	3.68378
869.709	3	-0.397888	6.82068e-05	3.58551
870.075	3	-0.391418	7.22656e-05	3.64532
870.441	3	-0.38382	7.58057e-05	3.58551
870.807	3	-0.376373	7.88879e-05	3.52661
871.173	3	-0.369751	8.1543e-05	3.703
871.54	3	-0.361664	8.38013e-05	3.52661
871.906	3	-0.354675	8.56934e-05	3.66455
872.272	3	-0.347229	8.72192e-05	3.68317
872.638	3	-0.340302	8.84399e-05	3.5849
873.004	3	-0.332825	8.9386e-05	3.6261
873.371	3	-0.325867	8.99963e-05	3.64441
873.737	3	-0.31839	9.03625e-05	3.64441
874.103	3	-0.311188	9.05151e-05	3.66455
874.469	3	-0.30304	9.0332e-05	3.72223
874.835	3	-0.296448	8.99353e-05	3.72223
875.202	3	-0.289459	8.93555e-05	3.70331
875.568	3	-0.281708	8.85925e-05	3.703
875.934	3	-0.27417	8.76465e-05	3.72223
876.3	3	-0.267242	8.66699e-05	3.72284
876.667	3	-0.260345	8.56323e-05	3.8446
877.033	3	-0.252869	8.45642e-05	3.76099
877.399	3	-0.24527	8.35266e-05	3.82477
877.765	3	-0.237671	8.25195e-05	3.70239
878.131	3	-0.230621	8.1604e-05	3.92212
878.498	3	-0.22287	8.07495e-05	3.90198
878.864	3	-0.215637	8.00171e-05	3.86353
879.23	3	-0.20813	7.93457e-05	3.86353
879.596	3	-0.201721	7.87354e-05	3.72162
879.962	3	-0.193848	7.8186e-05	3.74176
880.329	3	-0.186432	7.77588e-05	3.94165
880.695	3	-0.179047	7.73926e-05	3.8443
881.061	3	-0.171844	7.71179e-05	3.90228
881.427	3	-0.164948	7.69043e-05	3.88367
881.793	3	-0.157959	7.67517e-05	3.80524
882.16	3	-0.150024	7.67212e-05	3.90198
882.526	3	-0.142456	7.67517e-05	3.86353
882.892	3	-0.135101	7.68738e-05	3.86383
883.258	3	-0.128601	7.70264e-05	3.80554
883.625	3	-0.121094	7.724e-05	3.88245
883.991	3	-0.113739	7.75452e-05	3.80493
884.357	3	-0.106903	7.79114e-05	3.88275
884.723	3	-0.0995483	7.83386e-05	3.90259
885.089	3	-0.0917053	7.87964e-05	3.82507
885.456	3	-0.084137	7.92847e-05	3.92273
885.822	3	-0.0771484	7.97729e-05	3.96149
886.188	3	-0.0699768	8.02917e-05	3.94165
886.554	3	-0.0629883	8.0719e-05	3.86322
886.92	3	-0.0557861	8.11157e-05	3.86322
887.287	3	-0.0448334	8.14209e-05	3.96149
887.653	3	-0.0379974	8.15735e-05	3.94226
888.019	3	-0.0310913	8.1665e-05	3.98041
888.385	3	-0.0238281	8.16345e-05	3.92181
888.751	3	-0.0165253	8.14819e-05	4.00055
889.118	3	-0.00827942	8.12683e-05	4.01978
889.484	3	-0.00108643	8.09326e-05	4.03961
889.85	3	0.00643921	8.05969e-05	3.98071
890.216	3	0.0132629	8.01697e-05	4.05914
890.583	3	0.0206268	7.97119e-05	4.09821
890.949	3	0.0276978	7.91321e-05	4.03961
891.315	3	0.0350159	7.83997e-05	3.94226
891.681	3	0.0422485	7.73926e-05	4.00055
892.047	3	0.0463867	7.60498e-05	4.11743
892.414	3	0.0539551	7.42493e-05	3.9801
892.78	3	0.0608826	7.19299e-05	4.05853
893.146	3	0.0690308	6.89697e-05	3.96149
893.512	3	0.0762329	6.53687e-05	4.01947
893.878	3	0.0831909	6.10962e-05	4.19495
894.245	3	0.0905151	5.60913e-05	4.13696
894.611	3	0.0973816	5.04456e-05	4.00055
894.977	3	0.104797	4.42413e-05	4.03931
895.343	3	0.112457	3.7738e-05	4.01917
895.709	3	0.119659	3.12897e-05	4.01886
895.954	3	0.124878	2.71332e-05	3.9801