File: Edgar/20240515/20240515/EC_measurements/Sample_20240502_B/CV/data/CV_2
Time (s)	Scan	WE(1).Potential (V)	WE(1).Current (A)	Q+	Q-	External(1).External 2 (V)
896.223	1	0.126587	1.96075e-05			4.07745
896.589	1	0.134003	1.72852e-05			4.01978
896.955	1	0.127502	1.73187e-06			4.0979
897.321	1	0.120026	-3.98865e-06			4.15619
897.688	1	0.11203	-7.12891e-06			4.15588
898.054	1	0.105286	-9.44214e-06			4.13666
898.42	1	0.098053	-1.15479e-05			3.9801
898.786	1	0.0903015	-1.36047e-05			4.13727
899.152	1	0.0834961	-1.56921e-05			4.19525
899.519	1	0.0756531	-1.78497e-05			4.11713
899.885	1	0.068573	-2.00684e-05			4.13696
900.251	1	0.0613403	-2.23602e-05			4.01947
900.617	1	0.0544434	-2.47437e-05			4.11743
900.984	1	0.0470581	-2.71912e-05			4.0387
901.35	1	0.0422852	-2.9657e-05			4.09882
901.716	1	0.0354767	-3.22632e-05			4.15619
902.082	1	0.0278107	-3.48206e-05			4.11835
902.448	1	0.0207367	-3.73871e-05			4.039
902.815	1	0.0126984	-4.0036e-05			4.19495
903.181	1	0.00569458	-4.26636e-05			4.09851
903.547	1	-0.00192871	-4.534e-05			4.05853
903.913	1	-0.00912781	-4.80194e-05			4.03931
904.279	1	-0.0162323	-5.07202e-05			3.96179
904.646	1	-0.023053	-5.34363e-05			3.98071
905.012	1	-0.0310333	-5.61218e-05			4.05884
905.378	1	-0.0374969	-5.88379e-05			4.02008
905.744	1	-0.045871	-6.14929e-05			4.00085
906.11	1	-0.0549011	-6.41174e-05			3.94165
906.477	1	-0.063324	-6.67419e-05			4.0979
906.843	1	-0.0702515	-6.92444e-05			4.05884
907.209	1	-0.0778503	-7.17163e-05			4.13727
907.575	1	-0.0847168	-7.40356e-05			3.94196
907.941	1	-0.0922546	-7.62329e-05			3.94196
908.308	1	-0.0987549	-7.82776e-05			4.00055
908.674	1	-0.106232	-8.01697e-05			3.96118
909.04	1	-0.11322	-8.18481e-05			3.92212
909.406	1	-0.120819	-8.33435e-05			4.01978
909.773	1	-0.128876	-8.46863e-05			3.90228
910.139	1	-0.135468	-8.58765e-05			3.90228
910.505	1	-0.142609	-8.68225e-05			3.92212
910.871	1	-0.150757	-8.75854e-05			3.88336
911.237	1	-0.157013	-8.81348e-05			3.80524
911.604	1	-0.164398	-8.84094e-05			3.96149
911.97	1	-0.171661	-8.8501e-05			3.94196
912.336	1	-0.1796875	-8.83789e-05			4.02008
912.702	1	-0.18692	-8.81042e-05			3.96118
913.068	1	-0.194427	-8.7677e-05			3.96179
913.435	1	-0.201691	-8.71582e-05			3.90259
913.801	1	-0.208588	-8.66089e-05			3.92212
914.167	1	-0.216217	-8.59985e-05			3.90289
914.533	1	-0.223511	-8.54187e-05			3.88306
914.899	1	-0.230316	-8.48083e-05			4.00085
915.266	1	-0.238251	-8.4259e-05			3.98071
915.632	1	-0.245209	-8.37097e-05			3.92212
915.998	1	-0.252075	-8.32825e-05			3.82477
916.364	1	-0.259674	-8.29163e-05			3.8443
916.731	1	-0.266602	-8.26111e-05			3.90259
917.097	1	-0.274475	-8.2428e-05			3.8443
917.463	1	-0.28186	-8.22449e-05			3.8443
917.829	1	-0.28894	-8.21838e-05			3.74176
918.195	1	-0.296631	-8.21838e-05			3.72284
918.562	1	-0.302979	-8.22449e-05			3.82477
918.928	1	-0.310944	-8.23975e-05			3.86383
919.294	1	-0.318451	-8.26721e-05			3.74207
919.66	1	-0.325043	-8.30078e-05			3.88306
920.026	1	-0.332825	-8.34045e-05			3.84399
920.393	1	-0.340424	-8.39233e-05			3.78662
920.759	1	-0.346893	-8.45337e-05			3.78601
921.125	1	-0.355011	-8.51746e-05			3.68378
921.491	1	-0.362335	-8.5968e-05			3.80493
921.857	1	-0.369781	-8.6853e-05			3.82477
922.224	1	-0.376862	-8.78601e-05			3.72253
922.59	1	-0.383392	-8.89893e-05			3.70239
922.956	1	-0.39151	-9.021e-05			3.703
923.322	1	-0.39801	-9.15527e-05			3.64502
923.689	1	-0.405212	-9.29565e-05			3.74268
924.055	1	-0.413391	-9.45129e-05			3.7027
924.421	1	-0.420837	-9.60388e-05			3.74237
924.787	1	-0.427765	-9.77173e-05			3.70331
925.153	1	-0.435242	-9.94568e-05			3.66394
925.52	1	-0.442596	-0.000101288			3.66394
925.886	1	-0.449615	-0.000103149			3.66394
926.252	1	-0.456696	-0.000105072			3.64532
926.618	1	-0.464294	-0.000107025			3.72284
926.984	1	-0.471527	-0.000109009			3.54645
927.351	1	-0.47821	-0.000111053			3.62518
927.717	1	-0.486267	-0.000113159			3.66455
928.083	1	-0.493652	-0.000115326			3.64532
928.449	1	-0.500793	-0.000117584			3.54614
928.815	1	-0.508118	-0.000119843			3.52722
929.182	1	-0.515656	-0.000122162			3.66516
929.548	1	-0.522095	-0.000124573			3.60504
929.914	1	-0.530151	-0.000127075			3.56628
930.28	1	-0.53717	-0.0001297			3.60474
930.647	1	-0.5448	-0.000132446			3.48846
931.013	1	-0.551941	-0.000135315			3.40942
931.379	1	-0.559296	-0.000138275			3.46863
931.745	1	-0.565979	-0.000141327			3.38989
932.111	1	-0.571808	-0.000144531			0.431671
932.478	1	-0.581177	-0.000147827			3.40942
932.844	1	-0.587891	-0.000151184			3.46893
933.21	1	-0.595123	-0.000154755			3.31146
933.576	1	-0.602478	-0.000158447			3.38928
933.942	1	-0.595123	-0.000127655			3.35144
934.309	1	-0.587982	-0.000102631			3.35083
934.675	1	-0.581116	-8.12378e-05			3.48785
935.041	1	-0.573883	-6.25305e-05			3.3313
935.407	1	-0.565887	-4.59198e-05			3.37036
935.773	1	-0.558472	-3.11584e-05			3.29102
936.14	1	-0.551636	-1.78802e-05			3.27209
936.506	1	-0.544586	-5.9082e-06			3.31116
936.872	1	-0.536804	4.9469e-06			3.3902
937.238	1	-0.529694	1.49109e-05			3.3902
937.605	1	-0.522583	2.39777e-05			3.25287
937.971	1	-0.515137	3.22479e-05			3.37006
938.337	1	-0.507507	3.96912e-05			3.44727
938.703	1	-0.500458	4.66492e-05			3.35114
939.069	1	-0.493225	5.29785e-05			3.42926
939.436	1	-0.486237	5.87769e-05			3.46832
939.802	1	-0.478699	6.40869e-05			3.42896
940.168	1	-0.471405	6.89392e-05			3.42834
940.534	1	-0.464111	7.34253e-05			3.44849
940.9	1	-0.456451	7.75146e-05			3.44849
941.267	1	-0.449615	8.12683e-05			3.54675
941.633	1	-0.442566	8.46558e-05			3.40942
941.999	1	-0.434906	8.77075e-05			3.40881
942.365	1	-0.427277	9.04541e-05			3.52722
942.731	1	-0.420227	9.29565e-05			3.60504
943.098	1	-0.413422	9.51843e-05			3.44788
943.464	1	-0.405273	9.7229e-05			3.46924
943.83	1	-0.398376	9.8999e-05			3.62549
944.196	1	-0.390625	0.000100555			3.54614
944.562	1	-0.383423	0.000101868			3.52661
944.929	1	-0.37616	0.000102966			3.48785
945.295	1	-0.369202	0.000103821			3.66486
945.661	1	-0.361786	0.000104492			3.58551
946.027	1	-0.355042	0.00010495			3.58582
946.394	1	-0.346893	0.000105194			3.703
946.76	1	-0.340393	0.000105286			3.62457
947.126	1	-0.333069	0.000105164			3.64502
947.492	1	-0.325378	0.000104797			3.66394
947.858	1	-0.318512	0.000104248			3.64471
948.225	1	-0.31131	0.000103546			3.68317
948.591	1	-0.303192	0.00010257			3.60565
948.957	1	-0.296112	0.000101379			3.703
949.323	1	-0.289276	0.000100037			3.66455
949.689	1	-0.281799	9.85718e-05			3.60565
950.056	1	-0.27478	9.69543e-05			3.72192
950.422	1	-0.266693	9.52759e-05			3.76129
950.788	1	-0.260193	9.35364e-05			3.7027
951.154	1	-0.252899	9.17969e-05			3.72253
951.52	1	-0.245483	9.00879e-05			3.76099
951.887	1	-0.237427	8.84399e-05			3.86414
952.253	1	-0.230377	8.69446e-05			3.74146
952.619	1	-0.223297	8.56018e-05			3.72284
952.985	1	-0.21582	8.43201e-05			3.80493
953.352	1	-0.208893	8.32214e-05			3.92242
953.718	1	-0.200958	8.21838e-05			3.90167
954.084	1	-0.194458	8.12988e-05			3.88367
954.45	1	-0.187073	8.05359e-05			3.80432
954.816	1	-0.179169	7.99255e-05			3.90289
955.183	1	-0.172607	7.94373e-05			3.82446
955.549	1	-0.164734	7.90405e-05			3.88275
955.915	1	-0.157745	7.87659e-05			3.88275
956.281	1	-0.150696	7.85828e-05			3.90289
956.647	1	-0.142548	7.84607e-05			3.90228
957.014	1	-0.136047	7.84607e-05			3.8443
957.38	1	-0.128662	7.85217e-05			4.039
957.746	1	-0.121674	7.86438e-05			3.86353
958.112	1	-0.114044	7.88574e-05			3.92212
958.478	1	-0.106476	7.91626e-05			3.90289
958.845	1	-0.098877	7.95288e-05			3.86353
959.211	1	-0.092041	7.9895e-05			3.9801
959.577	1	-0.0841064	8.02917e-05			3.82446
959.943	1	-0.0777893	8.0719e-05			3.92212
960.31	1	-0.0706177	8.11157e-05			3.99933
960.676	1	-0.0626526	8.14819e-05			3.84369
961.042	1	-0.055481	8.17871e-05			4.05823
961.408	1	-0.0455627	8.20618e-05			3.98132
961.774	1	-0.0383514	8.21838e-05			3.94226
962.141	1	-0.0303894	8.22144e-05			4.0976
962.507	1	-0.0229889	8.21533e-05			4.05914
962.873	1	-0.0159668	8.20007e-05			4.03931
963.239	1	-0.00857239	8.17566e-05			3.90259
963.605	1	-0.00135803	8.14209e-05			3.96118
963.972	1	0.0053894	8.10852e-05			3.98071
964.338	1	0.0136932	8.0719e-05			3.96118
964.704	1	0.0209961	8.03223e-05			4.07837
965.07	1	0.0283386	7.9834e-05			4.0979
965.436	1	0.0355652	7.92236e-05			3.9801
965.803	1	0.0419922	7.83997e-05			4.03931
966.169	1	0.0466919	7.72705e-05			3.94196
966.535	1	0.0535583	7.57446e-05			4.01978
966.901	1	0.0616455	7.37305e-05			4.0387
967.268	1	0.0682678	7.11365e-05			3.94226
967.634	1	0.0763245	6.79626e-05			4.09821
968	1	0.0828247	6.41174e-05			4.05853
968.366	1	0.0910034	5.95703e-05			3.96118
968.732	1	0.0974426	5.43518e-05			4.0387
969.099	1	0.105591	4.85535e-05			4.03839
969.465	1	0.112091	4.22791e-05			4.07776
969.831	1	0.119141	3.58398e-05			3.9801
970.197	2	0.127258	2.9599e-05			4.17572
970.563	2	0.134552	2.388e-05			4.13635
970.93	2	0.141418	1.89941e-05			4.0387
971.296	2	0.148315	1.50665e-05			4.15588
971.662	2	0.155975	1.20575e-05			4.01947
972.028	2	0.163971	9.78394e-06			4.07806
972.394	2	0.170929	8.0658e-06			4.0387
972.761	2	0.178467	6.86951e-06			4.07745
973.127	2	0.184753	5.89294e-06			4.13696
973.493	2	0.192993	5.13306e-06			4.17542
973.859	2	0.199799	4.54407e-06			4.01886
974.226	2	0.206848	4.07715e-06			4.0979
974.592	2	0.214844	3.72955e-06			4.09698
974.958	2	0.221344	3.46069e-06			4.05792
975.324	2	0.229523	3.23425e-06			4.11713
975.69	2	0.235992	3.04565e-06			4.15588
976.057	2	0.244171	2.89856e-06			3.96088
976.423	2	0.250519	2.73834e-06			4.11713
976.789	2	0.2578125	2.59399e-06			4.13696
977.155	2	0.265015	2.4646e-06			4.07776
977.521	2	0.273071	2.34894e-06			3.98041
977.888	2	0.280182	2.26044e-06			4.11713
978.254	2	0.287933	2.1817e-06			4.15558
978.62	2	0.294617	2.11487e-06			4.13666
978.986	2	0.302246	2.06512e-06			4.11713
979.352	2	0.308868	2.02454e-06			4.17542
979.719	2	0.31723	1.96411e-06			4.07806
980.085	2	0.323822	1.90308e-06			4.05823
980.451	2	0.330933	1.84509e-06			4.11743
980.817	2	0.338867	1.78192e-06			4.05762
981.183	2	0.345398	1.70776e-06			4.09821
981.55	2	0.352753	1.66595e-06			4.13635
981.916	2	0.360046	1.63208e-06			4.11682
982.282	2	0.367798	1.59424e-06			4.2926
982.648	2	0.374512	1.56372e-06			3.9798
983.015	2	0.38266	1.52252e-06			4.11682
983.381	2	0.389893	1.48499e-06			4.15619
983.747	2	0.3974	1.45386e-06			4.13605
984.113	2	0.404816	1.40472e-06			3.98071
984.479	2	0.411835	1.3559e-06			3.99994
984.846	2	0.419281	1.33789e-06			4.15619
985.212	2	0.426514	1.31653e-06			4.13696
985.578	2	0.434021	1.30554e-06			4.05853
985.944	2	0.445496	1.2912e-06			0.485748
986.31	2	0.448486	1.29852e-06			4.11682
986.677	2	0.454803	1.29181e-06			4.07684
987.043	2	0.463135	1.28052e-06			4.11713
987.409	2	0.469513	1.26587e-06			4.21509
987.775	2	0.477112	1.25E-06			4.05792
988.141	2	0.484436	1.2442e-06			4.09729
988.508	2	0.491547	1.24207e-06			4.039
988.874	2	0.499512	1.24359e-06			4.0979
989.24	2	0.505768	1.24969e-06			4.03809
989.606	2	0.51413	1.26556e-06			4.11682
989.973	2	0.521393	1.28784e-06			4.07776
990.339	2	0.52771	1.28296e-06			4.07806
990.705	2	0.535248	1.26984e-06			4.11713
991.071	2	0.542786	1.25946e-06			4.03839
991.437	2	0.549988	1.24237e-06			4.13666
991.804	2	0.557312	1.21582e-06			4.09698
992.17	2	0.565216	1.20941e-06			3.98041
992.536	2	0.571625	1.20789e-06			4.13605
992.902	2	0.579193	1.20178e-06			4.11682
993.268	2	0.5867	1.19385e-06			4.0979
993.635	2	0.593689	1.17981e-06			4.13666
994.001	2	0.60083	1.16821e-06			4.05762
994.367	2	0.608887	1.14288e-06			4.15558
994.733	2	0.615479	1.10809e-06			4.03809
995.099	2	0.623444	1.08521e-06			4.13666
995.466	2	0.629852	1.08551e-06			4.05762
995.832	2	0.637665	1.07849e-06			4.0979
996.198	2	0.644501	1.08337e-06			4.0976
996.564	2	0.651733	1.0968e-06			4.19464
996.931	2	0.658997	1.0968e-06			4.11652
997.297	2	0.666931	1.09161e-06			4.21448
997.663	2	0.673492	1.08032e-06			4.13574
998.029	2	0.681091	1.06964e-06			4.15558
998.395	2	0.688782	1.06171e-06			4.07776
998.762	2	0.695526	1.06415e-06			4.15558
999.128	2	0.703461	1.06689e-06			4.05762
999.494	2	0.711121	1.08032e-06			3.94073
999.86	2	0.718109	1.10321e-06			4.07684
1000.23	2	0.725586	1.09741e-06			4.01855
1000.59	2	0.732635	1.08612e-06			4.17511
1000.96	2	0.739899	1.07086e-06			4.09729
1001.33	2	0.74707	1.04706e-06			4.07745
1001.69	2	0.752563	1.01349e-06			4.25293
1002.06	2	0.760803	9.90295e-07			4.05762
1002.42	2	0.767822	9.86633e-07			4.21387
1002.79	2	0.775452	9.70154e-07			4.1748
1003.16	2	0.783081	9.50623e-07			4.03839
1003.52	2	0.79071	9.33838e-07			4.09698
1003.89	2	0.797424	9.09119e-07			4.13544
1004.25	2	0.804443	8.85925e-07			4.07745
1004.62	2	0.813293	8.51135e-07			3.97919
1004.99	2	0.819702	8.19702e-07			4.13574
1005.35	2	0.826721	8.05359e-07			4.19495
1005.72	2	0.834961	7.97119e-07			4.21387
1006.09	2	0.84198	7.92236e-07			4.07745
1006.45	2	0.849304	7.92236e-07			4.15558
1006.82	2	0.856628	8.02307e-07			4.15558
1007.18	2	0.862732	7.91016e-07			4.13605
1007.55	2	0.870972	7.74231e-07			4.23401
1007.92	2	0.878906	7.60498e-07			4.11591
1008.28	2	0.885315	7.49512e-07			4.01825
1008.65	2	0.893555	7.45544e-07			4.09729
1009.02	2	0.900574	7.46765e-07			4.15497
1009.38	2	0.908203	7.51343e-07			3.99902
1009.75	2	0.914612	7.59583e-07			4.11652
1010.11	2	0.922546	7.74231e-07			4.15497
1010.48	2	0.928345	7.95593e-07			4.11713
1010.85	2	0.93689	7.95593e-07			4.0564
1011.21	2	0.944214	7.93457e-07			4.11591
1011.58	2	0.950928	7.88879e-07			4.11621
1011.95	2	0.959473	7.8125E-07			4.05762
1012.31	2	0.965271	7.64771e-07			4.11652
1012.68	2	0.974121	7.50427e-07			4.03839
1013.04	2	0.98114	7.52258e-07			4.13513
1013.41	2	0.987549	7.56531e-07			4.25293
1013.78	2	0.995483	7.59583e-07			4.21387
1014.14	2	0.987854	6.43005e-07			4.0567
1014.51	2	0.980835	5.78308e-07			3.99872
1014.87	2	0.973816	5.22156e-07			4.11621
1015.24	2	0.966492	4.76685e-07			4.07623
1015.61	2	0.957947	4.34875e-07			4.17572
1015.97	2	0.951843	3.84521e-07			4.09729
1016.34	2	0.944214	3.49426e-07			4.15497
1016.71	2	0.937195	3.25317e-07			4.13513
1017.07	2	0.929871	3.07617e-07			4.07684
1017.44	2	0.921326	2.91138e-07			4.13513
1017.8	2	0.915222	2.84119e-07			4.03778
1018.17	2	0.906372	2.82898e-07			4.13605
1018.54	2	0.900574	2.81372e-07			4.17511
1018.9	2	0.893555	2.69165e-07			4.05731
1019.27	2	0.88562	2.55737e-07			4.09668
1019.64	2	0.878601	2.40173e-07			4.05731
1020	2	0.870972	2.29187e-07			4.11652
1020.37	2	0.863342	2.21252e-07			4.11652
1020.73	2	0.856628	2.1759e-07			4.13696
1021.1	2	0.848694	2.12708e-07			4.17542
1021.47	2	0.840759	2.11487e-07			4.17542
1021.83	2	0.834045	2.17285e-07			4.13513
1022.2	2	0.827637	2.21863e-07			4.0979
1022.57	2	0.819092	2.42615e-07			4.25323
1022.93	2	0.811768	2.42615e-07			3.99902
1023.3	2	0.805359	2.4292e-07			4.1748
1023.66	2	0.796814	2.31323e-07			4.03778
1024.03	2	0.7901	2.2644e-07			4.13635
1024.4	2	0.782166	2.14844e-07			4.15527
1024.76	2	0.775757	1.9043e-07			4.19495
1025.13	2	0.767822	1.77612e-07			4.07654
1025.49	2	0.761414	1.71509e-07			4.17511
1025.86	2	0.753479	1.71509e-07			4.05701
1026.23	2	0.74585	1.68457e-07			4.09668
1026.59	2	0.740143	1.6449e-07			4.19525
1026.96	2	0.732239	1.55945e-07			4.09729
1027.33	2	0.724884	1.48621e-07			4.05762
1027.69	2	0.718109	1.36108e-07			4.01886
1028.06	2	0.710022	1.19324e-07			4.19464
1028.42	2	0.702637	9.765625E-08			4.19464
1028.79	2	0.695984	7.08008e-08			4.17511
1029.16	2	0.68808	5.95093e-08			4.11682
1029.52	2	0.681396	5.859375E-08			4.17542
1029.89	2	0.673981	6.13403e-08			4.01855
1030.26	2	0.66629	6.50024e-08			4.07715
1030.62	2	0.659241	7.72095e-08			4.07715
1030.99	2	0.652679	8.27026e-08			4.07776
1031.35	2	0.644592	7.93457e-08			4.01886
1031.72	2	0.637299	7.44629e-08			4.01825
1032.09	2	0.630768	6.71387e-08			3.98071
1032.45	2	0.622833	6.34766e-08			4.17542
1032.82	2	0.615173	6.50024e-08			4.13666
1033.19	2	0.608643	7.58057e-08			4.21448
1033.55	2	0.60144	8.42896e-08			4.13574
1033.92	2	0.594055	1.06537e-07			4.19434
1034.28	2	0.586121	1.27014e-07			4.11713
1034.65	2	0.579346	1.25854e-07			4.01947
1035.02	2	0.571381	1.18896e-07			4.15558
1035.38	2	0.564178	1.06354e-07			4.09698
1035.75	2	0.556854	8.48389e-08			4.17511
1036.11	2	0.550568	6.78406e-08			4.13635
1036.48	2	0.542694	6.43616e-08			4.07684
1036.85	2	0.535004	6.87866e-08			4.17511
1037.21	2	0.528625	6.13708e-08			4.13605
1037.58	2	0.521454	5.64575e-08			4.05792
1037.95	2	0.513306	4.26636e-08			4.05701
1038.31	2	0.505768	2.76489e-08			4.13605
1038.68	2	0.49884	6.34766e-09			4.17572
1039.04	2	0.49231	-2.71301e-08			4.13574
1039.41	2	0.4841	-3.95813e-08			4.17511
1039.78	2	0.476654	-4.29993e-08			4.13635
1040.14	2	0.470154	-4.19312e-08			4.07776
1040.51	2	0.462189	-3.68958e-08			4.21478
1040.88	2	0.455017	-2.21863e-08			4.11713
1041.24	2	0.448273	-2.005e-08			4.05762
1041.61	2	0.44101	-2.89307e-08			4.07776
1041.97	2	0.433075	-3.98865e-08			4.01947
1042.34	2	0.425598	-4.89807e-08			4.15497
1042.71	2	0.418793	-5.18799e-08			4.07776
1043.07	2	0.412048	-4.97437e-08			4.1748
1043.44	2	0.404449	-4.12598e-08			4.07715
1043.81	2	0.396851	-2.38037e-08			4.03839
1044.17	2	0.390015	-5.06592e-09			4.17542
1044.54	2	0.382568	-1.52588e-08			4.05792
1044.9	2	0.374634	-2.99377e-08			4.15558
1045.27	2	0.367981	-5.32227e-08			4.11713
1045.64	2	0.360474	-8.60596e-08			4.07776
1046	2	0.353546	-1.026e-07			4.15619
1046.37	2	0.345978	-1.1969e-07			4.03748
1046.74	2	0.338348	-1.36597e-07			4.05823
1047.1	2	0.331482	-1.55792e-07			4.05762
1047.47	2	0.323669	-1.922e-07			4.05823
1047.83	2	0.316132	-2.26379e-07			4.21387
1048.2	2	0.309814	-2.82135e-07			4.03839
1048.57	2	0.301849	-3.42194e-07			4.11774
1048.93	2	0.294434	-3.92456e-07			4.17572
1049.3	2	0.28714	-4.30298e-07			4.09729
1049.66	2	0.280029	-4.71497e-07			4.039
1050.03	2	0.273102	-5.08728e-07			4.05823
1050.4	2	0.265991	-5.49011e-07			4.25415
1050.76	2	0.258514	-6.09741e-07			4.13666
1051.13	2	0.250641	-6.78101e-07			4.05792
1051.5	2	0.243439	-7.47986e-07			4.19464
1051.86	2	0.235962	-8.10852e-07			4.21509
1052.23	2	0.229584	-8.7677e-07			4.15619
1052.59	2	0.222229	-9.4574e-07			4.19495
1052.96	2	0.214874	-1.01868e-06			4.0387
1053.33	2	0.20697	-1.09039e-06			4.07776
1053.69	2	0.199463	-1.20544e-06			4.0979
1054.06	2	0.193024	-1.35956e-06			4.19495
1054.43	2	0.18576	-1.5509e-06			4.11743
1054.79	2	0.17804	-1.80847e-06			4.05792
1055.16	2	0.171356	-2.13959e-06			4.05823
1055.52	2	0.163971	-2.51678e-06			4.13666
1055.89	2	0.156097	-2.99805e-06			4.15619
1056.26	2	0.14917	-3.58154e-06			4.15649
1056.62	2	0.141907	-4.296875E-06			4.13666
1056.99	2	0.134064	-5.15442e-06			4.19617
1057.36	2	0.127502	-6.15234e-06			4.03839
1057.72	2	0.120178	-7.2998e-06			4.07837
1058.09	2	0.112762	-8.57849e-06			4.0979
1058.45	2	0.105591	-1.00159e-05			4.07745
1058.82	2	0.0975037	-1.15601e-05			4.039
1059.19	2	0.0910645	-1.32446e-05			4.15619
1059.55	2	0.0836792	-1.50574e-05			4.13635
1059.92	2	0.0763855	-1.69586e-05			4.11774
1060.28	2	0.0686035	-1.8985e-05			4.19556
1060.65	2	0.0608215	-2.11487e-05			4.09729
1061.02	2	0.0538025	-2.3407e-05			4.07776
1061.38	2	0.0462036	-2.57477e-05			4.09821
1061.75	2	0.0425323	-2.81799e-05			3.96118
1062.12	2	0.0348877	-3.06549e-05			4.05914
1062.48	2	0.0277649	-3.3316e-05			4.09912
1062.85	2	0.0205597	-3.59497e-05			4.00024
1063.21	2	0.0129211	-3.86078e-05			4.11774
1063.58	2	0.0053833	-4.13269e-05			4.13666
1063.95	2	-0.00150452	-4.40887e-05			4.1568
1064.31	2	-0.00853577	-4.68903e-05			4.13696
1064.68	2	-0.0164825	-4.97437e-05			4.07837
1065.05	2	-0.0234161	-5.26123e-05			4.01978
1065.41	2	-0.0302277	-5.5481e-05			4.01978
1065.78	2	-0.0380005	-5.84106e-05			4.05884
1066.14	2	-0.0456818	-6.12793e-05			4.17694
1066.51	2	-0.0556641	-6.41479e-05			4.03992
1066.88	2	-0.0623169	-6.70166e-05			4.01978
1067.24	2	-0.0703735	-6.98547e-05			4.0979
1067.61	2	-0.0777283	-7.25708e-05			4.05823
1067.98	2	-0.0852051	-7.51953e-05			4.05853
1068.34	2	-0.0915833	-7.76978e-05			4.11743
1068.71	2	-0.0996094	-8.00171e-05			3.96149
1069.07	2	-0.106354	-8.22144e-05			4.039
1069.44	2	-0.114075	-8.41675e-05			3.96149
1069.81	2	-0.121277	-8.58765e-05			4.07837
1070.17	2	-0.128082	-8.73718e-05			3.94257
1070.54	2	-0.135223	-8.86841e-05			3.86292
1070.9	2	-0.142853	-8.97217e-05			3.8443
1071.27	2	-0.150635	-9.05457e-05			4.01947
1071.64	2	-0.158142	-9.1095e-05			4.00024
1072	2	-0.164337	-9.13696e-05			3.98071
1072.37	2	-0.172211	-9.14612e-05			3.92212
1072.74	2	-0.17926	-9.13391e-05			4.00024
1073.1	2	-0.18692	-9.09729e-05			3.88306
1073.47	2	-0.194397	-9.05151e-05			3.90198
1073.83	2	-0.201263	-8.98743e-05			3.86353
1074.2	2	-0.209076	-8.92029e-05			3.99994
1074.57	2	-0.215729	-8.8501e-05			3.92242
1074.93	2	-0.223724	-8.77686e-05			3.88336
1075.3	2	-0.22998	-8.70667e-05			3.84399
1075.67	2	-0.238434	-8.64258e-05			4.02008
1076.03	2	-0.24472	-8.57849e-05			3.80585
1076.4	2	-0.25293	-8.52356e-05			3.92212
1076.76	2	-0.259399	-8.47473e-05			3.9032
1077.13	2	-0.266998	-8.43506e-05			3.76129
1077.5	2	-0.274323	-8.40149e-05			3.86414
1077.86	2	-0.28186	-8.37708e-05			3.76068
1078.23	2	-0.289032	-8.35876e-05			3.86353
1078.6	2	-0.296387	-8.35571e-05			3.78571
1078.96	2	-0.303009	-8.35571e-05			3.76038
1079.33	2	-0.310364	-8.36487e-05			3.86414
1079.69	2	-0.317627	-8.38928e-05			3.76099
1080.06	2	-0.325226	-8.4137e-05			3.78601
1080.43	2	-0.332733	-8.45032e-05			3.82507
1080.79	2	-0.340607	-8.49609e-05			3.96149
1081.16	2	-0.347748	-8.55408e-05			3.82477
1081.53	2	-0.354553	-8.61816e-05			3.703
1081.89	2	-0.361755	-8.69751e-05			3.76068
1082.26	2	-0.368744	-8.78601e-05			3.72284
1082.62	2	-0.376099	-8.88672e-05			3.80554
1082.99	2	-0.383972	-8.99353e-05			3.78632
1083.36	2	-0.391724	-9.1156e-05			3.72253
1083.72	2	-0.398865	-9.24377e-05			3.76129
1084.09	2	-0.405304	-9.38721e-05			3.78662
1084.45	2	-0.413483	-9.53674e-05			3.703
1084.82	2	-0.420349	-9.69543e-05			3.74207
1085.19	2	-0.427704	-9.86328e-05			3.68286
1085.55	2	-0.43512	-0.000100311			3.58582
1085.92	2	-0.442444	-0.000102112			3.72223
1086.29	2	-0.449249	-0.000103943			3.60596
1086.65	2	-0.457306	-0.000105865			3.7027
1087.02	2	-0.463562	-0.000107819			3.56689
1087.38	2	-0.47168	-0.000109802			3.6261
1087.75	2	-0.47818	-0.000111847			3.6441
1088.12	2	-0.485748	-0.000113922			3.68317
1088.48	2	-0.493134	-0.000116058			3.64471
1088.85	2	-0.501099	-0.000118195			3.60535
1089.22	2	-0.508362	-0.000120422			3.62488
1089.58	2	-0.51535	-0.00012265			3.52722
1089.95	2	-0.521973	-0.000125			3.54675
1090.31	2	-0.529358	-0.000127441			3.54706
1090.68	2	-0.537292	-0.000129944			3.48907
1091.05	2	-0.544891	-0.000132599			3.58551
1091.41	2	-0.551544	-0.000135345			3.50769
1091.78	2	-0.559082	-0.000138245			3.44818
1092.15	2	-0.565796	-0.000141235			3.46893
1092.51	2	-0.573303	-0.000144348			3.60504
1092.88	2	-0.580597	-0.000147583			3.41003
1093.24	2	-0.587982	-0.00015094			3.38898
1093.61	2	-0.595398	-0.000154419			3.48785
1093.98	2	-0.602875	-0.000158081			3.37067
1094.34	2	-0.595795	-0.000127411			3.44849
1094.71	2	-0.588013	-0.000102478			3.48816
1095.07	2	-0.580414	-8.12378e-05			3.37097
1095.44	2	-0.573334	-6.26831e-05			3.44818
1095.81	2	-0.566742	-4.62158e-05			3.40942
1096.17	2	-0.559204	-3.15918e-05			3.44818
1096.54	2	-0.551971	-1.84509e-05			3.35083
1096.91	2	-0.544342	-6.58569e-06			3.44788
1097.27	2	-0.537231	4.17175e-06			3.35114
1097.64	2	-0.529266	1.40045e-05			3.37006
1098	2	-0.522522	2.29492e-05			3.44849
1098.37	2	-0.514954	3.10791e-05			3.42834
1098.74	2	-0.507935	3.84125e-05			3.48846
1099.1	2	-0.499939	4.52515e-05			3.37036
1099.47	2	-0.492798	5.14832e-05			3.36975
1099.84	2	-0.485535	5.72205e-05			3.36975
1100.2	2	-0.479034	6.24695e-05			3.42896
1100.57	2	-0.471252	6.72913e-05			3.48877
1100.93	2	-0.464508	7.16858e-05			3.54675
1101.3	2	-0.456665	7.57141e-05			3.44818
1101.67	2	-0.449646	7.93762e-05			3.46802
1102.03	2	-0.442261	8.27332e-05			3.46832
1102.4	2	-0.434814	8.57544e-05			3.60504
1102.77	2	-0.427887	8.8501e-05			3.58582
1103.13	2	-0.420441	9.10034e-05			3.40942
1103.5	2	-0.413422	9.32617e-05			3.52753
1103.86	2	-0.405212	9.52759e-05			3.56598
1104.23	2	-0.398865	9.70764e-05			3.52661
1104.6	2	-0.390778	9.86633e-05			3.46802
1104.96	2	-0.383331	0.000100037			3.58582
1105.33	2	-0.37674	0.000101196			3.56598
1105.69	2	-0.368713	0.000102142			3.6441
1106.06	2	-0.362122	0.000102875			3.62518
1106.43	2	-0.354431	0.000103394			3.66425
1106.79	2	-0.347321	0.000103729			3.60474
1107.16	2	-0.339691	0.000103851			3.70239
1107.53	2	-0.332672	0.00010379			3.74146
1107.89	2	-0.325623	0.000103485			3.70331
1108.26	2	-0.317688	0.000102966			3.703
1108.62	2	-0.310394	0.000102325			3.66333
1108.99	2	-0.303833	0.00010141			3.7027
1109.36	2	-0.295776	0.000100281			3.68347
1109.72	2	-0.288361	9.90295e-05			3.78571
1110.09	2	-0.281219	9.75952e-05			3.82416
1110.46	2	-0.274445	9.60388e-05			3.78662
1110.82	2	-0.266693	9.44214e-05			3.86383
1111.19	2	-0.259247	9.2804e-05			3.8446
1111.55	2	-0.252594	9.11865e-05			3.84369
1111.92	2	-0.244812	8.96301e-05			3.82477
1112.29	2	-0.23822	8.80737e-05			3.7027
1112.65	2	-0.230713	8.67004e-05			3.74146
1113.02	2	-0.222717	8.53882e-05			3.88336
1113.39	2	-0.2164	8.4198e-05			3.74176
1113.75	2	-0.20874	8.31299e-05			3.8443
1114.12	2	-0.200928	8.21533e-05			3.82538
1114.48	2	-0.194641	8.12988e-05			3.94196
1114.85	2	-0.187256	8.06274e-05			3.90259
1115.22	2	-0.179535	8.00171e-05			3.94196
1115.58	2	-0.172607	7.95288e-05			3.78571
1115.95	2	-0.1651	7.91321e-05			3.96149
1116.31	2	-0.158081	7.88269e-05			3.90228
1116.68	2	-0.150757	7.86438e-05			3.92212
1117.05	2	-0.14267	7.85522e-05			3.90259
1117.41	2	-0.136292	7.85522e-05			3.9621
1117.78	2	-0.128815	7.86438e-05			3.90228
1118.15	2	-0.120636	7.87354e-05			4.01947
1118.51	2	-0.113495	7.89795e-05			3.94196
1118.88	2	-0.106934	7.92542e-05			3.90198
1119.24	2	-0.0992126	7.96204e-05			3.96118
1119.61	2	-0.0916138	7.99866e-05			3.88336
1119.98	2	-0.0852661	8.04138e-05			3.99994
1120.34	2	-0.0773926	8.08411e-05			3.78662
1120.71	2	-0.0704956	8.12683e-05			3.88245
1121.08	2	-0.0622253	8.1665e-05			4.01978
1121.44	2	-0.055542	8.20007e-05			3.94135
1121.81	2	-0.0450439	8.22449e-05			3.90259
1122.17	2	-0.0377563	8.23364e-05			3.96179
1122.54	2	-0.0311035	8.23975e-05			4.00055
1122.91	2	-0.0238434	8.23364e-05			3.9621
1123.27	2	-0.0155701	8.21838e-05			4.05884
1123.64	2	-0.00831604	8.19397e-05			3.98041
1124.01	2	-0.000881958	8.1665e-05			3.98102
1124.37	2	0.0056366	8.13293e-05			4.01978
1124.74	2	0.0126953	8.09631e-05			4.13666
1125.1	2	0.0208832	8.05664e-05			4.05853
1125.47	2	0.0275482	8.00781e-05			4.11713
1125.84	2	0.035257	7.94373e-05			4.13605
1126.2	2	0.0428101	7.85522e-05			4.0979
1126.57	2	0.0467529	7.73621e-05			4.01886
1126.94	2	0.0536499	7.57751e-05			4.21509
1127.3	2	0.0609436	7.36389e-05			4.07776
1127.67	2	0.0683289	7.09534e-05			4.05853
1128.03	2	0.0763855	6.75964e-05			3.9212
1128.4	2	0.0838013	6.35681e-05			4.05884
1128.77	2	0.0909119	5.88379e-05			4.11713
1129.13	2	0.09729	5.34363e-05			4.09821
1129.5	2	0.104584	4.74121e-05			4.11743
1129.86	2	0.112305	4.09882e-05			4.17572
1130.23	2	0.120087	3.44666e-05			4.01978
1130.6	3	0.126648	2.82013e-05			4.11713
1130.96	3	0.134674	2.2583e-05			4.11682
1131.33	3	0.141449	1.78528e-05			4.15588
1131.7	3	0.149261	1.41083e-05			4.13666
1132.06	3	0.156708	1.12549e-05			4.0979
1132.43	3	0.163147	9.1217e-06			4.05884
1132.79	3	0.170227	7.51343e-06			4.15649
1133.16	3	0.178284	6.41479e-06			4.05823
1133.53	3	0.18512	5.50842e-06			4.07776
1133.89	3	0.192657	4.81567e-06			4.19495
1134.26	3	0.200348	4.29077e-06			4.13666
1134.63	3	0.20752	3.87909e-06			4.11652
1134.99	3	0.21402	3.55072e-06			4.17511
1135.36	3	0.221466	3.284e-06			4.13696
1135.72	3	0.228821	3.0722e-06			4.0979
1136.09	3	0.236542	2.89612e-06			4.23431
1136.46	3	0.244232	2.742e-06			4.15649
1136.82	3	0.250488	2.59979e-06			4.19495
1137.19	3	0.257935	2.47101e-06			4.05853
1137.56	3	0.265289	2.35352e-06			4.01947
1137.92	3	0.273071	2.24609e-06			4.11774
1138.29	3	0.280426	2.15088e-06			4.15558
1138.65	3	0.286926	2.06512e-06			4.25415
1139.02	3	0.294525	1.98395e-06			4.03839
1139.39	3	0.302429	1.90796e-06			4.01886
1139.75	3	0.309845	1.82037e-06			4.17542
1140.12	3	0.31604	1.75385e-06			4.21448
1140.48	3	0.324005	1.69708e-06			4.15619
1140.85	3	0.330963	1.64948e-06			4.05823
1141.22	3	0.338104	1.60828e-06			4.13635
1141.58	3	0.345459	1.56647e-06			4.15588
1141.95	3	0.353485	1.53564e-06			4.15588
1142.32	3	0.360443	1.50665e-06			4.23401
1142.68	3	0.367889	1.48926e-06			4.15558
1143.05	3	0.37558	1.4566e-06			4.15588
1143.41	3	0.38269	1.42883e-06			4.01947
1143.78	3	0.38916	1.39893e-06			4.13666
1144.15	3	0.396667	1.37451e-06			4.01886
1144.51	3	0.403809	1.34827e-06			4.19434
1144.88	3	0.411835	1.32965e-06			4.11713
1145.25	3	0.418915	1.31744e-06			4.19434
1145.61	3	0.4263	1.30768e-06			4.19556
1145.98	3	0.433838	1.29974e-06			4.15527
1146.34	3	0.441101	1.30737e-06			4.0976
1146.71	3	0.448059	1.31775e-06			4.09698
1147.08	3	0.455139	1.30951e-06			4.19464
1147.44	3	0.462372	1.29791e-06			4.03839
1147.81	3	0.470337	1.28265e-06			4.19403
1148.18	3	0.47757	1.27228e-06			4.07715
1148.54	3	0.484192	1.25397e-06			4.07776
1148.91	3	0.492218	1.23444e-06			4.19525
1149.27	3	0.498962	1.20911e-06			4.21448
1149.64	3	0.506866	1.19141e-06			3.99994
1150.01	3	0.513123	1.19019e-06			4.1748
1150.37	3	0.521088	1.17981e-06			4.15588
1150.74	3	0.527802	1.17493e-06			4.01855
1151.1	3	0.535095	1.1676e-06			4.09698
1151.47	3	0.542664	1.16211e-06			3.96027
1151.84	3	0.5495	1.15051e-06			4.13605
1152.2	3	0.557404	1.1264e-06			4.05792
1152.57	3	0.56485	1.11298e-06			4.19495
1152.94	3	0.572205	1.09222e-06			4.17511
1153.3	3	0.579193	1.06476e-06			4.11652
1153.67	3	0.587036	1.0376e-06			4.11652
1154.03	3	0.593567	1.0257e-06			3.96027
1154.4	3	0.601196	1.01654e-06			4.05731
1154.77	3	0.608673	1.0083e-06			4.19495
1155.13	3	0.61554	1.00281e-06			4.19464
1155.5	3	0.622528	9.96094e-07			4.11652
1155.87	3	0.629669	9.90295e-07			4.25323
1156.23	3	0.637817	9.86633e-07			4.21417
1156.6	3	0.645325	9.86633e-07			4.07745
1156.96	3	0.652435	9.8053e-07			4.07776
1157.33	3	0.659515	9.65271e-07			4.11621
1157.7	3	0.667206	9.48181e-07			4.0976
1158.06	3	0.673645	9.28955e-07			4.11682
1158.43	3	0.681122	9.14001e-07			4.01825
1158.8	3	0.688416	9.0332e-07			4.15558
1159.16	3	0.696442	8.87146e-07			4.07745
1159.53	3	0.703339	8.75854e-07			4.2337
1159.89	3	0.710083	8.60901e-07			4.01917
1160.26	3	0.71817	8.51135e-07			4.09729
1160.63	3	0.725586	8.44421e-07			4.03839
1160.99	3	0.731995	8.56323e-07			4.09668
1161.36	3	0.740082	8.59375E-07			4.07715
1161.73	3	0.74646	8.58765e-07			4.05731
1162.09	3	0.753784	8.44421e-07			3.99933
1162.46	3	0.761108	8.30078e-07			4.0976
1162.82	3	0.768127	8.12988e-07			4.2337
1163.19	3	0.776367	7.9071e-07			4.19434
1163.56	3	0.783997	7.67212e-07			4.11652
1163.92	3	0.79071	7.37e-07			4.17542
1164.29	3	0.798035	7.23877e-07			4.09668
1164.65	3	0.803833	7.14722e-07			4.19434
1165.02	3	0.811462	7.07703e-07			4.15588
1165.39	3	0.818787	7.01294e-07			4.11652
1165.75	3	0.827332	6.92444e-07			4.03778
1166.12	3	0.83374	6.80847e-07			4.05731
1166.49	3	0.84137	6.62537e-07			4.03748
1166.85	3	0.848389	6.50635e-07			4.09698
1167.22	3	0.855408	6.25E-07			4.03809
1167.58	3	0.863647	5.96313e-07			4.17419
1167.95	3	0.870361	5.76782e-07			4.11621
1168.32	3	0.87738	5.70679e-07			4.09637
1168.68	3	0.885315	5.6427e-07			4.17511
1169.05	3	0.892639	5.61218e-07			4.07715
1169.42	3	0.899048	5.67017e-07			4.11713
1169.78	3	0.906677	5.75867e-07			4.13605
1170.15	3	0.914917	5.9021e-07			4.17419
1170.51	3	0.921936	5.86853e-07			4.05731
1170.88	3	0.92865	5.84106e-07			4.13574
1171.25	3	0.93689	5.80444e-07			4.11652
1171.61	3	0.942993	5.77698e-07			4.19434
1171.98	3	0.951843	5.78003e-07			4.13574
1172.35	3	0.958252	5.84106e-07			4.09729
1172.71	3	0.965576	5.896e-07			4.01825
1173.08	3	0.972595	6.03333e-07			4.11652
1173.44	3	0.981445	6.18896e-07			4.15527
1173.81	3	0.987854	6.44531e-07			4.21356
1174.18	3	0.995789	6.6925e-07			4.07715
1174.54	3	0.988464	5.59692e-07			4.05731
1174.91	3	0.980835	5.05066e-07			4.19403
1175.27	3	0.973206	4.66003e-07			4.07684
1175.64	3	0.964966	4.32739e-07			4.07715
1176.01	3	0.957947	4.00085e-07			4.01825
1176.37	3	0.950623	3.6377e-07			4.09668
1176.74	3	0.944519	3.28979e-07			4.15527
1177.11	3	0.936584	3.12805e-07			4.25323
1177.47	3	0.929565	2.9541e-07			4.07654
1177.84	3	0.921936	2.86865e-07			4.11682
1178.2	3	0.914917	2.72827e-07			4.07715
1178.57	3	0.907288	2.63062e-07			4.15527
1178.94	3	0.899963	2.48108e-07			4.11652
1179.3	3	0.893555	2.32239e-07			4.11621
1179.67	3	0.884705	2.15149e-07			4.17419
1180.04	3	0.877991	1.95007e-07			4.09668
1180.4	3	0.871277	1.71204e-07			4.07684
1180.77	3	0.863647	1.45264e-07			4.13574
1181.13	3	0.856018	1.29089e-07			4.09729
1181.5	3	0.849915	1.2085e-07			4.13574
1181.87	3	0.841675	1.14746e-07			4.1745
1182.23	3	0.834961	1.12e-07			4.1748
1182.6	3	0.827942	1.09558e-07			4.13605
1182.97	3	0.820618	1.06201e-07			4.21417
1183.33	3	0.812683	1.13525e-07			4.17419
1183.7	3	0.804749	1.2207e-07			4.1748
1184.06	3	0.798035	1.20239e-07			4.03778
1184.43	3	0.79071	1.171875E-07			4.13605
1184.8	3	0.783997	1.10474e-07			4.1745
1185.16	3	0.776367	9.8877e-08			4.19495
1185.53	3	0.768127	9.85718e-08			4.15497
1185.89	3	0.760803	9.39941e-08			4.09698
1186.26	3	0.753784	9.58252e-08			4.11621
1186.63	3	0.74646	9.67407e-08			4.07715
1186.99	3	0.739532	1.01929e-07			4.17511
1187.36	3	0.73288	1.11694e-07			4.07715
1187.73	3	0.724487	1.28174e-07			4.17542
1188.09	3	0.717865	1.44653e-07			4.09698
1188.46	3	0.710999	1.44043e-07			4.15619
1188.82	3	0.70282	1.40381e-07			4.11713
1189.19	3	0.69632	1.34277e-07			3.9801
1189.56	3	0.688812	1.30005e-07			4.07745
1189.92	3	0.681702	1.13525e-07			4.13666
1190.29	3	0.673981	1.00403e-07			4.11774
1190.66	3	0.66629	8.48389e-08			4.13635
1191.02	3	0.659119	8.95691e-08			4.01886
1191.39	3	0.651764	8.95386e-08			4.07745
1191.75	3	0.644592	8.30383e-08			4.0387
1192.12	3	0.637177	8.38318e-08			4.17572
1192.49	3	0.629791	7.93152e-08			4.19495
1192.85	3	0.62265	6.9458e-08			4.11652
1193.22	3	0.615143	6.03638e-08			4.25354
1193.59	3	0.608551	4.69666e-08			4.19464
1193.95	3	0.601044	2.63062e-08			4.25385
1194.32	3	0.593964	1.37329e-09			4.0976
1194.68	3	0.586395	-1.01929e-08			4.07776
1195.05	3	0.578796	-1.38245e-08			4.0976
1195.42	3	0.572235	-1.36414e-08			4.19464
1195.78	3	0.564545	-1.35498e-08			4.13696
1196.15	3	0.5578	-8.42285e-09			4.19464
1196.51	3	0.550385	-2.13623e-10			4.13574
1196.88	3	0.542816	9.58252e-09			4.19525
1197.25	3	0.5354	1.14441e-08			4.2337
1197.61	3	0.527771	7.47681e-09			4.21448
1197.98	3	0.521149	5.98145e-09			4.05701
1198.35	3	0.51358	-3.66211e-10			4.15588
1198.71	3	0.50592	-7.14111e-09			4.19434
1199.08	3	0.499268	-1.33972e-08			4.19403
1199.44	3	0.491638	-1.30005e-08			4.09729
1199.81	3	0.483856	-1.39771e-08			4.11774
1200.18	3	0.477631	-9.67407e-09			4.11652
1200.54	3	0.469818	-3.26538e-09			4.0976
1200.91	3	0.46228	6.86646e-09			4.19464
1201.28	3	0.455292	2.5177e-08			4.11682
1201.64	3	0.448151	3.55225e-08			4.0976
1202.01	3	0.44101	3.10974e-08			4.11713
1202.37	3	0.432983	2.26746e-08			4.0979
1202.74	3	0.426056	1.15662e-08			4.11682
1203.11	3	0.418427	1.31226e-09			4.11774
1203.47	3	0.411194	-1.73035e-08			4.13666
1203.84	3	0.404755	-3.2135e-08			4.25415
1204.21	3	0.396454	-5.11475e-08			4.13666
1204.57	3	0.38916	-5.97839e-08			4.15588
1204.94	3	0.382355	-6.26831e-08			4.15619
1205.3	3	0.374847	-7.5531e-08			4.17542
1205.67	3	0.367279	-8.21228e-08			4.13666
1206.04	3	0.360382	-9.4635e-08			4.21417
1206.4	3	0.35318	-1.09192e-07			4.15649
1206.77	3	0.346405	-1.31927e-07			4.07806
1207.14	3	0.338898	-1.49902e-07			4.19464
1207.5	3	0.331604	-1.79443e-07			4.13666
1207.87	3	0.323395	-2.16431e-07			4.11682
1208.23	3	0.316589	-2.5473e-07			4.05823
1208.6	3	0.309814	-2.96936e-07			4.09729
1208.97	3	0.302032	-3.34991e-07			4.11804
1209.33	3	0.294708	-3.78723e-07			4.05792
1209.7	3	0.287079	-4.15039e-07			4.0976
1210.06	3	0.279724	-4.55933e-07			4.19495
1210.43	3	0.27243	-4.97742e-07			4.15649
1210.8	3	0.265503	-5.34363e-07			4.25476
1211.16	3	0.258118	-5.74646e-07			4.13605
1211.53	3	0.251068	-6.13098e-07			4.25415
1211.9	3	0.244263	-6.71692e-07			4.11682
1212.26	3	0.237	-7.33643e-07			4.15558
1212.63	3	0.229401	-7.99255e-07			4.11713
1212.99	3	0.221985	-8.80432e-07			4.01947
1213.36	3	0.214539	-9.6283e-07			4.11682
1213.73	3	0.207672	-1.05804e-06			4.05853
1214.09	3	0.199829	-1.17371e-06			4.07806
1214.46	3	0.192291	-1.31104e-06			4.05853
1214.83	3	0.185181	-1.48499e-06			4.07776
1215.19	3	0.178497	-1.70013e-06			4.13666
1215.56	3	0.170776	-1.97571e-06			4.05792
1215.92	3	0.163666	-2.35107e-06			4.25385
1216.29	3	0.156616	-2.836e-06			4.11682
1216.66	3	0.149323	-3.43262e-06			4.09729
1217.02	3	0.141693	-4.14124e-06			4.17572
1217.39	3	0.13443	-5.02014e-06			4.21478
1217.76	3	0.127502	-6.00586e-06			4.21478
1218.12	3	0.119293	-7.13196e-06			4.0387
1218.49	3	0.112122	-8.39844e-06			4.05792
1218.85	3	0.104736	-9.8053e-06			4.07745
1219.22	3	0.0978699	-1.1377e-05			4.05792
1219.59	3	0.0908813	-1.30646e-05			4.09729
1219.95	3	0.0828552	-1.48926e-05			4.07806
1220.32	3	0.0758362	-1.68365e-05			4.05884
1220.68	3	0.0682373	-1.88995e-05			4.23462
1221.05	3	0.0610962	-2.10693e-05			4.13574
1221.42	3	0.0545654	-2.33246e-05			4.09851
1221.78	3	0.0467834	-2.565e-05			4.13666
1222.15	3	0.0421814	-2.80762e-05			4.13696
1222.52	3	0.034787	-3.05267e-05			4.19556
1222.88	3	0.0274963	-3.31787e-05			4.1568
1223.25	3	0.0201447	-3.57971e-05			4.039
1223.61	3	0.0130157	-3.84735e-05			4.02008
1223.98	3	0.00558472	-4.12109e-05			4.17603
1224.35	3	-0.00171509	-4.39758e-05			4.07837
1224.71	3	-0.00899353	-4.67682e-05			4.07806
1225.08	3	-0.0157349	-4.95911e-05			4.07837
1225.45	3	-0.0230194	-5.24597e-05			4.17633
1225.81	3	-0.0301483	-5.52979e-05			4.07837
1226.18	3	-0.0384735	-5.81665e-05			4.21478
1226.54	3	-0.0457367	-6.10046e-05			4.09851
1226.91	3	-0.055603	-6.39343e-05			4.039
1227.28	3	-0.0623474	-6.68335e-05			4.11713
1227.64	3	-0.0702515	-6.96411e-05			4.11774
1228.01	3	-0.0774536	-7.24182e-05			4.0387
1228.38	3	-0.0851135	-7.51038e-05			4.07837
1228.74	3	-0.0924377	-7.75757e-05			4.01917
1229.11	3	-0.0988159	-7.99255e-05			3.98102
1229.47	3	-0.106201	-8.20618e-05			4.09851
1229.84	3	-0.113953	-8.40454e-05			4.00024
1230.21	3	-0.120728	-8.57849e-05			4.05884
1230.57	3	-0.128113	-8.73108e-05			4.05792
1230.94	3	-0.136108	-8.8623e-05			4.09851
1231.3	3	-0.143463	-8.97522e-05			4.01947
1231.67	3	-0.150421	-9.05762e-05			3.92242
1232.04	3	-0.157776	-9.11255e-05			3.99994
1232.4	3	-0.164459	-9.14307e-05			4.02039
1232.77	3	-0.171753	-9.14917e-05			3.86322
1233.14	3	-0.179749	-9.13696e-05			3.94135
1233.5	3	-0.187134	-9.10034e-05			3.90228
1233.87	3	-0.194	-9.05457e-05			3.96179
1234.23	3	-0.201141	-8.99353e-05			3.96149
1234.6	3	-0.208344	-8.92639e-05			3.94196
1234.97	3	-0.2164	-8.85315e-05			3.88275
1235.33	3	-0.222748	-8.78296e-05			3.8446
1235.7	3	-0.230103	-8.70972e-05			3.88275
1236.07	3	-0.238037	-8.64563e-05			4.07806
1236.43	3	-0.245514	-8.57849e-05			3.90259
1236.8	3	-0.252258	-8.52661e-05			3.96179
1237.16	3	-0.259308	-8.48083e-05			3.90259
1237.53	3	-0.266541	-8.44116e-05			3.84399
1237.9	3	-0.274414	-8.41064e-05			3.90228
1238.26	3	-0.282043	-8.38623e-05			3.90289
1238.63	3	-0.289429	-8.37402e-05			3.94226
1239	3	-0.296204	-8.36792e-05			3.86292
1239.36	3	-0.303345	-8.36792e-05			4.00055
1239.73	3	-0.311279	-8.37708e-05			3.92181
1240.09	3	-0.318481	-8.40149e-05			3.80524
1240.46	3	-0.32605	-8.4259e-05			3.96118
1240.83	3	-0.333282	-8.46252e-05			3.96149
1241.19	3	-0.340302	-8.51135e-05			3.68347
1241.56	3	-0.347595	-8.56628e-05			3.78601
1241.93	3	-0.35498	-8.63037e-05			3.72223
1242.29	3	-0.361511	-8.70361e-05			3.80463
1242.66	3	-0.369415	-8.78906e-05			3.78632
1243.02	3	-0.376495	-8.88672e-05			3.68347
1243.39	3	-0.383728	-8.99353e-05			3.82477
1243.76	3	-0.390747	-9.1095e-05			3.88336
1244.12	3	-0.398712	-9.23462e-05			3.84491
1244.49	3	-0.406219	-9.375E-05			3.72253
1244.85	3	-0.412598	-9.52148e-05			3.7027
1245.22	3	-0.4198	-9.67712e-05			3.66364
1245.59	3	-0.42749	-9.84192e-05			3.78571
1245.95	3	-0.434448	-0.000100098			3.80585
1246.32	3	-0.441803	-0.000101837			3.70361
1246.69	3	-0.449127	-0.000103638			3.66455
1247.05	3	-0.45636	-0.00010553			3.66516
1247.42	3	-0.46405	-0.000107422			3.70239
1247.78	3	-0.471069	-0.000109344			3.64502
1248.15	3	-0.479095	-0.000111328			3.74176
1248.52	3	-0.486511	-0.000113373			3.70331
1248.88	3	-0.493561	-0.000115479			3.66364
1249.25	3	-0.500305	-0.000117615			3.64441
1249.62	3	-0.507874	-0.000119843			3.66425
1249.98	3	-0.515625	-0.00012207			3.62518
1250.35	3	-0.52301	-0.00012442			3.66425
1250.71	3	-0.52951	-0.000126831			3.60565
1251.08	3	-0.536743	-0.000129364			3.52692
1251.45	3	-0.54483	-0.000131958			3.46863
1251.81	3	-0.551849	-0.000134705			3.62549
1252.18	3	-0.559235	-0.000137543			3.52722
1252.55	3	-0.56665	-0.000140503			3.37036
1252.91	3	-0.573944	-0.000143646			3.48785
1253.28	3	-0.581207	-0.000146851			3.46954
1253.64	3	-0.588684	-0.000150208			3.54706
1254.01	3	-0.595581	-0.000153717			3.46832
1254.38	3	-0.602631	-0.00015741			3.44849
1254.74	3	-0.595093	-0.000126953			3.4491
1255.11	3	-0.588684	-0.000102234			3.38928
1255.47	3	-0.581177	-8.11157e-05			3.40942
1255.84	3	-0.573425	-6.26526e-05			3.46893
1256.21	3	-0.566223	-4.63348e-05			3.44818
1256.57	3	-0.558411	-3.17871e-05			3.35052
1256.94	3	-0.551086	-1.87408e-05			3.27148
1257.31	3	-0.544037	-6.9458e-06			3.31238
1257.67	3	-0.537018	3.74695e-06			3.38959
1258.04	3	-0.529633	1.35071e-05			3.46893
1258.4	3	-0.522705	2.23694e-05			3.33069
1258.77	3	-0.515198	3.04535e-05			3.46863
1259.14	3	-0.507843	3.77136e-05			3.37006
1259.5	3	-0.501038	4.44885e-05			3.40912
1259.87	3	-0.492859	5.06897e-05			3.38928
1260.24	3	-0.486359	5.6366e-05			3.34991
1260.6	3	-0.479095	6.15845e-05			3.52692
1260.97	3	-0.471252	6.63452e-05			3.52722
1261.33	3	-0.464111	7.07397e-05			3.38959
1261.7	3	-0.457123	7.4707e-05			3.40912
1262.07	3	-0.449524	7.83997e-05			3.56659
1262.43	3	-0.442383	8.17261e-05			3.48785
1262.8	3	-0.435242	8.47473e-05			3.54645
1263.17	3	-0.427032	8.74939e-05			3.44849
1263.53	3	-0.420746	8.99963e-05			3.54675
1263.9	3	-0.413513	9.22546e-05			3.56659
1264.26	3	-0.405182	9.42688e-05			3.50739
1264.63	3	-0.398865	9.60693e-05			3.58551
1265	3	-0.391602	9.765625E-05			3.60535
1265.36	3	-0.384003	9.90295e-05			3.58551
1265.73	3	-0.376678	0.000100159			3.62549
1266.09	3	-0.368713	0.000101105			3.54645
1266.46	3	-0.361542	0.000101837			3.72253
1266.83	3	-0.354462	0.000102356			3.62549
1267.19	3	-0.3479	0.000102661			3.7027
1267.56	3	-0.340332	0.000102844			3.76099
1267.93	3	-0.332947	0.000102783			3.66425
1268.29	3	-0.3255	0.000102539			3.72223
1268.66	3	-0.318573	0.000102081			3.80493
1269.02	3	-0.311127	0.000101471			3.78601
1269.39	3	-0.303375	0.000100586			3.66394
1269.76	3	-0.296265	9.95178e-05			3.74176
1270.12	3	-0.288422	9.82971e-05			3.76068
1270.49	3	-0.28125	9.69238e-05			3.68347
1270.86	3	-0.273804	9.53979e-05			3.72192
1271.22	3	-0.266632	9.38416e-05			3.82477
1271.59	3	-0.259613	9.22546e-05			3.92181
1271.95	3	-0.252228	9.06677e-05			3.80554
1272.32	3	-0.244049	8.91113e-05			3.65051
1272.69	3	-0.238037	8.76465e-05			3.8443
1273.05	3	-0.23111	8.62732e-05			3.92181
1273.42	3	-0.2229	8.5022e-05			3.80554
1273.79	3	-0.215729	8.38928e-05			3.82477
1274.15	3	-0.209076	8.28552e-05			3.84369
1274.52	3	-0.200775	8.19702e-05			3.82477
1274.88	3	-0.193817	8.11462e-05			3.82385
1275.25	3	-0.187347	8.05054e-05			3.8443
1275.62	3	-0.17981	7.99255e-05			3.8443
1275.98	3	-0.172424	7.94678e-05			3.88245
1276.35	3	-0.164703	7.91016e-05			3.8443
1276.71	3	-0.157928	7.88269e-05			3.96088
1277.08	3	-0.150574	7.86743e-05			3.84369
1277.45	3	-0.142487	7.85828e-05			3.90289
1277.81	3	-0.135529	7.85828e-05			3.98071
1278.18	3	-0.128357	7.86743e-05			3.90228
1278.55	3	-0.121368	7.88269e-05			4.02008
1278.91	3	-0.113495	7.90405e-05			3.94135
1279.28	3	-0.10614	7.93457e-05			3.98041
1279.64	3	-0.0996704	7.97424e-05			3.86353
1280.01	3	-0.0924988	8.01086e-05			4.05823
1280.38	3	-0.0842285	8.05664e-05			4.03931
1280.74	3	-0.0778198	8.09937e-05			3.98071
1281.11	3	-0.0704346	8.14209e-05			3.96179
1281.48	3	-0.0626526	8.18176e-05			3.94196
1281.84	3	-0.055481	8.21533e-05			4.13696
1282.21	3	-0.0452179	8.23975e-05			3.98102
1282.57	3	-0.0375946	8.2489e-05			4.0979
1282.94	3	-0.0304138	8.255e-05			4.039
1283.31	3	-0.0237061	8.2489e-05			4.07867
1283.67	3	-0.0160004	8.23364e-05			4.05914
1284.04	3	-0.00856934	8.21228e-05			3.94257
1284.41	3	-0.00173645	8.17871e-05			3.96149
1284.77	3	0.00553894	8.14514e-05			4.09821
1285.14	3	0.0127472	8.10852e-05			4.07806
1285.5	3	0.0209961	8.06274e-05			4.01917
1285.87	3	0.0281647	8.01392e-05			3.98041
1286.24	3	0.0346313	7.94678e-05			4.01947
1286.6	3	0.0421967	7.85522e-05			4.07776
1286.97	3	0.0469055	7.73621e-05			3.94196
1287.34	3	0.0540771	7.56836e-05			4.01947
1287.7	3	0.0613403	7.35474e-05			4.01978
1288.07	3	0.0683594	7.08313e-05			4.17603
1288.43	3	0.0753174	6.74744e-05			4.07776
1288.8	3	0.0834961	6.34155e-05			4.19556
1289.17	3	0.0908813	5.86243e-05			4.19495
1289.53	3	0.098114	5.31921e-05			4.01917
1289.9	3	0.10553	4.71527e-05			4.11713
1290.26	3	0.112762	4.06982e-05			4.0979
1290.63	3	0.119843	3.41492e-05			4.09821
1290.88	3	0.124969	2.99805e-05			4.13727