File: Edgar/20240515/20240515/EC_measurements/Sample_20240502_B/CV/data/CV_3
Time (s)	Scan	WE(1).Potential (V)	WE(1).Current (A)	Q+	Q-	External(1).External 2 (V)
1291.14	1	0.126831	2.17804e-05			4.09821
1291.51	1	0.134766	1.91223e-05			4.11743
1291.88	1	0.127472	2.67395e-06			4.17633
1292.24	1	0.120209	-3.66943e-06			4.17633
1292.61	1	0.112762	-6.97327e-06			4.09821
1292.98	1	0.105591	-9.43909e-06			4.17572
1293.34	1	0.0985413	-1.16333e-05			4.08569
1293.71	1	0.0910339	-1.3736e-05			4.23492
1294.07	1	0.0836182	-1.586e-05			4.11743
1294.44	1	0.0757446	-1.80237e-05			4.0979
1294.81	1	0.0687561	-2.02637e-05			4.11713
1295.17	1	0.061676	-2.25616e-05			4.13727
1295.54	1	0.0535889	-2.49359e-05			4.15588
1295.9	1	0.0470886	-2.73651e-05			4.11713
1296.27	1	0.0422607	-2.98279e-05			4.07898
1296.64	1	0.0346405	-3.24371e-05			4.09729
1297	1	0.0281219	-3.49976e-05			4.07898
1297.37	1	0.0201355	-3.75885e-05			4.039
1297.74	1	0.0133148	-4.01978e-05			4.21509
1298.1	1	0.00608215	-4.2804e-05			4.13666
1298.47	1	-0.00184021	-4.55078e-05			4.03931
1298.83	1	-0.00823059	-4.81659e-05			4.15649
1299.2	1	-0.0165039	-5.08423e-05			4.1571
1299.57	1	-0.0230225	-5.35278e-05			4.039
1299.93	1	-0.0304291	-5.62439e-05			4.01978
1300.3	1	-0.0382263	-5.896e-05			4.05823
1300.67	1	-0.044989	-6.1615e-05			4.03961
1301.03	1	-0.0557861	-6.427e-05			4.11774
1301.4	1	-0.0631104	-6.68945e-05			4.05884
1301.76	1	-0.0700073	-6.9397e-05			4.05884
1302.13	1	-0.0779419	-7.18079e-05			4.09821
1302.5	1	-0.085022	-7.40662e-05			4.0979
1302.86	1	-0.0924377	-7.61719e-05			4.05884
1303.23	1	-0.0995483	-7.8125E-05			4.039
1303.6	1	-0.106995	-7.9895e-05			4.01917
1303.96	1	-0.114502	-8.1543e-05			4.21539
1304.33	1	-0.121674	-8.29773e-05			4.11743
1304.69	1	-0.128937	-8.42285e-05			3.92242
1305.06	1	-0.136292	-8.53271e-05			4.07867
1305.43	1	-0.142761	-8.62732e-05			3.9798
1305.79	1	-0.149994	-8.69751e-05			3.94196
1306.16	1	-0.158051	-8.74634e-05			4.039
1306.53	1	-0.164703	-8.77686e-05			4.05884
1306.89	1	-0.172211	-8.78601e-05			4.02008
1307.26	1	-0.179993	-8.77991e-05			3.98102
1307.62	1	-0.186157	-8.75244e-05			3.92242
1307.99	1	-0.194061	-8.71887e-05			4.05823
1308.36	1	-0.20163	-8.67004e-05			3.88306
1308.72	1	-0.209076	-8.62122e-05			3.88367
1309.09	1	-0.216187	-8.56628e-05			3.99994
1309.45	1	-0.223694	-8.51135e-05			3.88306
1309.82	1	-0.231079	-8.45947e-05			3.8443
1310.19	1	-0.238434	-8.40759e-05			4.01947
1310.55	1	-0.245209	-8.35876e-05			3.88336
1310.92	1	-0.25293	-8.31909e-05			3.88245
1311.29	1	-0.259277	-8.28552e-05			3.84491
1311.65	1	-0.266541	-8.25806e-05			3.88275
1312.02	1	-0.273804	-8.23364e-05			3.90259
1312.38	1	-0.281281	-8.21838e-05			3.80524
1312.75	1	-0.288452	-8.21228e-05			3.96179
1313.12	1	-0.296387	-8.21228e-05			3.84399
1313.48	1	-0.30368	-8.21838e-05			3.88306
1313.85	1	-0.311432	-8.23669e-05			3.88275
1314.22	1	-0.318695	-8.26416e-05			3.90228
1314.58	1	-0.325562	-8.29468e-05			3.76129
1314.95	1	-0.333191	-8.33435e-05			3.80524
1315.31	1	-0.340302	-8.38318e-05			3.80585
1315.68	1	-0.346802	-8.44421e-05			3.78601
1316.05	1	-0.354675	-8.51135e-05			3.72253
1316.41	1	-0.361847	-8.5907e-05			3.92181
1316.78	1	-0.369202	-8.6792e-05			3.72253
1317.15	1	-0.376862	-8.78296e-05			3.80524
1317.51	1	-0.383484	-8.88977e-05			3.76129
1317.88	1	-0.390778	-9.01184e-05			3.82538
1318.24	1	-0.398102	-9.14307e-05			3.84399
1318.61	1	-0.405762	-9.2804e-05			3.76099
1318.98	1	-0.4133	-9.42688e-05			3.78601
1319.34	1	-0.419891	-9.58252e-05			3.72314
1319.71	1	-0.427979	-9.74426e-05			3.7616
1320.07	1	-0.434723	-9.90601e-05			3.78601
1320.44	1	-0.44223	-0.0001008			3.78601
1320.81	1	-0.44931	-0.00010257			3.64441
1321.17	1	-0.45639	-0.00010437			3.62549
1321.54	1	-0.464325	-0.000106262			3.58582
1321.91	1	-0.47168	-0.000108154			3.66425
1322.27	1	-0.478821	-0.000110107			3.62549
1322.64	1	-0.48645	-0.000112122			3.66394
1323	1	-0.492859	-0.000114166			3.58582
1323.37	1	-0.501038	-0.000116272			3.64502
1323.74	1	-0.508362	-0.000118408			3.56598
1324.1	1	-0.515594	-0.000120605			3.54645
1324.47	1	-0.523041	-0.000122894			3.68408
1324.84	1	-0.529205	-0.000125275			3.56598
1325.2	1	-0.537384	-0.000127747			3.54675
1325.57	1	-0.544769	-0.000130341			3.56628
1325.93	1	-0.5513	-0.000133057			3.54675
1326.3	1	-0.559387	-0.000135864			3.58582
1326.67	1	-0.566498	-0.000138763			3.46832
1327.03	1	-0.573517	-0.000141815			3.46924
1327.4	1	-0.58139	-0.00014502			3.50769
1327.77	1	-0.587799	-0.000148315			3.508
1328.13	1	-0.595825	-0.000151764			3.46863
1328.5	1	-0.602966	-0.000155365			3.44757
1328.86	1	-0.609802	-0.000159119			3.40942
1329.23	1	-0.617462	-0.000163055			3.38928
1329.6	1	-0.625183	-0.000167114			3.38898
1329.96	1	-0.631805	-0.000171356			3.29163
1330.33	1	-0.638916	-0.00017572			3.37036
1330.69	1	-0.646973	-0.000180298			3.35114
1331.06	1	-0.653687	-0.000185028			3.33038
1331.43	1	-0.660461	-0.00018988			3.31177
1331.79	1	-0.667908	-0.000194855			3.35114
1332.16	1	-0.675995	-0.000199921			3.17444
1332.53	1	-0.683289	-0.000205109			3.2135
1332.89	1	-0.690918	-0.000210419			3.33099
1333.26	1	-0.697296	-0.00021579			3.19427
1333.62	1	-0.699829	-0.000208832			3.11615
1333.99	1	-0.692108	-0.000181427			3.17474
1334.36	1	-0.685333	-0.000158051			3.27271
1334.72	1	-0.678192	-0.000137421			3.15552
1335.09	1	-0.670166	-0.000118896			3.17474
1335.46	1	-0.663818	-0.000102051			3.13599
1335.82	1	-0.656647	-8.66089e-05			3.19427
1336.19	1	-0.648956	-7.23877e-05			3.31177
1336.55	1	-0.641724	-5.92041e-05			3.25317
1336.92	1	-0.634735	-4.69788e-05			3.17535
1337.29	1	-0.626434	-3.56445e-05			3.15491
1337.65	1	-0.619507	-2.50305e-05			3.11584
1338.02	1	-0.612488	-1.51428e-05			3.15491
1338.39	1	-0.605103	-5.87158e-06			3.19458
1338.75	1	-0.597809	2.7774e-06			3.17474
1339.12	1	-0.590118	1.09985e-05			3.21411
1339.48	1	-0.583191	1.85883e-05			3.23242
1339.85	1	-0.575745	2.57782e-05			3.23303
1340.22	1	-0.568054	3.24188e-05			3.23334
1340.58	1	-0.560638	3.87573e-05			3.1546
1340.95	1	-0.553497	4.46899e-05			3.21411
1341.32	1	-0.546906	5.02625e-05			3.25317
1341.68	1	-0.539551	5.5481e-05			3.27179
1342.05	1	-0.53241	6.03943e-05			3.19427
1342.41	1	-0.525269	6.50024e-05			3.38989
1342.78	1	-0.517212	6.93054e-05			3.31146
1343.15	1	-0.510132	7.33643e-05			3.25256
1343.51	1	-0.502441	7.71484e-05			3.31207
1343.88	1	-0.495239	8.07495e-05			3.27209
1344.24	1	-0.487762	8.41064e-05			3.40942
1344.61	1	-0.481628	8.72803e-05			3.40942
1344.98	1	-0.474213	9.021e-05			3.44818
1345.34	1	-0.466553	9.29565e-05			3.40912
1345.71	1	-0.45874	9.552e-05			3.36975
1346.08	1	-0.452301	9.78699e-05			3.40912
1346.44	1	-0.444031	0.000100098			3.40942
1346.81	1	-0.437012	0.000102081			3.38928
1347.17	1	-0.430237	0.000103912			3.52722
1347.54	1	-0.422882	0.000105591			3.44849
1347.91	1	-0.415863	0.000107117			3.58551
1348.27	1	-0.407959	0.000108459			3.40912
1348.64	1	-0.400574	0.00010968			3.48785
1349.01	1	-0.393097	0.000110718			3.54645
1349.37	1	-0.386383	0.000111572			3.42834
1349.74	1	-0.379486	0.000112335			3.62549
1350.1	1	-0.371338	0.000112854			3.62549
1350.47	1	-0.364105	0.00011322			3.64502
1350.84	1	-0.357269	0.000113373			3.58551
1351.2	1	-0.349457	0.000113312			3.56659
1351.57	1	-0.342621	0.000113068			3.56537
1351.94	1	-0.334717	0.00011261			3.64502
1352.3	1	-0.328217	0.000111969			3.66425
1352.67	1	-0.320648	0.000111084			3.74146
1353.03	1	-0.313385	0.000110107			3.68378
1353.4	1	-0.305664	0.000108856			3.68317
1353.77	1	-0.298492	0.000107452			3.8443
1354.13	1	-0.291016	0.000105896			3.72284
1354.5	1	-0.284515	0.000104156			3.64471
1354.86	1	-0.2771	0.000102356			3.72253
1355.23	1	-0.269104	0.000100494			3.96118
1355.6	1	-0.261688	9.85718e-05			3.60565
1355.96	1	-0.254395	9.67102e-05			3.74176
1356.33	1	-0.247101	9.48792e-05			3.76068
1356.7	1	-0.240143	9.31396e-05			3.74176
1357.06	1	-0.23349	9.14917e-05			3.74176
1357.43	1	-0.225983	8.99963e-05			3.90198
1357.79	1	-0.217957	8.8623e-05			3.8446
1358.16	1	-0.210693	8.74023e-05			3.98071
1358.53	1	-0.203949	8.63037e-05			3.80493
1358.89	1	-0.196869	8.53577e-05			3.78571
1359.26	1	-0.189667	8.45337e-05			3.90228
1359.63	1	-0.18158	8.38928e-05			3.80524
1359.99	1	-0.174072	8.3374e-05			3.82538
1360.36	1	-0.167023	8.29773e-05			3.92181
1360.72	1	-0.160522	8.26721e-05			3.96149
1361.09	1	-0.153168	8.25195e-05			3.86414
1361.46	1	-0.145721	8.24585e-05			3.90228
1361.82	1	-0.137878	8.2489e-05			3.96179
1362.19	1	-0.130432	8.25806e-05			3.96149
1362.56	1	-0.123108	8.27637e-05			3.96118
1362.92	1	-0.11673	8.29773e-05			3.98102
1363.29	1	-0.108887	8.32825e-05			3.94165
1363.65	1	-0.101196	8.36182e-05			3.86322
1364.02	1	-0.0940247	8.40454e-05			3.96149
1364.39	1	-0.086731	8.44421e-05			3.94165
1364.75	1	-0.0802307	8.48694e-05			3.98071
1365.12	1	-0.0730591	8.52661e-05			3.92212
1365.48	1	-0.0656433	8.56934e-05			4.00085
1365.85	1	-0.0579224	8.60291e-05			3.86383
1366.22	1	-0.0476868	8.63037e-05			4.0979
1366.58	1	-0.0402466	8.65173e-05			3.90289
1366.95	1	-0.0327332	8.66089e-05			3.98193
1367.32	1	-0.0262238	8.66089e-05			3.94226
1367.68	1	-0.0183441	8.65479e-05			4.0979
1368.05	1	-0.0116425	8.63647e-05			4.05884
1368.41	1	-0.00375977	8.60901e-05			4.01947
1368.78	1	0.00298157	8.58154e-05			4.07837
1369.15	1	0.0110992	8.54492e-05			4.07806
1369.51	1	0.0177399	8.50525e-05			4.01947
1369.88	1	0.0256134	8.45947e-05			3.96179
1370.25	1	0.0327606	8.39844e-05			4.039
1370.61	1	0.0398468	8.32214e-05			4.13696
1370.98	1	0.0471863	8.21838e-05			4.0976
1371.34	1	0.0513611	8.08105e-05			3.98071
1371.71	1	0.0587158	7.89795e-05			4.0979
1372.08	1	0.0656738	7.65686e-05			4.0979
1372.44	1	0.0735779	7.36084e-05			4.01978
1372.81	1	0.0802612	6.99768e-05			4.15588
1373.18	1	0.088501	6.56433e-05			4.13696
1373.54	1	0.0954285	6.06079e-05			4.15619
1373.91	1	0.103027	5.49011e-05			4.11743
1374.27	1	0.109497	4.8645e-05			4.0387
1374.64	1	0.116974	4.20532e-05			3.9801
1375.01	1	0.124725	3.54248e-05			3.98132
1375.37	2	0.132324	2.90802e-05			4.11743
1375.74	2	0.138763	2.34558e-05			4.11713
1376.1	2	0.145935	1.875E-05			4.15619
1376.47	2	0.1539	1.50269e-05			4.13696
1376.84	2	0.161346	1.22223e-05			4.15619
1377.2	2	0.168671	1.01166e-05			4.05853
1377.57	2	0.175323	8.52966e-06			4.11743
1377.94	2	0.182404	7.43103e-06			4.03809
1378.3	2	0.190277	6.52161e-06			4.05792
1378.67	2	0.197754	5.82886e-06			4.11713
1379.03	2	0.205231	5.29175e-06			4.05823
1379.4	2	0.211487	4.86145e-06			4.09729
1379.77	2	0.219727	4.52271e-06			4.0979
1380.13	2	0.226227	4.23889e-06			4.19464
1380.5	2	0.234131	4.00391e-06			4.15649
1380.87	2	0.241516	3.80402e-06			4.07776
1381.23	2	0.249023	3.62762e-06			4.05792
1381.6	2	0.256378	3.48785e-06			4.21478
1381.96	2	0.263489	3.36273e-06			4.0387
1382.33	2	0.270416	3.2547e-06			4.07776
1382.7	2	0.277405	3.15216e-06			4.11743
1383.06	2	0.284576	3.05664e-06			4.07776
1383.43	2	0.29184	2.9657e-06			4.09729
1383.8	2	0.299438	2.88269e-06			4.01886
1384.16	2	0.306427	2.81036e-06			4.11652
1384.53	2	0.313812	2.73621e-06			4.0976
1384.89	2	0.320953	2.66235e-06			4.21448
1385.26	2	0.329193	2.60223e-06			4.07776
1385.63	2	0.336212	2.54242e-06			4.27307
1385.99	2	0.343079	2.48993e-06			4.07806
1386.36	2	0.35025	2.43713e-06			4.01947
1386.73	2	0.357544	2.39227e-06			4.09729
1387.09	2	0.365356	2.35321e-06			3.90228
1387.46	2	0.372314	2.32269e-06			4.11713
1387.82	2	0.38028	2.28668e-06			4.17511
1388.19	2	0.386963	2.2583e-06			4.07715
1388.56	2	0.39444	2.23694e-06			4.07806
1388.92	2	0.402039	2.21039e-06			4.15619
1389.29	2	0.409241	2.20154e-06			4.07776
1389.65	2	0.416077	2.17529e-06			4.05792
1390.02	2	0.423218	2.15057e-06			4.15619
1390.39	2	0.431488	2.12311e-06			4.05792
1390.75	2	0.437775	2.099e-06			3.98041
1391.12	2	0.446014	2.07611e-06			4.11652
1391.49	2	0.453064	2.05139e-06			4.15619
1391.85	2	0.459625	2.02301e-06			4.17542
1392.22	2	0.467926	1.9931e-06			4.13666
1392.58	2	0.474213	1.96503e-06			4.19495
1392.95	2	0.481628	1.9339e-06			4.11652
1393.32	2	0.489258	1.91925e-06			4.0976
1393.68	2	0.496185	1.90247e-06			4.0979
1394.05	2	0.504333	1.88171e-06			4.05792
1394.42	2	0.510712	1.87317e-06			4.19464
1394.78	2	0.51889	1.85425e-06			4.05792
1395.15	2	0.525879	1.84265e-06			4.07745
1395.51	2	0.533569	1.83136e-06			4.11652
1395.88	2	0.540436	1.8161e-06			4.05792
1396.25	2	0.547394	1.79321e-06			4.19464
1396.61	2	0.554443	1.77795e-06			4.13635
1396.98	2	0.56192	1.76086e-06			4.01855
1397.35	2	0.570007	1.74805e-06			4.05762
1397.71	2	0.576752	1.72699e-06			4.1745
1398.08	2	0.58371	1.69952e-06			4.05792
1398.44	2	0.591095	1.67603e-06			4.21387
1398.81	2	0.59903	1.64978e-06			4.13605
1399.18	2	0.605774	1.63727e-06			4.13605
1399.54	2	0.613495	1.62872e-06			4.13605
1399.91	2	0.620514	1.61957e-06			4.01855
1400.27	2	0.627808	1.60614e-06			4.13635
1400.64	2	0.635529	1.59821e-06			4.21417
1401.01	2	0.642578	1.59302e-06			4.01855
1401.37	2	0.649323	1.59088e-06			4.15588
1401.74	2	0.657288	1.58661e-06			4.07745
1402.11	2	0.663757	1.5918e-06			4.19464
1402.47	2	0.671875	1.58783e-06			4.13605
1402.84	2	0.679138	1.5741e-06			4.15558
1403.2	2	0.686554	1.56647e-06			4.09668
1403.57	2	0.693634	1.55151e-06			4.05731
1403.94	2	0.700378	1.53839e-06			4.19525
1404.3	2	0.707855	1.52649e-06			4.03748
1404.67	2	0.715668	1.51245e-06			4.01917
1405.04	2	0.722137	1.50421e-06			4.11682
1405.4	2	0.730194	1.49933e-06			4.2334
1405.77	2	0.737244	1.492e-06			4.09729
1406.13	2	0.743713	1.48926e-06			4.13544
1406.5	2	0.751953	1.49323e-06			4.13605
1406.87	2	0.758057	1.49658e-06			4.09729
1407.23	2	0.765991	1.5033e-06			4.15558
1407.6	2	0.772705	1.49719e-06			4.11621
1407.97	2	0.780945	1.48132e-06			4.03839
1408.33	2	0.788269	1.46301e-06			4.05823
1408.7	2	0.794983	1.44043e-06			4.11652
1409.06	2	0.802612	1.41876e-06			4.11591
1409.43	2	0.809631	1.38153e-06			4.01825
1409.8	2	0.817871	1.34674e-06			4.03809
1410.16	2	0.823975	1.3092e-06			4.01855
1410.53	2	0.830994	1.28815e-06			4.05731
1410.89	2	0.839539	1.26617e-06			4.05792
1411.26	2	0.846863	1.24603e-06			4.15497
1411.63	2	0.852966	1.22986e-06			4.13544
1411.99	2	0.861816	1.20789e-06			4.17511
1412.36	2	0.868225	1.18805e-06			4.11591
1412.73	2	0.874939	1.17371e-06			4.15497
1413.09	2	0.883789	1.15784e-06			4.05731
1413.46	2	0.889282	1.13739e-06			4.13574
1413.82	2	0.897827	1.12122e-06			4.15527
1414.19	2	0.905151	1.10535e-06			4.07715
1414.56	2	0.91156	1.08429e-06			4.07715
1414.92	2	0.9198	1.06354e-06			4.15497
1415.29	2	0.925903	1.04187e-06			4.19464
1415.66	2	0.933533	1.01715e-06			4.1748
1416.02	2	0.941772	1.00281e-06			4.13544
1416.39	2	0.949707	9.8938e-07			4.17389
1416.75	2	0.956726	9.78394e-07			4.11682
1417.12	2	0.963135	9.65881e-07			4.03809
1417.49	2	0.970154	9.51233e-07			4.1748
1417.85	2	0.978088	9.45129e-07			4.13605
1418.22	2	0.985107	9.43298e-07			4.03809
1418.59	2	0.991516	9.44214e-07			4.01855
1418.95	2	0.991211	8.61206e-07			4.13544
1419.32	2	0.982666	7.95898e-07			4.07684
1419.68	2	0.975952	7.37915e-07			4.09607
1420.05	2	0.968628	6.89392e-07			4.03809
1420.42	2	0.960999	6.48193e-07			4.2334
1420.78	2	0.952759	6.14014e-07			4.21356
1421.15	2	0.94574	5.81055e-07			4.11682
1421.52	2	0.938721	5.5542e-07			4.05731
1421.88	2	0.932007	5.35889e-07			4.09668
1422.25	2	0.924377	5.16968e-07			4.13605
1422.61	2	0.916443	5.0415e-07			4.15558
1422.98	2	0.909424	5.04456e-07			4.2334
1423.35	2	0.9021	5.08423e-07			4.19434
1423.71	2	0.895996	4.84924e-07			4.15558
1424.08	2	0.887146	4.67529e-07			4.19495
1424.44	2	0.880127	4.49829e-07			4.0567
1424.81	2	0.872192	4.23584e-07			4.23309
1425.18	2	0.865479	3.97644e-07			4.23401
1425.54	2	0.859375	3.66211e-07			4.13605
1425.91	2	0.85144	3.53394e-07			4.17542
1426.28	2	0.845337	3.42407e-07			4.01794
1426.64	2	0.837097	3.34473e-07			3.9798
1427.01	2	0.830078	3.25928e-07			4.13605
1427.37	2	0.822754	3.15552e-07			4.05762
1427.74	2	0.814819	3.02734e-07			4.07776
1428.11	2	0.8078	2.8595e-07			4.1156
1428.47	2	0.800476	2.70691e-07			4.09668
1428.84	2	0.792542	2.53906e-07			4.15558
1429.21	2	0.784912	2.31934e-07			4.17511
1429.57	2	0.778198	2.1637e-07			4.05731
1429.94	2	0.769958	1.92871e-07			4.05792
1430.3	2	0.763855	1.78833e-07			4.13605
1430.67	2	0.756836	1.72119e-07			3.9798
1431.04	2	0.749512	1.69373e-07			4.21417
1431.4	2	0.74231	1.59607e-07			4.03809
1431.77	2	0.735291	1.57166e-07			4.11682
1432.14	2	0.727325	1.52893e-07			4.0976
1432.5	2	0.719879	1.50757e-07			4.05823
1432.87	2	0.712402	1.49536e-07			4.13666
1433.23	2	0.705322	1.51367e-07			4.21387
1433.6	2	0.698456	1.61438e-07			4.11682
1433.97	2	0.690826	1.60828e-07			4.19495
1434.33	2	0.684235	1.53809e-07			4.15527
1434.7	2	0.676178	1.51367e-07			3.99902
1435.06	2	0.66922	1.44958e-07			4.19495
1435.43	2	0.66153	1.40381e-07			4.07715
1435.8	2	0.654938	1.34277e-07			4.11652
1436.16	2	0.646729	1.28479e-07			4.11652
1436.53	2	0.639801	1.23291e-07			4.11652
1436.9	2	0.632568	1.16577e-07			4.11713
1437.26	2	0.624969	1.11694e-07			4.15588
1437.63	2	0.618652	1.14746e-07			4.11682
1437.99	2	0.610687	1.11694e-07			4.19495
1438.36	2	0.603394	1.13831e-07			4.13605
1438.73	2	0.596741	1.11694e-07			4.11652
1439.09	2	0.58844	1.12e-07			4.13574
1439.46	2	0.582123	1.13525e-07			4.15497
1439.83	2	0.574219	1.171875E-07			4.23431
1440.19	2	0.567139	1.25122e-07			4.07684
1440.56	2	0.560028	1.34583e-07			4.09698
1440.92	2	0.55307	1.4801e-07			3.9798
1441.29	2	0.545319	1.44653e-07			4.0387
1441.66	2	0.537415	1.38855e-07			4.07745
1442.02	2	0.530121	1.33667e-07			4.05823
1442.39	2	0.523285	1.27563e-07			4.15619
1442.76	2	0.515961	1.14746e-07			4.11713
1443.12	2	0.508331	1.06201e-07			4.15588
1443.49	2	0.501923	8.88062e-08			4.15649
1443.85	2	0.494446	7.38525e-08			4.09729
1444.22	2	0.487091	6.79016e-08			4.07806
1444.59	2	0.479309	6.31714e-08			4.17542
1444.95	2	0.472565	6.06995e-08			4.0976
1445.32	2	0.464691	5.35583e-08			4.07806
1445.68	2	0.45697	4.98657e-08			4.17542
1446.05	2	0.451019	4.26331e-08			4.11713
1446.42	2	0.443237	3.0304e-08			4.0979
1446.78	2	0.435516	1.69983e-08			4.15558
1447.15	2	0.428223	4.24194e-09			4.11652
1447.52	2	0.421204	-1.81274e-08			3.94135
1447.88	2	0.413513	-4.06494e-08			4.13605
1448.25	2	0.407501	-6.58875e-08			4.13605
1448.61	2	0.398987	-8.2428e-08			4.09729
1448.98	2	0.391815	-9.24683e-08			4.17511
1449.35	2	0.384338	-9.93958e-08			4.17542
1449.71	2	0.377441	-1.10382e-07			4.039
1450.08	2	0.36969	-1.15265e-07			4.17511
1450.45	2	0.363281	-1.17584e-07			4.0976
1450.81	2	0.356018	-1.203e-07			4.17511
1451.18	2	0.348877	-1.19293e-07			4.05792
1451.54	2	0.341125	-1.297e-07			4.17542
1451.91	2	0.333313	-1.51276e-07			4.039
1452.28	2	0.326813	-1.71387e-07			4.13635
1452.64	2	0.319	-1.96045e-07			4.07745
1453.01	2	0.311737	-2.2464e-07			4.01886
1453.38	2	0.304413	-2.52899e-07			4.13635
1453.74	2	0.296783	-2.81952e-07			4.25385
1454.11	2	0.290375	-3.15247e-07			3.9801
1454.47	2	0.282227	-3.4729e-07			4.11682
1454.84	2	0.275177	-3.82996e-07			4.17542
1455.21	2	0.268585	-4.13513e-07			4.01886
1455.57	2	0.26059	-4.47388e-07			4.07776
1455.94	2	0.253815	-4.72717e-07			4.21478
1456.3	2	0.246704	-5.05371e-07			4.19556
1456.67	2	0.239014	-5.62134e-07			4.09729
1457.04	2	0.231415	-6.23474e-07			4.13635
1457.4	2	0.22467	-6.96106e-07			4.13666
1457.77	2	0.216705	-7.83386e-07			4.11713
1458.14	2	0.209595	-8.8501e-07			4.15558
1458.5	2	0.202393	-1.00555e-06			4.13605
1458.87	2	0.194885	-1.16455e-06			4.17633
1459.23	2	0.18808	-1.35712e-06			4.05762
1459.6	2	0.180084	-1.59729e-06			4.15619
1459.97	2	0.172699	-1.88629e-06			4.23553
1460.33	2	0.16571	-2.26044e-06			4.09821
1460.7	2	0.158905	-2.73132e-06			4.11713
1461.07	2	0.150757	-3.30475e-06			4.17542
1461.43	2	0.144287	-4.00421e-06			4.25385
1461.8	2	0.136902	-4.84924e-06			4.09668
1462.16	2	0.128967	-5.83191e-06			4.07776
1462.53	2	0.122375	-6.9519e-06			4.13727
1462.9	2	0.115204	-8.22449e-06			4.01917
1463.26	2	0.107544	-9.6344e-06			4.039
1463.63	2	0.100433	-1.11908e-05			4.15619
1464	2	0.0934143	-1.28662e-05			4.11652
1464.36	2	0.0859375	-1.46362e-05			4.09821
1464.73	2	0.0789795	-1.65466e-05			4.01917
1465.09	2	0.0715332	-1.8576e-05			4.17542
1465.46	2	0.0639648	-2.06848e-05			4.09729
1465.83	2	0.056488	-2.28729e-05			4.19586
1466.19	2	0.0490723	-2.52014e-05			4.11743
1466.56	2	0.044812	-2.76062e-05			4.00024
1466.93	2	0.0374207	-3.00568e-05			4.07837
1467.29	2	0.0298676	-3.26935e-05			4.11713
1467.66	2	0.0229858	-3.52936e-05			4.07837
1468.02	2	0.0158508	-3.79517e-05			4.09851
1468.39	2	0.00879211	-4.06525e-05			4.01917
1468.76	2	0.00132141	-4.33838e-05			4.07806
1469.12	2	-0.0066864	-4.61273e-05			4.02008
1469.49	2	-0.0130798	-4.89197e-05			4.02008
1469.85	2	-0.0205505	-5.18188e-05			4.01978
1470.22	2	-0.028241	-5.4657e-05			4.01978
1470.59	2	-0.035788	-5.75562e-05			4.05853
1470.95	2	-0.0433472	-6.04248e-05			3.98102
1471.32	2	-0.050415	-6.3324e-05			4.17664
1471.69	2	-0.059906	-6.62231e-05			3.96118
1472.05	2	-0.0673523	-6.90613e-05			4.03931
1472.42	2	-0.0749207	-7.18079e-05			3.94196
1472.78	2	-0.0822144	-7.44629e-05			4.039
1473.15	2	-0.0894775	-7.69653e-05			4.05884
1473.52	2	-0.0971375	-7.93457e-05			4.05762
1473.88	2	-0.104492	-8.15125e-05			3.96179
1474.25	2	-0.111572	-8.34961e-05			3.90259
1474.62	2	-0.118439	-8.52966e-05			4.11743
1474.98	2	-0.125519	-8.6853e-05			3.99994
1475.35	2	-0.1328125	-8.81653e-05			4.02008
1475.71	2	-0.140015	-8.92944e-05			3.98071
1476.08	2	-0.148285	-9.01489e-05			3.98071
1476.45	2	-0.155701	-9.07898e-05			4.09821
1476.81	2	-0.162292	-9.1156e-05			3.94165
1477.18	2	-0.169281	-9.12781e-05			3.96149
1477.55	2	-0.176605	-9.1217e-05			3.96149
1477.91	2	-0.183807	-9.09729e-05			3.84338
1478.28	2	-0.192169	-9.05762e-05			3.88275
1478.64	2	-0.199402	-8.99963e-05			3.9624
1479.01	2	-0.20578	-8.9386e-05			3.96118
1479.38	2	-0.213226	-8.86841e-05			4.03961
1479.74	2	-0.221283	-8.80127e-05			3.94226
1480.11	2	-0.228516	-8.73108e-05			3.80554
1480.47	2	-0.235657	-8.66394e-05			3.84369
1480.84	2	-0.242279	-8.60291e-05			3.86353
1481.21	2	-0.249847	-8.55103e-05			3.84399
1481.57	2	-0.256744	-8.50525e-05			3.80554
1481.94	2	-0.264221	-8.46558e-05			3.94226
1482.31	2	-0.271637	-8.43506e-05			3.86383
1482.67	2	-0.279572	-8.40759e-05			3.92273
1483.04	2	-0.287079	-8.39233e-05			3.90259
1483.4	2	-0.293762	-8.38623e-05			3.88367
1483.77	2	-0.300964	-8.38623e-05			3.86322
1484.14	2	-0.308014	-8.39233e-05			4.02039
1484.5	2	-0.316162	-8.41675e-05			3.8443
1484.87	2	-0.322968	-8.43811e-05			3.82507
1485.24	2	-0.330658	-8.47168e-05			3.80585
1485.6	2	-0.337402	-8.51746e-05			3.76129
1485.97	2	-0.345215	-8.56934e-05			3.74237
1486.33	2	-0.352325	-8.63037e-05			3.66486
1486.7	2	-0.359985	-8.69751e-05			3.82507
1487.07	2	-0.367126	-8.77686e-05			3.74237
1487.43	2	-0.373657	-8.87146e-05			3.86414
1487.8	2	-0.381989	-8.97217e-05			3.78601
1488.17	2	-0.389008	-9.08508e-05			3.74237
1488.53	2	-0.396332	-9.21021e-05			3.80585
1488.9	2	-0.40271	-9.34448e-05			3.74115
1489.26	2	-0.410858	-9.48486e-05			3.78601
1489.63	2	-0.417786	-9.6344e-05			3.80585
1490	2	-0.42511	-9.79309e-05			3.78662
1490.36	2	-0.432434	-9.95483e-05			3.66486
1490.73	2	-0.440308	-0.000101227			3.78601
1491.09	2	-0.447296	-0.000102997			3.7027
1491.46	2	-0.453918	-0.000104828			3.703
1491.83	2	-0.461426	-0.00010672			3.74207
1492.19	2	-0.469391	-0.000108643			3.62518
1492.56	2	-0.47644	-0.000110596			3.68347
1492.93	2	-0.483856	-0.00011264			3.60535
1493.29	2	-0.490967	-0.000114716			3.68378
1493.66	2	-0.498596	-0.000116821			3.58551
1494.02	2	-0.505035	-0.000118958			3.54706
1494.39	2	-0.513031	-0.000121155			3.60596
1494.76	2	-0.519531	-0.000123474			3.6261
1495.12	2	-0.526917	-0.000125854			3.48816
1495.49	2	-0.534149	-0.000128357			3.52692
1495.86	2	-0.541931	-0.000130951			3.44818
1496.22	2	-0.54892	-0.000133698			3.56628
1496.59	2	-0.556946	-0.000136505			3.42957
1496.95	2	-0.56424	-0.000139435			3.42865
1497.32	2	-0.571716	-0.000142517			3.54706
1497.69	2	-0.578369	-0.000145721			3.54706
1498.05	2	-0.585876	-0.000149048			3.46832
1498.42	2	-0.592682	-0.000152496			3.48816
1498.79	2	-0.600555	-0.000156097			3.42926
1499.15	2	-0.606995	-0.000159882			3.52753
1499.52	2	-0.615082	-0.000163788			3.48816
1499.88	2	-0.62265	-0.000167847			3.37036
1500.25	2	-0.6297	-0.000172028			3.3902
1500.62	2	-0.636963	-0.000176361			3.37036
1500.98	2	-0.644592	-0.000180817			3.41003
1501.35	2	-0.651215	-0.000185425			3.42926
1501.71	2	-0.6586	-0.000190186			3.37036
1502.08	2	-0.665619	-0.000195068			3.31146
1502.45	2	-0.67276	-0.000200073			3.29224
1502.81	2	-0.680084	-0.00020517			3.27179
1503.18	2	-0.688263	-0.000210419			3.19458
1503.55	2	-0.695435	-0.000215668			3.21442
1503.91	2	-0.702911	-0.000220978			3.21411
1504.28	2	-0.695831	-0.00019165			3.27209
1504.64	2	-0.688293	-0.000167206			3.21442
1505.01	2	-0.681	-0.000145844			3.21381
1505.38	2	-0.672577	-0.00012677			3.2135
1505.74	2	-0.666351	-0.000109528			3.17474
1506.11	2	-0.65863	-9.37195e-05			3.17535
1506.48	2	-0.651794	-7.91626e-05			3.25348
1506.84	2	-0.644379	-6.57349e-05			3.17535
1507.21	2	-0.636688	-5.33142e-05			3.17444
1507.57	2	-0.629089	-4.17023e-05			3.17474
1507.94	2	-0.622284	-3.09418e-05			3.07739
1508.31	2	-0.614838	-2.08954e-05			3.11615
1508.67	2	-0.60788	-1.15112e-05			3.23242
1509.04	2	-0.599731	-2.67914e-06			3.15552
1509.41	2	-0.593109	5.66406e-06			3.19519
1509.77	2	-0.585327	1.33667e-05			3.25256
1510.14	2	-0.57843	2.06604e-05			3.21381
1510.5	2	-0.570435	2.74902e-05			3.27209
1510.87	2	-0.56366	3.38104e-05			3.15491
1511.24	2	-0.556519	3.9801e-05			3.31116
1511.6	2	-0.549469	4.5401e-05			3.23303
1511.97	2	-0.541992	5.07202e-05			3.21411
1512.34	2	-0.533905	5.56946e-05			3.19397
1512.7	2	-0.527252	6.03943e-05			3.25256
1513.07	2	-0.519928	6.47583e-05			3.25256
1513.43	2	-0.513	6.89087e-05			3.25287
1513.8	2	-0.505646	7.27539e-05			3.3902
1514.17	2	-0.497498	7.6416e-05			3.3313
1514.53	2	-0.490295	7.9834e-05			3.38928
1514.9	2	-0.483154	8.30688e-05			3.25287
1515.26	2	-0.476318	8.60901e-05			3.3902
1515.63	2	-0.46936	8.88977e-05			3.37036
1516	2	-0.461395	9.15833e-05			3.35052
1516.36	2	-0.454529	9.40552e-05			3.33099
1516.73	2	-0.446625	9.6344e-05			3.44818
1517.1	2	-0.440216	9.85107e-05			3.52692
1517.46	2	-0.432831	0.000100433			3.44849
1517.83	2	-0.424866	0.000102173			3.42865
1518.19	2	-0.417664	0.00010379			3.31177
1518.56	2	-0.410889	0.000105255			3.44849
1518.93	2	-0.403412	0.000106537			3.54675
1519.29	2	-0.396179	0.000107697			3.48816
1519.66	2	-0.388031	0.000108704			3.54706
1520.03	2	-0.380981	0.000109528			3.54675
1520.39	2	-0.373993	0.000110168			3.58551
1520.76	2	-0.366882	0.000110687			3.62579
1521.12	2	-0.35907	0.000110962			3.52692
1521.49	2	-0.351898	0.000111023			3.68378
1521.86	2	-0.344879	0.000110901			3.54706
1522.22	2	-0.337555	0.000110596			3.64532
1522.59	2	-0.330109	0.000110077			3.7027
1522.96	2	-0.322449	0.000109344			3.66425
1523.32	2	-0.315674	0.000108398			3.72284
1523.69	2	-0.308807	0.000107391			3.66394
1524.05	2	-0.301453	0.00010614			3.68347
1524.42	2	-0.29425	0.000104706			3.62518
1524.79	2	-0.286133	0.000103119			3.92181
1525.15	2	-0.27951	0.000101471			3.62518
1525.52	2	-0.271637	9.97009e-05			3.70331
1525.88	2	-0.264526	9.79004e-05			3.78571
1526.25	2	-0.257416	9.60999e-05			3.703
1526.62	2	-0.249664	9.43604e-05			3.68286
1526.98	2	-0.242981	9.26819e-05			3.78571
1527.35	2	-0.235413	9.1095e-05			3.703
1527.72	2	-0.228668	8.96301e-05			3.90228
1528.08	2	-0.220917	8.83179e-05			3.80585
1528.45	2	-0.213257	8.71582e-05			3.82538
1528.81	2	-0.205658	8.61206e-05			3.72223
1529.18	2	-0.198456	8.52051e-05			3.92212
1529.55	2	-0.192017	8.44116e-05			3.86322
1529.91	2	-0.184418	8.38013e-05			3.76129
1530.28	2	-0.177277	8.32825e-05			3.94226
1530.65	2	-0.169312	8.28552e-05			3.78571
1531.01	2	-0.161835	8.255e-05			3.76129
1531.38	2	-0.155487	8.23669e-05			3.90259
1531.74	2	-0.147797	8.23364e-05			3.78632
1532.11	2	-0.140564	8.23364e-05			3.94165
1532.48	2	-0.133301	8.24585e-05			3.92151
1532.84	2	-0.126343	8.26721e-05			3.80615
1533.21	2	-0.118683	8.28857e-05			3.90259
1533.58	2	-0.111816	8.31604e-05			3.82507
1533.94	2	-0.103729	8.34961e-05			3.92242
1534.31	2	-0.097168	8.38623e-05			3.92151
1534.67	2	-0.0901184	8.4259e-05			4.02008
1535.04	2	-0.0823669	8.46558e-05			3.92181
1535.41	2	-0.0748596	8.5083e-05			4.01947
1535.77	2	-0.0682068	8.55103e-05			4.00024
1536.14	2	-0.060791	8.58765e-05			3.92273
1536.5	2	-0.0529785	8.61816e-05			4.00024
1536.87	2	-0.0430359	8.63953e-05			3.98041
1537.24	2	-0.0353363	8.65479e-05			3.96149
1537.6	2	-0.0280182	8.65784e-05			3.98132
1537.97	2	-0.0204559	8.64868e-05			3.98102
1538.34	2	-0.0131744	8.63342e-05			4.0979
1538.7	2	-0.00584106	8.60901e-05			4.02008
1539.07	2	0.0013855	8.57849e-05			3.86414
1539.43	2	0.00847168	8.54492e-05			3.98041
1539.8	2	0.0157349	8.50525e-05			4.01947
1540.17	2	0.0227356	8.46252e-05			3.88306
1540.53	2	0.029895	8.40759e-05			4.03931
1540.9	2	0.0371429	8.33435e-05			4.07806
1541.27	2	0.0444702	8.23669e-05			3.98071
1541.63	2	0.0489197	8.10547e-05			3.96149
1542	2	0.0567017	7.92847e-05			4.0979
1542.36	2	0.0637512	7.69958e-05			3.98041
1542.73	2	0.0715332	7.40967e-05			3.96088
1543.1	2	0.0786438	7.05566e-05			4.13727
1543.46	2	0.0851135	6.62842e-05			4.05853
1543.83	2	0.0930786	6.13403e-05			3.96088
1544.2	2	0.100677	5.56946e-05			4.11774
1544.56	2	0.107727	4.94385e-05			3.99994
1544.93	2	0.114471	4.27795e-05			4.11682
1545.29	2	0.122589	3.60535e-05			4.13727
1545.66	3	0.1297	2.95868e-05			4.0387
1546.03	3	0.136322	2.38068e-05			4.03931
1546.39	3	0.143585	1.89453e-05			4.05853
1546.76	3	0.151642	1.51154e-05			4.11713
1547.13	3	0.158661	1.22223e-05			4.15588
1547.49	3	0.16568	1.00372e-05			3.94226
1547.86	3	0.173737	8.39844e-06			4.07776
1548.22	3	0.180237	7.26013e-06			4.03839
1548.59	3	0.187988	6.3324e-06			4.21509
1548.96	3	0.194672	5.61218e-06			3.95996
1549.32	3	0.20224	5.06897e-06			4.15649
1549.69	3	0.209106	4.62952e-06			4.17542
1550.05	3	0.217285	4.28467e-06			4.07776
1550.42	3	0.223938	4.01611e-06			3.98041
1550.79	3	0.232025	3.81134e-06			4.0976
1551.15	3	0.238556	3.63556e-06			4.11743
1551.52	3	0.246307	3.48724e-06			4.13696
1551.89	3	0.253906	3.359375E-06			4.17511
1552.25	3	0.260315	3.24371e-06			3.94135
1552.62	3	0.268188	3.13751e-06			4.11713
1552.98	3	0.274872	3.03711e-06			4.13666
1553.35	3	0.282623	2.93884e-06			3.96118
1553.72	3	0.290253	2.83936e-06			4.17572
1554.08	3	0.296844	2.73865e-06			4.07715
1554.45	3	0.3046875	2.6535e-06			3.99933
1554.82	3	0.311676	2.58026e-06			4.09821
1555.18	3	0.319122	2.5061e-06			4.0387
1555.55	3	0.326569	2.43805e-06			4.11682
1555.91	3	0.333252	2.3822e-06			4.13635
1556.28	3	0.341553	2.34497e-06			3.96057
1556.65	3	0.347839	2.30072e-06			4.05823
1557.01	3	0.355621	2.25586e-06			4.25354
1557.38	3	0.363464	2.21222e-06			4.07776
1557.75	3	0.369659	2.16278e-06			4.05792
1558.11	3	0.377625	2.12524e-06			4.19525
1558.48	3	0.38446	2.09198e-06			4.13635
1558.84	3	0.392395	2.06726e-06			4.03839
1559.21	3	0.399628	2.05505e-06			4.25446
1559.58	3	0.40625	2.05292e-06			4.13635
1559.94	3	0.414368	2.02637e-06			3.96118
1560.31	3	0.4216	2.00073e-06			4.15558
1560.67	3	0.428192	1.97083e-06			4.13666
1561.04	3	0.436401	1.92719e-06			4.15619
1561.41	3	0.443176	1.87775e-06			4.19525
1561.77	3	0.450043	1.8576e-06			4.05853
1562.14	3	0.457306	1.8396e-06			4.13635
1562.51	3	0.464844	1.82281e-06			4.07745
1562.87	3	0.472687	1.8042e-06			4.19525
1563.24	3	0.479156	1.77917e-06			4.05762
1563.6	3	0.487152	1.74561e-06			4.09698
1563.97	3	0.494781	1.71082e-06			3.99963
1564.34	3	0.50116	1.66046e-06			4.01947
1564.7	3	0.509216	1.63879e-06			4.13666
1565.07	3	0.51651	1.63483e-06			4.0387
1565.44	3	0.52356	1.62933e-06			4.17511
1565.8	3	0.530945	1.62201e-06			4.11682
1566.17	3	0.537476	1.62781e-06			4.09668
1566.53	3	0.544891	1.61377e-06			4.17542
1566.9	3	0.552155	1.59515e-06			4.05823
1567.27	3	0.560364	1.58203e-06			3.96088
1567.63	3	0.567444	1.57135e-06			4.05792
1568	3	0.574646	1.56372e-06			4.11682
1568.37	3	0.582275	1.55945e-06			4.07776
1568.73	3	0.588501	1.56738e-06			4.03809
1569.1	3	0.595825	1.58844e-06			4.05792
1569.46	3	0.603729	1.58844e-06			4.13666
1569.83	3	0.611176	1.57318e-06			4.01886
1570.2	3	0.6185	1.55457e-06			4.19464
1570.56	3	0.625427	1.52863e-06			3.90198
1570.93	3	0.632324	1.49628e-06			4.05823
1571.29	3	0.639893	1.4859e-06			4.0979
1571.66	3	0.647278	1.4798e-06			4.11652
1572.03	3	0.654114	1.47003e-06			3.96088
1572.39	3	0.661346	1.45416e-06			4.13635
1572.76	3	0.668976	1.43341e-06			4.11682
1573.13	3	0.676117	1.4151e-06			4.01917
1573.49	3	0.684357	1.39038e-06			4.11652
1573.86	3	0.690552	1.34705e-06			4.1748
1574.22	3	0.698395	1.31989e-06			4.01855
1574.59	3	0.705261	1.30219e-06			4.07745
1574.96	3	0.712463	1.2915e-06			4.01825
1575.32	3	0.720459	1.28204e-06			4.17542
1575.69	3	0.727661	1.27594e-06			3.99963
1576.06	3	0.734375	1.27045e-06			4.11652
1576.42	3	0.742157	1.24603e-06			4.09668
1576.79	3	0.748901	1.21704e-06			3.9798
1577.15	3	0.75592	1.18469e-06			4.05762
1577.52	3	0.76416	1.16211e-06			4.05731
1577.89	3	0.771179	1.14624e-06			4.03778
1578.25	3	0.778198	1.13464e-06			4.05701
1578.62	3	0.784912	1.1264e-06			4.07745
1578.99	3	0.793152	1.12854e-06			4.09729
1579.35	3	0.800781	1.13098e-06			4.19434
1579.72	3	0.808411	1.12122e-06			4.09668
1580.08	3	0.815125	1.10138e-06			4.09698
1580.45	3	0.822754	1.08124e-06			4.09698
1580.82	3	0.828552	1.06415e-06			4.05792
1581.18	3	0.836792	1.04156e-06			3.97949
1581.55	3	0.845032	1.00983e-06			4.01855
1581.91	3	0.85144	9.95483e-07			4.07745
1582.28	3	0.859375	9.9823e-07			4.1748
1582.65	3	0.865784	9.86633e-07			4.09668
1583.01	3	0.873718	9.7168e-07			3.94043
1583.38	3	0.880737	9.5459e-07			4.11652
1583.75	3	0.888367	9.34143e-07			4.13544
1584.11	3	0.894775	9.09424e-07			4.03778
1584.48	3	0.902405	8.88367e-07			4.07684
1584.84	3	0.908813	8.62427e-07			4.1748
1585.21	3	0.916443	8.27026e-07			4.09729
1585.58	3	0.924072	8.06274e-07			4.03748
1585.94	3	0.931091	7.9834e-07			4.03778
1586.31	3	0.938721	7.94983e-07			4.11621
1586.68	3	0.947266	7.91931e-07			4.09698
1587.04	3	0.953674	7.9071e-07			4.01825
1587.41	3	0.960083	7.97424e-07			4.09637
1587.77	3	0.968018	7.94373e-07			4.07684
1588.14	3	0.975037	7.87659e-07			4.03778
1588.51	3	0.981445	7.79114e-07			4.11621
1588.87	3	0.989685	7.69348e-07			3.9798
1589.24	3	0.992126	7.09534e-07			4.11682
1589.61	3	0.986023	6.21643e-07			4.05762
1589.97	3	0.976868	5.71899e-07			4.13605
1590.34	3	0.971069	5.35278e-07			4.15527
1590.7	3	0.963745	5.10864e-07			4.03809
1591.07	3	0.955811	5.06897e-07			3.97949
1591.44	3	0.949097	4.98047e-07			4.1745
1591.8	3	0.940857	4.78821e-07			4.17542
1592.17	3	0.934448	4.53186e-07			4.19464
1592.54	3	0.927734	4.3457e-07			3.92181
1592.9	3	0.919495	4.0802e-07			4.11652
1593.27	3	0.911865	3.79944e-07			4.01825
1593.63	3	0.905457	3.515625E-07			3.9798
1594	3	0.897522	3.34778e-07			4.07715
1594.37	3	0.891113	3.24707e-07			4.13635
1594.73	3	0.882874	3.13416e-07			4.19464
1595.1	3	0.875244	3.01208e-07			4.15527
1595.46	3	0.867615	2.85339e-07			4.1745
1595.83	3	0.860596	2.6825e-07			4.17419
1596.2	3	0.852966	2.48108e-07			4.15558
1596.56	3	0.846558	2.21863e-07			4.07684
1596.93	3	0.840149	1.85242e-07			4.15527
1597.3	3	0.832214	1.75171e-07			4.15527
1597.66	3	0.8255	1.69678e-07			4.11652
1598.03	3	0.817261	1.62964e-07			4.05823
1598.39	3	0.810242	1.63269e-07			4.05762
1598.76	3	0.802917	1.69678e-07			3.97919
1599.13	3	0.794983	1.76392e-07			3.99963
1599.49	3	0.787964	1.70288e-07			4.01855
1599.86	3	0.781555	1.66626e-07			4.05762
1600.23	3	0.773926	1.5564e-07			4.09698
1600.59	3	0.765991	1.47705e-07			4.13666
1600.96	3	0.758667	1.41602e-07			4.01855
1601.32	3	0.751343	1.42212e-07			4.05792
1601.69	3	0.743408	1.49536e-07			4.11621
1602.06	3	0.737183	1.62964e-07			4.09698
1602.42	3	0.730347	1.87073e-07			4.01917
1602.79	3	0.722839	1.92871e-07			4.07776
1603.16	3	0.714966	1.86157e-07			4.09698
1603.52	3	0.708191	1.79443e-07			4.11621
1603.89	3	0.701111	1.66626e-07			4.17511
1604.25	3	0.693207	1.41296e-07			4.07776
1604.62	3	0.686615	1.33667e-07			4.07745
1604.99	3	0.678925	1.32141e-07			4.13574
1605.35	3	0.6716	1.31531e-07			4.05731
1605.72	3	0.664825	1.29395e-07			3.99994
1606.08	3	0.656921	1.17798e-07			4.0976
1606.45	3	0.650238	1.01624e-07			4.13574
1606.82	3	0.64209	7.84302e-08			4.03809
1607.18	3	0.634705	4.42505e-08			4.15588
1607.55	3	0.62796	3.44849e-08			4.07715
1607.92	3	0.620178	3.57056e-08			4.13666
1608.28	3	0.613159	3.9978e-08			4.13635
1608.65	3	0.605743	5.49316e-08			4.13605
1609.01	3	0.598297	5.98145e-08			4.09698
1609.38	3	0.590942	5.67627e-08			4.07684
1609.75	3	0.583954	5.21851e-08			4.07715
1610.11	3	0.576355	4.5166e-08			4.07745
1610.48	3	0.569061	5.15747e-08			4.07745
1610.85	3	0.56192	6.67725e-08			4.17572
1611.21	3	0.554321	9.71985e-08			4.05701
1611.58	3	0.548126	1.12701e-07			4.0387
1611.94	3	0.539825	1.04279e-07			4.15619
1612.31	3	0.532867	9.198e-08			3.98041
1612.68	3	0.526062	7.06787e-08			4.07684
1613.04	3	0.518341	5.49622e-08			4.05823
1613.41	3	0.516174	5.06592e-08			0.490265
1613.78	3	0.503967	5.17273e-08			3.96027
1614.14	3	0.496124	4.49524e-08			4.09729
1614.51	3	0.489014	2.80151e-08			4.00024
1614.87	3	0.481659	8.66699e-09			4.0979
1615.24	3	0.47464	-2.58789e-08			4.03839
1615.61	3	0.46701	-5.06592e-08			4.07715
1615.97	3	0.460358	-5.19714e-08			4.0976
1616.34	3	0.453064	-5.49622e-08			4.15497
1616.7	3	0.445953	-4.76685e-08			4.13574
1617.07	3	0.43869	-3.479e-08			4.19464
1617.44	3	0.431366	-3.55225e-08			4.05823
1617.8	3	0.423615	-4.25415e-08			4.11652
1618.17	3	0.41626	-5.32532e-08			4.0976
1618.54	3	0.408844	-6.073e-08			4.11774
1618.9	3	0.401245	-5.97839e-08			4.17511
1619.27	3	0.394623	-5.92346e-08			4.01917
1619.63	3	0.387024	-4.75464e-08			4.07715
1620	3	0.379089	-2.73132e-08			4.17511
1620.37	3	0.373169	-2.23389e-08			3.99963
1620.73	3	0.365784	-3.25623e-08			4.07745
1621.1	3	0.358459	-5.05066e-08			4.01886
1621.47	3	0.351166	-6.92139e-08			4.03809
1621.83	3	0.343811	-9.65881e-08			4.05762
1622.2	3	0.336639	-1.31836e-07			4.0976
1622.56	3	0.328827	-1.56952e-07			4.11774
1622.93	3	0.321228	-1.71509e-07			4.0387
1623.3	3	0.314331	-1.9223e-07			4.05762
1623.66	3	0.306519	-2.20856e-07			4.17511
1624.03	3	0.299561	-2.54761e-07			4.05853
1624.4	3	0.292755	-2.97546e-07			4.07776
1624.76	3	0.284729	-3.3844e-07			4.07745
1625.13	3	0.278351	-3.88794e-07			4.11682
1625.49	3	0.270935	-4.52271e-07			4.0979
1625.86	3	0.263	-5.09033e-07			4.11713
1626.23	3	0.255432	-5.57861e-07			3.96149
1626.59	3	0.248383	-6.06384e-07			4.27368
1626.96	3	0.241058	-6.51245e-07			4.07776
1627.33	3	0.233521	-7.0282e-07			4.15588
1627.69	3	0.226349	-7.56836e-07			4.05823
1628.06	3	0.218903	-8.08105e-07			4.07776
1628.42	3	0.212402	-8.96912e-07			4.00024
1628.79	3	0.204224	-1.0025e-06			4.09729
1629.16	3	0.197571	-1.13678e-06			4.19464
1629.52	3	0.190033	-1.29791e-06			4.07776
1629.89	3	0.182617	-1.50665e-06			4.09821
1630.25	3	0.175262	-1.77185e-06			4.17633
1630.62	3	0.168854	-2.10114e-06			4.11682
1630.99	3	0.160919	-2.51556e-06			4.07776
1631.35	3	0.153412	-3.03558e-06			4.01886
1631.72	3	0.146271	-3.65906e-06			4.07776
1632.09	3	0.13913	-4.40369e-06			4.07806
1632.45	3	0.131622	-5.32837e-06			4.17572
1632.82	3	0.124939	-6.38733e-06			4.15588
1633.18	3	0.117676	-7.58972e-06			3.9801
1633.55	3	0.109619	-8.93555e-06			4.07837
1633.92	3	0.102478	-1.04492e-05			4.0976
1634.28	3	0.0958862	-1.20789e-05			4.13696
1634.65	3	0.0886536	-1.38306e-05			4.0979
1635.02	3	0.0812073	-1.57043e-05			4.01947
1635.38	3	0.0737	-1.77002e-05			4.03839
1635.75	3	0.0658569	-1.97723e-05			4.13727
1636.11	3	0.0589294	-2.19757e-05			4.11774
1636.48	3	0.0519714	-2.42737e-05			4.17603
1636.85	3	0.0474701	-2.66571e-05			4.19617
1637.21	3	0.0395508	-2.9129e-05			4.05853
1637.58	3	0.0332428	-3.17261e-05			4.09851
1637.95	3	0.02578125	-3.43475e-05			4.039
1638.31	3	0.0176147	-3.69995e-05			4.05853
1638.68	3	0.0103088	-3.96729e-05			3.96118
1639.04	3	0.00385742	-4.2395e-05			4.03992
1639.41	3	-0.00422058	-4.5166e-05			4.11835
1639.78	3	-0.0113098	-4.79553e-05			4.05823
1640.14	3	-0.0180847	-5.08118e-05			4.09729
1640.51	3	-0.0260895	-5.36499e-05			3.98102
1640.87	3	-0.0330994	-5.65186e-05			4.07837
1641.24	3	-0.0408417	-5.94177e-05			4.03931
1641.61	3	-0.0473633	-6.23169e-05			4.09821
1641.97	3	-0.0583496	-6.52161e-05			3.98102
1642.34	3	-0.0647888	-6.80847e-05			3.98102
1642.71	3	-0.0729065	-7.08618e-05			4.0979
1643.07	3	-0.0793457	-7.35779e-05			4.03931
1643.44	3	-0.0875244	-7.61414e-05			4.01947
1643.8	3	-0.0944824	-7.85217e-05			3.94226
1644.17	3	-0.101746	-8.078e-05			3.98102
1644.54	3	-0.108643	-8.28552e-05			4.05884
1644.9	3	-0.115936	-8.47168e-05			4.13696
1645.27	3	-0.123993	-8.63647e-05			4.09729
1645.64	3	-0.130798	-8.77991e-05			4.05823
1646	3	-0.138611	-8.90198e-05			3.92212
1646.37	3	-0.145416	-8.99963e-05			4.01978
1646.73	3	-0.153137	-9.07288e-05			4.01978
1647.1	3	-0.160278	-9.11865e-05			3.98163
1647.47	3	-0.167542	-9.14307e-05			4.01947
1647.83	3	-0.174225	-9.14612e-05			3.90198
1648.2	3	-0.181854	-9.12781e-05			3.99994
1648.57	3	-0.189545	-9.09424e-05			3.88336
1648.93	3	-0.196167	-9.04541e-05			3.98132
1649.3	3	-0.204163	-8.98743e-05			3.92242
1649.66	3	-0.211304	-8.92334e-05			3.90228
1650.03	3	-0.218231	-8.8562e-05			3.94226
1650.4	3	-0.225128	-8.78601e-05			3.88245
1650.76	3	-0.232941	-8.71887e-05			3.88275
1651.13	3	-0.239777	-8.65479e-05			3.90259
1651.49	3	-0.247284	-8.59375E-05			3.82416
1651.86	3	-0.255035	-8.54492e-05			3.80524
1652.23	3	-0.262634	-8.49915e-05			3.94196
1652.59	3	-0.269592	-8.46558e-05			3.90289
1652.96	3	-0.276459	-8.43811e-05			3.88397
1653.33	3	-0.284027	-8.41675e-05			3.80524
1653.69	3	-0.290833	-8.40454e-05			3.76068
1654.06	3	-0.298737	-8.40149e-05			3.82507
1654.42	3	-0.306427	-8.40454e-05			3.86353
1654.79	3	-0.313354	-8.4137e-05			3.80554
1655.16	3	-0.321045	-8.43811e-05			3.88336
1655.52	3	-0.327881	-8.46558e-05			3.8443
1655.89	3	-0.335175	-8.5022e-05			3.82477
1656.26	3	-0.342896	-8.55103e-05			3.76068
1656.62	3	-0.349487	-8.61206e-05			3.78601
1656.99	3	-0.35672	-8.6792e-05			3.86383
1657.35	3	-0.364807	-8.75854e-05			3.62579
1657.72	3	-0.369263	-8.84705e-05			0.429016
1658.09	3	-0.379303	-8.9447e-05			3.86383
1658.45	3	-0.38678	-9.05457e-05			3.74176
1658.82	3	-0.393616	-9.17664e-05			3.78632
1659.19	3	-0.400513	-9.30481e-05			3.70239
1659.55	3	-0.405579	-9.44519e-05			0.430878
1659.92	3	-0.414917	-9.59473e-05			3.7027
1660.28	3	-0.422272	-9.75342e-05			3.68286
1660.65	3	-0.429901	-9.91211e-05			3.78601
1661.02	3	-0.437531	-0.000100769			3.66455
1661.38	3	-0.445129	-0.000102478			3.68408
1661.75	3	-0.452179	-0.000104279			3.74237
1662.11	3	-0.459412	-0.000106079			3.54614
1662.48	3	-0.466949	-0.000107941			3.60535
1662.85	3	-0.473389	-0.000109863			3.66486
1663.21	3	-0.480621	-0.000111847			3.68378
1663.58	3	-0.488678	-0.000113892			3.60504
1663.95	3	-0.496185	-0.000115967			3.54706
1664.31	3	-0.50351	-0.000118073			3.66394
1664.68	3	-0.510773	-0.000120239			3.60535
1665.04	3	-0.517059	-0.000122467			3.58551
1665.41	3	-0.524384	-0.000124786			3.54645
1665.78	3	-0.532227	-0.000127197			3.44879
1666.14	3	-0.539764	-0.000129761			3.54675
1666.51	3	-0.54718	-0.000132446			3.54645
1666.88	3	-0.553772	-0.000135254			3.50708
1667.24	3	-0.561829	-0.000138184			3.56598
1667.61	3	-0.569031	-0.000141296			3.46924
1667.97	3	-0.576355	-0.00014447			3.48877
1668.34	3	-0.583496	-0.000147797			3.42926
1668.71	3	-0.590973	-0.000151245			3.46924
1669.07	3	-0.597382	-0.000154846			3.3316
1669.44	3	-0.604675	-0.0001586			3.3313
1669.81	3	-0.613068	-0.000162506			3.36975
1670.17	3	-0.620178	-0.000166565			3.3313
1670.54	3	-0.62735	-0.000170746			3.37067
1670.9	3	-0.634888	-0.000175079			3.31177
1671.27	3	-0.641388	-0.000179535			3.29163
1671.64	3	-0.648712	-0.000184082			3.27209
1672	3	-0.655762	-0.000188751			3.36975
1672.37	3	-0.662994	-0.000193542			3.25256
1672.74	3	-0.67041	-0.000198395			3.31177
1673.1	3	-0.67865	-0.00020343			3.29193
1673.47	3	-0.685425	-0.000208527			3.2724
1673.83	3	-0.692657	-0.000213684			3.29163
1674.2	3	-0.699738	-0.000218933			3.29132
1674.57	3	-0.697205	-0.000200378			3.27179
1674.93	3	-0.689819	-0.000174622			3.15552
1675.3	3	-0.683289	-0.000152313			3.11584
1675.66	3	-0.675934	-0.000132507			3.19458
1676.03	3	-0.668732	-0.000114685			3.2135
1676.4	3	-0.660889	-9.84802e-05			3.15613
1676.76	3	-0.653473	-8.36182e-05			3.13538
1677.13	3	-0.645813	-6.99463e-05			3.078
1677.5	3	-0.638702	-5.72205e-05			3.17444
1677.86	3	-0.631378	-4.54315e-05			3.13568
1678.23	3	-0.624451	-3.4494e-05			3.19427
1678.59	3	-0.617004	-2.42737e-05			3.17474
1678.96	3	-0.60968	-1.47461e-05			3.0191
1679.33	3	-0.60199	-5.8197e-06			3.19458
1679.69	3	-0.595428	2.50336e-06			3.13507
1680.06	3	-0.588379	1.04065e-05			3.07709
1680.43	3	-0.5802	1.77582e-05			3.17474
1680.79	3	-0.573944	2.46948e-05			3.23273
1681.16	3	-0.566559	3.12408e-05			3.03833
1681.52	3	-0.558655	3.7262e-05			3.21411
1681.89	3	-0.551025	4.29749e-05			3.07739
1682.26	3	-0.54422	4.83429e-05			3.29193
1682.62	3	-0.537323	5.34058e-05			3.23364
1682.99	3	-0.530029	5.8136e-05			3.23273
1683.36	3	-0.522125	6.26221e-05			3.2132
1683.72	3	-0.51474	6.6803e-05			3.25256
1684.09	3	-0.507294	7.07397e-05			3.27179
1684.45	3	-0.50061	7.44629e-05			3.17505
1684.82	3	-0.493561	7.79114e-05			3.29102
1685.19	3	-0.486176	8.11768e-05			3.38928
1685.55	3	-0.478149	8.42285e-05			3.29163
1685.92	3	-0.471069	8.70667e-05			3.31146
1686.28	3	-0.463867	8.97522e-05			3.52753
1686.65	3	-0.457184	9.22546e-05			3.35052
1687.02	3	-0.449524	9.4574e-05			3.31116
1687.38	3	-0.442291	9.67102e-05			3.38959
1687.75	3	-0.43457	9.86633e-05			3.40912
1688.12	3	-0.427002	0.000100433			3.38959
1688.48	3	-0.420135	0.000102051			3.42865
1688.85	3	-0.412933	0.000103546			3.46893
1689.21	3	-0.405914	0.000104919			3.42896
1689.58	3	-0.39856	0.00010611			3.56628
1689.95	3	-0.390564	0.000107147			3.35083
1690.31	3	-0.383911	0.000108032			3.4491
1690.68	3	-0.376678	0.000108734			3.48816
1691.05	3	-0.368744	0.000109253			3.46771
1691.41	3	-0.361481	0.000109589			3.44788
1691.78	3	-0.354126	0.000109772			3.56598
1692.14	3	-0.34668	0.000109711			3.50708
1692.51	3	-0.339539	0.000109528			3.56567
1692.88	3	-0.33313	0.000109161			3.60535
1693.24	3	-0.324921	0.000108551			3.6261
1693.61	3	-0.318115	0.000107758			3.58551
1693.98	3	-0.310242	0.000106812			3.58551
1694.34	3	-0.303375	0.000105652			3.74237
1694.71	3	-0.295746	0.000104279			3.72314
1695.07	3	-0.289276	0.000102783			3.60443
1695.44	3	-0.281891	0.000101196			3.80493
1695.81	3	-0.274658	9.95178e-05			3.7027
1696.17	3	-0.267395	9.78394e-05			3.64532
1696.54	3	-0.260193	9.60999e-05			3.80493
1696.9	3	-0.252869	9.44214e-05			3.74176
1697.27	3	-0.245453	9.27734e-05			3.74176
1697.64	3	-0.237976	9.1217e-05			3.80585
1698	3	-0.230621	8.97522e-05			3.76129
1698.37	3	-0.223053	8.84094e-05			3.84491
1698.74	3	-0.215454	8.72192e-05			3.8446
1699.1	3	-0.208832	8.61816e-05			3.80585
1699.47	3	-0.201935	8.52661e-05			3.94165
1699.83	3	-0.193665	8.44727e-05			3.84399
1700.2	3	-0.187225	8.38318e-05			3.80493
1700.57	3	-0.179626	8.32825e-05			3.86322
1700.93	3	-0.171722	8.28857e-05			3.82446
1701.3	3	-0.165039	8.25806e-05			3.88306
1701.67	3	-0.157104	8.23364e-05			3.76129
1702.03	3	-0.149933	8.22449e-05			3.96179
1702.4	3	-0.142731	8.22449e-05			3.94287
1702.76	3	-0.135315	8.23669e-05			4.02069
1703.13	3	-0.128021	8.25195e-05			3.96149
1703.5	3	-0.120605	8.27332e-05			3.84399
1703.86	3	-0.113525	8.30078e-05			3.76099
1704.23	3	-0.106659	8.3374e-05			3.88245
1704.6	3	-0.0987854	8.37402e-05			3.90198
1704.96	3	-0.0921021	8.4137e-05			3.90259
1705.33	3	-0.0842285	8.45337e-05			3.96118
1705.69	3	-0.0770569	8.49609e-05			3.88306
1706.06	3	-0.0700378	8.53577e-05			3.82416
1706.43	3	-0.0622864	8.57239e-05			3.96057
1706.79	3	-0.0550537	8.60596e-05			3.96149
1707.16	3	-0.0449066	8.63342e-05			4.00024
1707.53	3	-0.0375427	8.64868e-05			4.02039
1707.89	3	-0.030423	8.65479e-05			3.92242
1708.26	3	-0.0234711	8.65173e-05			1.12213
1708.62	3	-0.0161346	8.63647e-05			3.92242
1708.99	3	-0.00900269	8.61511e-05			4.03931
1709.36	3	-0.00164185	8.58459e-05			3.94226
1709.72	3	0.00563965	8.55103e-05			4.03931
1710.09	3	0.0127563	8.5144e-05			4.01947
1710.45	3	0.0200714	8.47168e-05			3.98102
1710.82	3	0.0278381	8.4198e-05			3.90289
1711.19	3	0.0348816	8.35571e-05			3.92273
1711.55	3	0.042627	8.26111e-05			4.07776
1711.92	3	0.0462646	8.14209e-05			4.03839
1712.29	3	0.0537109	7.97729e-05			4.05853
1712.65	3	0.0609436	7.76367e-05			4.05823
1713.02	3	0.068634	7.49512e-05			4.11774
1713.38	3	0.0762024	7.15942e-05			4.01917
1713.75	3	0.0836792	6.75659e-05			4.07715
1714.12	3	0.0904846	6.28052e-05			4.01917
1714.48	3	0.0983276	5.7373e-05			3.92151
1714.85	3	0.104797	5.12695e-05			4.05853
1715.22	3	0.111908	4.46655e-05			4.09729
1715.58	3	0.119598	3.78815e-05			3.99994
1715.83	3	0.124786	3.33374e-05			3.98071