File: Edgar/20240515/20240515/EC_measurements/Sample_20240502_B/CV/data/CV_4
Time (s)	Scan	WE(1).Potential (V)	WE(1).Current (A)	Q+	Q-	External(1).External 2 (V)
1716.09	1	0.126648	2.49847e-05			4.05884
1716.58	1	0.1315	1.39618e-05			4.17542
1717.07	1	0.121918	-6.56738e-07			4.07806
1717.56	1	0.111938	-5.99365e-06			4.11743
1718.05	1	0.10318	-9.52148e-06			4.01917
1718.54	1	0.0931091	-1.26129e-05			4.16534
1719.02	1	0.0837097	-1.54846e-05			4.01886
1719.51	1	0.0736389	-1.84143e-05			4.09821
1720	1	0.0634155	-2.15942e-05			3.9801
1720.49	1	0.0536499	-2.48505e-05			4.01947
1720.98	1	0.0477386	-2.8064e-05			4.15649
1721.47	1	0.0373566	-3.15063e-05			3.94165
1721.95	1	0.0274536	-3.50311e-05			4.17572
1722.44	1	0.0187042	-3.84857e-05			4.01917
1722.93	1	0.00787354	-4.19159e-05			3.98163
1723.42	1	-0.0018158	-4.55994e-05			4.17603
1723.91	1	-0.0113098	-4.92859e-05			4.01978
1724.4	1	-0.0213318	-5.28564e-05			4.07806
1724.88	1	-0.0302826	-5.6427e-05			4.03931
1725.37	1	-0.0404633	-6.01501e-05			3.77747
1725.86	1	-0.0497437	-6.36597e-05			4.05853
1726.35	1	-0.0632935	-6.70776e-05			4.07806
1726.84	1	-0.0727234	-7.04651e-05			3.88245
1727.33	1	-0.0817566	-7.36084e-05			4.00085
1727.81	1	-0.0914917	-7.63245e-05			3.94196
1728.3	1	-0.101532	-7.88269e-05			4.05884
1728.79	1	-0.111938	-8.11157e-05			4.09821
1729.28	1	-0.12149	-8.29773e-05			4.05853
1729.77	1	-0.130249	-8.45337e-05			4.00055
1730.26	1	-0.140991	-8.5907e-05			4.07745
1730.74	1	-0.149811	-8.69446e-05			3.92151
1731.23	1	-0.160278	-8.74634e-05			3.84399
1731.72	1	-0.169373	-8.77075e-05			4.039
1732.21	1	-0.179016	-8.7738e-05			3.92242
1732.7	1	-0.188904	-8.73718e-05			4.01947
1733.18	1	-0.199036	-8.67615e-05			3.92212
1733.67	1	-0.208649	-8.61816e-05			3.8446
1734.16	1	-0.218475	-8.55408e-05			3.92181
1734.65	1	-0.227692	-8.47778e-05			3.90259
1735.14	1	-0.238251	-8.42285e-05			3.82446
1735.63	1	-0.247833	-8.37097e-05			3.88275
1736.11	1	-0.257629	-8.31909e-05			3.82477
1736.6	1	-0.26651	-8.27637e-05			3.80493
1737.09	1	-0.276276	-8.26111e-05			3.80554
1737.58	1	-0.286285	-8.2489e-05			3.90289
1738.07	1	-0.296143	-8.24585e-05			3.82446
1738.56	1	-0.305481	-8.26721e-05			3.74115
1739.04	1	-0.31601	-8.30994e-05			3.84399
1739.53	1	-0.325653	-8.3374e-05			3.80554
1740.02	1	-0.332733	-8.39233e-05			0.43158
1740.51	1	-0.344788	-8.47168e-05			3.7616
1741	1	-0.354706	-8.55408e-05			3.76099
1741.49	1	-0.363861	-8.65173e-05			3.70331
1741.97	1	-0.37384	-8.78601e-05			3.78601
1742.46	1	-0.383881	-8.9386e-05			3.66455
1742.95	1	-0.393219	-9.08813e-05			3.64532
1743.44	1	-0.403046	-9.26208e-05			3.72284
1743.93	1	-0.412933	-9.46045e-05			3.64441
1744.42	1	-0.422241	-9.66187e-05			3.60565
1744.9	1	-0.432861	-9.86938e-05			3.64502
1745.39	1	-0.442047	-0.000101013			3.66394
1745.88	1	-0.451599	-0.000103455			3.68347
1746.37	1	-0.462097	-0.000105774			3.56659
1746.86	1	-0.471649	-0.000108246			3.62549
1747.34	1	-0.48111	-0.000110931			3.42804
1747.83	1	-0.491333	-0.000113617			3.62305
1748.32	1	-0.501099	-0.000116302			3.66455
1748.81	1	-0.510712	-0.000119232			3.58612
1749.3	1	-0.519379	-0.000122314			3.52753
1749.79	1	-0.529297	-0.000125397			3.54675
1750.27	1	-0.539825	-0.000128723			3.4491
1750.76	1	-0.548889	-0.000132355			3.52722
1751.25	1	-0.558563	-0.000136047			3.50769
1751.74	1	-0.569153	-0.000139954			3.48816
1752.23	1	-0.57782	-0.000144257			3.35052
1752.72	1	-0.58847	-0.000148682			3.38989
1753.2	1	-0.598267	-0.00015329			3.40881
1753.69	1	-0.60733	-0.000158234			3.42957
1754.18	1	-0.617371	-0.000163452			3.29224
1754.67	1	-0.627075	-0.000168762			3.38959
1755.16	1	-0.636322	-0.000174255			3.29163
1755.65	1	-0.647034	-0.000180206			3.31146
1756.13	1	-0.656128	-0.000186249			3.29163
1756.62	1	-0.665558	-0.000192352			3.2724
1757.11	1	-0.676147	-0.000198761			3.19427
1757.6	1	-0.685242	-0.000205414			3.25256
1758.09	1	-0.694733	-0.000211975			3.19489
1758.58	1	-0.70517	-0.000218658			3.19458
1759.06	1	-0.714172	-0.000225586			3.21411
1759.55	1	-0.724213	-0.000232513			3.13568
1760.04	1	-0.734436	-0.000239471			3.11584
1760.53	1	-0.74411	-0.000246582			3.25317
1761.02	1	-0.753723	-0.000253815			3.19458
1761.51	1	-0.767212	-0.000260986			3.01971
1761.99	1	-0.776672	-0.00026825			3.0777
1762.48	1	-0.785522	-0.000275665			3.05756
1762.97	1	-0.797119	-0.000283081			3.05756
1763.46	1	-0.805969	-0.000290497			3.07739
1763.95	1	-0.795288	-0.000252563			2.94128
1764.43	1	-0.785828	-0.0002211			3.0191
1764.92	1	-0.776672	-0.000193237			3.00018
1765.41	1	-0.766296	-0.000168182			3.01971
1765.9	1	-0.756836	-0.000145508			3.03833
1766.39	1	-0.743164	-0.000124634			2.92084
1766.88	1	-0.734406	-0.000105316			3.01941
1767.36	1	-0.72467	-8.75854e-05			2.96051
1767.85	1	-0.714386	-7.1167e-05			3.0191
1768.34	1	-0.705017	-5.57861e-05			2.88147
1768.83	1	-0.694733	-4.15314e-05			2.94128
1769.32	1	-0.685608	-2.83691e-05			2.90131
1769.81	1	-0.674927	-1.5979e-05			3.0188
1770.29	1	-0.666382	-4.4281e-06			2.94037
1770.78	1	-0.656494	6.2561e-06			2.9599
1771.27	1	-0.645813	1.62079e-05			2.94006
1771.76	1	-0.636505	2.56378e-05			3.0188
1772.25	1	-0.627197	3.41949e-05			3.03925
1772.74	1	-0.616608	4.22699e-05			2.97943
1773.22	1	-0.607239	4.99268e-05			3.07678
1773.71	1	-0.597687	5.70374e-05			2.99988
1774.2	1	-0.588013	6.35681e-05			3.05817
1774.69	1	-0.578613	6.97632e-05			3.09631
1775.18	1	-0.568726	7.5592e-05			3.13538
1775.67	1	-0.559204	8.08716e-05			3.13568
1776.15	1	-0.548889	8.58154e-05			3.27179
1776.64	1	-0.539734	9.05151e-05			3.15552
1777.13	1	-0.529144	9.4635e-05			3.15521
1777.62	1	-0.519958	9.84192e-05			3.13599
1778.11	1	-0.510529	0.000101929			3.23303
1778.59	1	-0.500061	0.000105072			3.2135
1779.08	1	-0.49054	0.000107819			3.27209
1779.57	1	-0.480835	0.000110443			3.21411
1780.06	1	-0.471252	0.000112823			3.21381
1780.55	1	-0.461761	0.000114807			3.33099
1781.04	1	-0.451263	0.000116638			3.29102
1781.52	1	-0.442017	0.000118408			3.42896
1782.01	1	-0.431793	0.000119843			3.42896
1782.5	1	-0.423096	0.000121094			3.48785
1782.99	1	-0.41333	0.000122345			3.46893
1783.48	1	-0.40271	0.000123352			3.44818
1783.97	1	-0.393921	0.000124054			3.46863
1784.45	1	-0.383179	0.000124634			3.42865
1784.94	1	-0.374481	0.000124969			3.44727
1785.43	1	-0.364685	0.000124908			3.54614
1785.92	1	-0.354675	0.000124573			3.50769
1786.41	1	-0.344788	0.000124023			3.54614
1786.9	1	-0.335175	0.000123108			3.58582
1787.38	1	-0.325653	0.000121826			3.58612
1787.87	1	-0.315857	0.000120331			3.58551
1788.36	1	-0.306305	0.000118652			3.56628
1788.85	1	-0.295898	0.000116547			3.68347
1789.34	1	-0.286743	0.000114319			3.68408
1789.83	1	-0.277161	0.000112122			3.68378
1790.31	1	-0.266541	0.000109741			3.68378
1790.8	1	-0.257446	0.000107422			3.74207
1791.29	1	-0.247406	0.000105377			3.72253
1791.78	1	-0.238251	0.000103485			3.70331
1792.27	1	-0.227539	0.000101746			3.80524
1792.75	1	-0.218536	0.000100311			3.86383
1793.24	1	-0.20816	9.92432e-05			3.80524
1793.73	1	-0.198975	9.82666e-05			3.78571
1794.22	1	-0.189026	9.74731e-05			3.82477
1794.71	1	-0.178986	9.70764e-05			3.86353
1795.2	1	-0.170105	9.68018e-05			3.8443
1795.68	1	-0.159973	9.64966e-05			3.92151
1796.17	1	-0.149811	9.63745e-05			3.94196
1796.66	1	-0.140076	9.6405e-05			3.92151
1797.15	1	-0.131226	9.63745e-05			3.82477
1797.64	1	-0.120819	9.6405e-05			3.90228
1798.13	1	-0.111786	9.66492e-05			3.8443
1798.61	1	-0.101196	9.69238e-05			3.88245
1799.1	1	-0.0913391	9.71069e-05			3.86353
1799.59	1	-0.0819702	9.73511e-05			3.88306
1800.08	1	-0.0724487	9.77173e-05			3.86322
1800.57	1	-0.0622253	9.79004e-05			3.88306
1801.06	1	-0.0504944	9.79919e-05			3.82507
1801.54	1	-0.0399963	9.81445e-05			3.94257
1802.03	1	-0.031015	9.81445e-05			3.94257
1802.52	1	-0.0208801	9.79309e-05			3.90228
1803.01	1	-0.0108612	9.76257e-05			3.90228
1803.5	1	-0.000924683	9.72595e-05			3.96179
1803.99	1	0.00822449	9.66492e-05			3.92212
1804.47	1	0.0185181	9.59167e-05			4.01886
1804.96	1	0.0279907	9.52148e-05			3.98102
1805.45	1	0.0379791	9.42993e-05			3.98102
1805.94	1	0.0471588	9.28955e-05			4.02008
1806.43	1	0.0534668	9.10339e-05			3.99963
1806.92	1	0.0639954	8.84094e-05			4.0387
1807.4	1	0.0739136	8.46558e-05			4.11743
1807.89	1	0.0835571	7.97119e-05			4.23462
1808.38	1	0.0934753	7.36084e-05			4.05823
1808.87	1	0.102753	6.61621e-05			4.05823
1809.36	1	0.112	5.74036e-05			4.01917
1809.84	1	0.121826	4.78821e-05			4.13666
1810.33	2	0.132263	3.83209e-05			4.0979
1810.82	2	0.140991	2.94678e-05			4.05853
1811.31	2	0.151337	2.22992e-05			4.05853
1811.8	2	0.160553	1.72028e-05			4.1568
1812.29	2	0.170288	1.36383e-05			4.11713
1812.77	2	0.181	1.11237e-05			4.07806
1813.26	2	0.189911	9.46045e-06			4.05823
1813.75	2	0.200317	8.39844e-06			4.0979
1814.24	2	0.209961	7.44629e-06			4.05853
1814.73	2	0.219879	6.75964e-06			4.05792
1815.22	2	0.22937	6.31409e-06			4.01886
1815.7	2	0.239258	5.88074e-06			4.0976
1816.19	2	0.248047	5.49011e-06			4.17572
1816.68	2	0.258484	5.27649e-06			4.21417
1817.17	2	0.268341	5.06287e-06			3.98102
1817.66	2	0.277802	4.77295e-06			3.90167
1818.15	2	0.287018	4.59595e-06			4.13696
1818.63	2	0.297028	4.47083e-06			4.13666
1819.12	2	0.30661	4.23584e-06			3.96057
1819.61	2	0.317017	4.05884e-06			4.13574
1820.1	2	0.325897	3.9856e-06			4.17603
1820.59	2	0.336426	3.81622e-06			4.01917
1821.08	2	0.346161	3.64288e-06			3.96149
1821.56	2	0.355316	3.5965e-06			4.07776
1822.05	2	0.365143	3.49487e-06			4.21478
1822.54	2	0.375488	3.34961e-06			4.01886
1823.03	2	0.384552	3.3374e-06			3.98041
1823.52	2	0.394073	3.31573e-06			4.15588
1824	2	0.404572	3.18024e-06			4.11682
1824.49	2	0.413635	3.13629e-06			4.05731
1824.98	2	0.424194	3.13049e-06			4.15588
1825.47	2	0.433258	3.00537e-06			3.9209
1825.96	2	0.442688	2.92328e-06			4.05792
1826.45	2	0.453308	2.94403e-06			4.039
1826.93	2	0.462616	2.88177e-06			4.05731
1827.42	2	0.471954	2.80151e-06			3.98041
1827.91	2	0.482147	2.84302e-06			4.09698
1828.4	2	0.491516	2.83478e-06			4.03839
1828.89	2	0.500977	2.74109e-06			4.07776
1829.38	2	0.511078	2.72919e-06			4.07776
1829.86	2	0.520935	2.75177e-06			4.0976
1830.35	2	0.531097	2.65106e-06			3.94135
1830.84	2	0.5401	2.59033e-06			4.09637
1831.33	2	0.550354	2.63184e-06			4.13605
1831.82	2	0.560242	2.59918e-06			4.09729
1832.31	2	0.569122	2.52899e-06			4.15527
1832.79	2	0.578827	2.55798e-06			4.01917
1833.28	2	0.589081	2.57294e-06			3.94135
1833.77	2	0.598602	2.47314e-06			4.05823
1834.26	2	0.607971	2.41547e-06			4.03809
1834.75	2	0.618591	2.4646e-06			4.15619
1835.24	2	0.628082	2.42889e-06			4.03778
1835.72	2	0.638	2.36176e-06			4.05792
1836.21	2	0.647675	2.38678e-06			4.07684
1836.7	2	0.657471	2.40814e-06			3.97949
1837.19	2	0.666473	2.31476e-06			3.9801
1837.68	2	0.676971	2.25647e-06			4.0387
1838.16	2	0.685822	2.31018e-06			3.96057
1838.65	2	0.696411	2.29797e-06			3.9212
1839.14	2	0.705353	2.24213e-06			4.07745
1839.63	2	0.714905	2.24579e-06			4.03809
1840.12	2	0.724945	2.26349e-06			4.05701
1840.61	2	0.734955	2.17621e-06			4.05701
1841.09	2	0.743103	2.12463e-06			4.15497
1841.58	2	0.753174	2.1814e-06			4.05701
1842.07	2	0.76416	2.19116e-06			4.09729
1842.56	2	0.774231	2.10358e-06			4.05762
1843.05	2	0.783081	2.07733e-06			4.11652
1843.54	2	0.791931	2.09595e-06			4.01855
1844.02	2	0.801697	2.05017e-06			4.07745
1844.51	2	0.811462	1.99371e-06			4.17419
1845	2	0.823059	2.02576e-06			4.03809
1845.49	2	0.831909	2.03888e-06			4.05731
1845.98	2	0.84137	1.94366e-06			4.15497
1846.47	2	0.852051	1.88263e-06			4.09668
1846.95	2	0.861206	1.9281e-06			4.07684
1847.44	2	0.870361	1.90857e-06			4.1748
1847.93	2	0.880432	1.83807e-06			4.03809
1848.42	2	0.890503	1.82465e-06			4.05792
1848.91	2	0.899658	1.83289e-06			3.90106
1849.4	2	0.910034	1.73462e-06			4.05731
1849.88	2	0.92041	1.66473e-06			4.15558
1850.37	2	0.92926	1.70135e-06			4.03748
1850.86	2	0.939331	1.69922e-06			3.88184
1851.35	2	0.948181	1.59546e-06			4.07715
1851.84	2	0.958862	1.54541e-06			4.11591
1852.33	2	0.969238	1.56921e-06			4.05731
1852.81	2	0.979004	1.52557e-06			4.07654
1853.3	2	0.988159	1.46759e-06			4.05731
1853.79	2	0.992126	1.45081e-06			3.97858
1854.28	2	0.982666	1.34216e-06			3.9801
1854.77	2	0.973511	1.1795e-06			3.9212
1855.25	2	0.963745	1.06903e-06			4.0976
1855.74	2	0.95459	1.0672e-06			4.01855
1856.23	2	0.944214	9.99756e-07			4.07715
1856.72	2	0.933228	9.09729e-07			4.15497
1857.21	2	0.924377	8.93555e-07			4.11621
1857.7	2	0.915222	8.82263e-07			3.95966
1858.18	2	0.905762	7.65991e-07			4.01917
1858.67	2	0.894775	6.9519e-07			4.03809
1859.16	2	0.884094	7.30896e-07			4.07684
1859.65	2	0.875549	7.16553e-07			4.15558
1860.14	2	0.865173	6.35071e-07			4.13635
1860.63	2	0.856323	6.17371e-07			3.99933
1861.11	2	0.847473	6.33545e-07			4.07806
1861.6	2	0.837402	5.44739e-07			4.05731
1862.09	2	0.825806	4.82178e-07			4.15527
1862.58	2	0.81665	5.27344e-07			4.17511
1863.07	2	0.80719	5.35278e-07			3.95966
1863.56	2	0.79834	4.45862e-07			4.07654
1864.04	2	0.788879	4.26636e-07			4.15527
1864.53	2	0.777893	4.58069e-07			4.15619
1865.02	2	0.768127	3.92151e-07			4.11621
1865.51	2	0.757751	3.40881e-07			3.97919
1866	2	0.749207	3.93982e-07			4.17511
1866.49	2	0.740173	4.12903e-07			4.11652
1866.97	2	0.729614	3.31726e-07			4.17542
1867.46	2	0.720459	3.10974e-07			4.07806
1867.95	2	0.710602	3.43933e-07			3.96057
1868.44	2	0.700653	2.97546e-07			4.13666
1868.93	2	0.69101	2.5177e-07			4.13574
1869.41	2	0.680939	3.05176e-07			4.03839
1869.9	2	0.671326	3.302e-07			3.97949
1870.39	2	0.661346	2.48108e-07			4.15588
1870.88	2	0.652466	2.0752e-07			4.11743
1871.37	2	0.642059	2.63062e-07			3.99933
1871.86	2	0.633118	2.44751e-07			4.05823
1872.34	2	0.62265	1.9989e-07			4.15558
1872.83	2	0.613373	2.27966e-07			4.05792
1873.32	2	0.609467	2.60315e-07			0.4888
1873.81	2	0.594025	1.81274e-07			4.05792
1874.3	2	0.583618	1.41907e-07			4.0976
1874.79	2	0.573975	2.03857e-07			4.13635
1875.27	2	0.564972	2.0813e-07			4.05823
1875.76	2	0.555176	1.58386e-07			4.01947
1876.25	2	0.544739	1.62964e-07			4.09729
1876.74	2	0.534973	1.95923e-07			4.01917
1877.23	2	0.525879	1.32751e-07			4.05731
1877.72	2	0.51651	9.12476e-08			3.92151
1878.2	2	0.50592	1.52588e-07			4.11743
1878.69	2	0.496979	1.82495e-07			4.0976
1879.18	2	0.487244	1.01013e-07			4.07715
1879.67	2	0.476624	8.14819e-08			4.13574
1880.16	2	0.46759	1.14746e-07			3.9801
1880.65	2	0.45752	8.14819e-08			4.11713
1881.13	2	0.448242	3.44849e-08			4.11713
1881.62	2	0.438171	8.27026e-08			3.99963
1882.11	2	0.428131	1.13525e-07			4.17603
1882.6	2	0.419067	3.08228e-08			4.05731
1883.09	2	0.408691	-1.80054e-08			4.09729
1883.58	2	0.398956	4.22363e-08			4.07745
1884.06	2	0.389954	3.39966e-08			4.01886
1884.55	2	0.379547	-2.35596e-08			4.2334
1885.04	2	0.370422	-1.11694e-08			4.05823
1885.53	2	0.360931	2.2522e-08			3.9801
1886.02	2	0.350952	-6.67114e-08			4.01917
1886.5	2	0.340698	-1.27869e-07			4.13605
1886.99	2	0.331116	-7.62634e-08			3.98041
1887.48	2	0.321777	-8.70972e-08			4.17511
1887.97	2	0.311371	-1.65222e-07			4.11682
1888.46	2	0.302521	-1.91193e-07			4.07837
1888.95	2	0.292542	-1.79962e-07			4.11652
1889.43	2	0.282959	-2.87628e-07			4.09729
1889.92	2	0.272675	-3.83301e-07			4.11682
1890.41	2	0.262726	-3.6377e-07			4.07776
1890.9	2	0.253571	-4.00696e-07			4.13605
1891.39	2	0.243225	-5.15442e-07			4.01917
1891.88	2	0.23407	-5.87769e-07			3.99994
1892.36	2	0.224518	-6.31104e-07			3.96057
1892.85	2	0.214386	-8.01392e-07			4.07776
1893.34	2	0.205261	-9.95483e-07			4.07806
1893.83	2	0.195007	-1.11328e-06			4.07745
1894.32	2	0.185699	-1.33453e-06			4.07806
1894.81	2	0.176239	-1.75262e-06			3.98071
1895.29	2	0.165833	-2.2467e-06			4.15619
1895.78	2	0.15567	-2.85492e-06			4.15649
1896.27	2	0.146301	-3.77258e-06			4.05884
1896.76	2	0.137177	-4.91943e-06			4.11774
1897.25	2	0.127228	-6.20728e-06			4.05762
1897.74	2	0.117157	-7.75146e-06			4.15588
1898.22	2	0.107697	-9.66797e-06			4.01917
1898.71	2	0.0983887	-1.1795e-05			4.05853
1899.2	2	0.0877686	-1.40594e-05			4.00024
1899.69	2	0.0780029	-1.66199e-05			4.01886
1900.18	2	0.0681763	-1.94092e-05			4.0979
1900.66	2	0.0595703	-2.22717e-05			4.03931
1901.15	2	0.0488586	-2.52655e-05			3.96118
1901.64	2	0.0426727	-2.85614e-05			4.05884
1902.13	2	0.0323334	-3.20587e-05			4.11713
1902.62	2	0.0227844	-3.54553e-05			4.0976
1903.11	2	0.0133575	-3.89923e-05			4.09821
1903.59	2	0.00320435	-4.2691e-05			4.09851
1904.08	2	-0.00633545	-4.6405e-05			4.13696
1904.57	2	-0.0165588	-5.01099e-05			4.11774
1905.06	2	-0.0255493	-5.39856e-05			4.0979
1905.55	2	-0.0359192	-5.78918e-05			4.03961
1906.04	2	-0.044812	-6.1676e-05			4.07898
1906.52	2	-0.0583191	-6.54602e-05			3.94196
1907.01	2	-0.0681152	-6.93359e-05			4.05823
1907.5	2	-0.0774231	-7.30591e-05			4.02008
1907.99	2	-0.0873718	-7.64465e-05			4.01917
1908.48	2	-0.0969238	-7.96204e-05			4.11713
1908.97	2	-0.106842	-8.255e-05			3.96118
1909.45	2	-0.115997	-8.49609e-05			3.92242
1909.94	2	-0.126404	-8.69141e-05			3.98102
1910.43	2	-0.135162	-8.87146e-05			3.96149
1910.92	2	-0.145569	-9.00879e-05			3.96149
1911.41	2	-0.155273	-9.09119e-05			3.94135
1911.9	2	-0.164612	-9.13391e-05			3.81897
1912.38	2	-0.174103	-9.14917e-05			3.92242
1912.87	2	-0.183868	-9.1156e-05			3.88336
1913.36	2	-0.193878	-9.05151e-05			3.9621
1913.85	2	-0.204254	-8.98132e-05			3.8446
1914.34	2	-0.213898	-8.90503e-05			3.88306
1914.82	2	-0.223602	-8.80737e-05			3.90259
1915.31	2	-0.233459	-8.71887e-05			3.94226
1915.8	2	-0.242279	-8.64868e-05			3.92212
1916.29	2	-0.252472	-8.57544e-05			3.82507
1916.78	2	-0.261749	-8.51135e-05			3.92242
1917.27	2	-0.2724	-8.47473e-05			3.80554
1917.75	2	-0.281982	-8.45337e-05			3.8443
1918.24	2	-0.291168	-8.42896e-05			3.82385
1918.73	2	-0.301331	-8.42285e-05			3.92273
1919.22	2	-0.310272	-8.44116e-05			3.80554
1919.71	2	-0.320679	-8.47168e-05			3.76099
1920.2	2	-0.330688	-8.50525e-05			3.88336
1920.68	2	-0.340485	-8.56934e-05			3.90198
1921.17	2	-0.350372	-8.65173e-05			3.90259
1921.66	2	-0.359589	-8.73108e-05			3.82477
1922.15	2	-0.369263	-8.83484e-05			3.78571
1922.64	2	-0.379395	-8.96606e-05			3.64502
1923.13	2	-0.388641	-9.1156e-05			3.68408
1923.61	2	-0.398376	-9.26819e-05			3.72192
1924.1	2	-0.407806	-9.44824e-05			3.78662
1924.59	2	-0.417358	-9.64966e-05			3.66425
1925.08	2	-0.427979	-9.85413e-05			3.62518
1925.57	2	-0.43689	-0.000100647			3.62579
1926.06	2	-0.446472	-0.000103058			3.64502
1926.54	2	-0.456268	-0.00010556			3.68347
1927.03	2	-0.467041	-0.000107971			3.68408
1927.52	2	-0.4758	-0.000110596			3.66425
1928.01	2	-0.485962	-0.000113373			3.50769
1928.5	2	-0.496216	-0.000116058			3.64471
1928.99	2	-0.505219	-0.000118866			3.62518
1929.47	2	-0.514587	-0.000121887			3.46771
1929.96	2	-0.524475	-0.000125061			3.58582
1930.45	2	-0.534943	-0.000128296			3.44818
1930.94	2	-0.544006	-0.000131897			3.60535
1931.43	2	-0.55365	-0.000135742			3.58582
1931.91	2	-0.563904	-0.000139679			3.54706
1932.4	2	-0.57312	-0.000143921			3.46802
1932.89	2	-0.583221	-0.000148499			3.48755
1933.38	2	-0.59259	-0.000153198			3.42163
1933.87	2	-0.603058	-0.000158081			3.3316
1934.36	2	-0.612122	-0.000163452			3.31177
1934.84	2	-0.62204	-0.000168976			3.42834
1935.33	2	-0.632294	-0.000174622			3.33099
1935.82	2	-0.641937	-0.000180542			3.25256
1936.31	2	-0.650726	-0.000186737			3.25287
1936.8	2	-0.660858	-0.000192993			3.31146
1937.29	2	-0.670441	-0.00019931			3.29163
1937.77	2	-0.680969	-0.000205994			3.25226
1938.26	2	-0.690033	-0.000212677			3.23303
1938.75	2	-0.699432	-0.00021933			3.19489
1939.24	2	-0.710022	-0.000226166			3.21381
1939.73	2	-0.719269	-0.000233063			3.17535
1940.22	2	-0.729034	-0.000239868			3.15613
1940.7	2	-0.738892	-0.000246704			3.23425
1941.19	2	-0.748474	-0.000253662			3.17474
1941.68	2	-0.762024	-0.000260559			3.0191
1942.17	2	-0.771179	-0.000267456			3.15521
1942.66	2	-0.78186	-0.000274536			3.19397
1943.15	2	-0.7901	-0.000281616			3.07709
1943.63	2	-0.800171	-0.000288635			3.09753
1944.12	2	-0.799866	-0.000271942			3.05847
1944.61	2	-0.790405	-0.000237732			3.07678
1945.1	2	-0.781555	-0.00020813			2.96082
1945.59	2	-0.772095	-0.000181793			2.96021
1946.07	2	-0.761414	-0.000158112			2.94037
1946.56	2	-0.748779	-0.000136414			3.11554
1947.05	2	-0.73819	-0.000116486			2.901
1947.54	2	-0.728485	-9.8175e-05			2.96021
1948.03	2	-0.718781	-8.12683e-05			2.95959
1948.52	2	-0.709961	-6.54602e-05			2.96082
1949	2	-0.700317	-5.08423e-05			3.03864
1949.49	2	-0.690033	-3.73474e-05			2.94098
1949.98	2	-0.680115	-2.46735e-05			3.01849
1950.47	2	-0.670166	-1.28479e-05			2.98035
1950.96	2	-0.660614	-2.02454e-06			2.92145
1951.45	2	-0.651581	8.22144e-06			2.94037
1951.93	2	-0.640961	1.78223e-05			2.9599
1952.42	2	-0.631378	2.66693e-05			3.0777
1952.91	2	-0.62146	3.48175e-05			3.05817
1953.4	2	-0.612183	4.26727e-05			3.05847
1953.89	2	-0.602081	4.99573e-05			3.13568
1954.38	2	-0.592651	5.66101e-05			3.09601
1954.86	2	-0.583069	6.29272e-05			3.11615
1955.35	2	-0.573578	6.89392e-05			3.13568
1955.84	2	-0.564209	7.43713e-05			3.17474
1956.33	2	-0.553589	7.94373e-05			3.21381
1956.82	2	-0.543762	8.4259e-05			3.17444
1957.31	2	-0.534424	8.8623e-05			3.15552
1957.79	2	-0.525238	9.25598e-05			3.19427
1958.28	2	-0.515015	9.62524e-05			3.19427
1958.77	2	-0.505737	9.96399e-05			3.21411
1959.26	2	-0.4953	0.000102509			3.29132
1959.75	2	-0.486267	0.000105194			3.27118
1960.23	2	-0.476257	0.000107727			3.2724
1960.72	2	-0.465942	0.000109863			3.33099
1961.21	2	-0.456055	0.000111816			3.36975
1961.7	2	-0.446869	0.000113739			3.31177
1962.19	2	-0.436768	0.000115387			3.44818
1962.68	2	-0.427765	0.00011676			3.37067
1963.16	2	-0.417877	0.000118073			3.36975
1963.65	2	-0.408661	0.000119293			3.52692
1964.14	2	-0.397858	0.000120087			3.40912
1964.63	2	-0.38855	0.000120728			3.42865
1965.12	2	-0.378387	0.000121277			3.58582
1965.61	2	-0.368652	0.000121338			3.48755
1966.09	2	-0.359833	0.000121124			3.58612
1966.58	2	-0.349945	0.000120758			3.54706
1967.07	2	-0.339447	0.000120026			3.54645
1967.56	2	-0.330231	0.000118927			3.54614
1968.05	2	-0.321014	0.000117706			3.66394
1968.54	2	-0.31076	0.000116302			3.68317
1969.02	2	-0.300812	0.000114471			3.70331
1969.51	2	-0.291748	0.000112518			3.66425
1970	2	-0.281586	0.000110565			3.62488
1970.49	2	-0.272339	0.000108368			3.66364
1970.98	2	-0.262299	0.000106262			3.7027
1971.47	2	-0.252899	0.00010434			3.70209
1971.95	2	-0.242981	0.000102478			3.74237
1972.44	2	-0.233368	0.000100769			3.78601
1972.93	2	-0.22287	9.94263e-05			3.68347
1973.42	2	-0.213684	9.83276e-05			3.68317
1973.91	2	-0.204102	9.729e-05			3.76007
1974.4	2	-0.194214	9.65271e-05			3.76068
1974.88	2	-0.184204	9.60999e-05			3.80554
1975.37	2	-0.174194	9.57031e-05			3.72223
1975.86	2	-0.164581	9.53674e-05			3.78601
1976.35	2	-0.154572	9.52759e-05			3.88367
1976.84	2	-0.145935	9.52759e-05			3.80615
1977.32	2	-0.135101	9.52148e-05			3.74176
1977.81	2	-0.126282	9.53674e-05			3.98132
1978.3	2	-0.116302	9.55811e-05			3.88367
1978.79	2	-0.10675	9.57031e-05			3.82477
1979.28	2	-0.0966187	9.59473e-05			3.80463
1979.77	2	-0.0866089	9.63135e-05			3.90259
1980.25	2	-0.0773926	9.65576e-05			4.0976
1980.74	2	-0.0681458	9.67712e-05			3.9032
1981.23	2	-0.0583496	9.71069e-05			4.01947
1981.72	2	-0.0455963	9.72595e-05			4.01947
1982.21	2	-0.0359955	9.71985e-05			3.94257
1982.7	2	-0.0259918	9.71375e-05			3.98071
1983.18	2	-0.0165344	9.69849e-05			3.94135
1983.67	2	-0.00668335	9.64966e-05			3.82538
1984.16	2	0.00332642	9.60083e-05			3.96149
1984.65	2	0.0131378	9.54895e-05			4.01978
1985.14	2	0.0229065	9.47266e-05			4.00055
1985.63	2	0.0329559	9.3811e-05			3.96118
1986.11	2	0.042572	9.27124e-05			3.92212
1986.6	2	0.0497131	9.1095e-05			3.88306
1987.09	2	0.0585022	8.86536e-05			4.05884
1987.58	2	0.0690308	8.54492e-05			4.05884
1988.07	2	0.0779419	8.10852e-05			3.99963
1988.56	2	0.0881958	7.53174e-05			4.09698
1989.04	2	0.0975952	6.82983e-05			3.88306
1989.53	2	0.108032	6.00281e-05			4.0979
1990.02	2	0.117523	5.05981e-05			4.05914
1990.51	3	0.126862	4.07654e-05			4.05792
1991	3	0.137146	3.16254e-05			4.05884
1991.48	3	0.146301	2.39014e-05			4.07837
1991.97	3	0.156342	1.80542e-05			3.99933
1992.46	3	0.165955	1.41205e-05			4.11743
1992.95	3	0.175842	1.14532e-05			3.99994
1993.44	3	0.18576	9.48792e-06			4.03809
1993.93	3	0.194977	8.2489e-06			4.1568
1994.41	3	0.204437	7.35168e-06			4.11743
1994.9	3	0.214264	6.58264e-06			4.17633
1995.39	3	0.224335	5.98145e-06			3.99963
1995.88	3	0.233948	5.63049e-06			4.09821
1996.37	3	0.243622	5.2887e-06			4.05853
1996.86	3	0.253662	4.94995e-06			4.05731
1997.34	3	0.262787	4.73633e-06			4.11774
1997.83	3	0.272736	4.57153e-06			4.0976
1998.32	3	0.282196	4.31213e-06			4.03809
1998.81	3	0.292358	4.10156e-06			3.98041
1999.3	3	0.302673	4.02832e-06			4.01978
1999.79	3	0.312134	3.89282e-06			4.13635
2000.27	3	0.32135	3.71063e-06			4.17542
2000.76	3	0.331421	3.63403e-06			4.19556
2001.25	3	0.340668	3.56201e-06			4.11652
2001.74	3	0.350281	3.37494e-06			4.07806
2002.23	3	0.360779	3.23578e-06			4.0976
2002.72	3	0.370697	3.21075e-06			4.03839
2003.2	3	0.380371	3.11768e-06			3.96118
2003.69	3	0.389557	3.00507e-06			3.98102
2004.18	3	0.399872	2.9953e-06			4.03778
2004.67	3	0.409424	2.97638e-06			4.13635
2005.16	3	0.419037	2.84729e-06			4.09698
2005.65	3	0.428101	2.75726e-06			4.05853
2006.13	3	0.437744	2.78015e-06			4.07745
2006.62	3	0.447632	2.71484e-06			3.9801
2007.11	3	0.457214	2.62207e-06			4.07776
2007.6	3	0.46701	2.65411e-06			4.23462
2008.09	3	0.476685	2.65839e-06			4.09729
2008.57	3	0.48645	2.54852e-06			4.09729
2009.06	3	0.49704	2.51526e-06			4.09698
2009.55	3	0.506561	2.53998e-06			4.0979
2010.04	3	0.515656	2.45483e-06			3.98041
2010.53	3	0.525543	2.38373e-06			3.9801
2011.02	3	0.536011	2.42889e-06			3.97949
2011.5	3	0.545593	2.40692e-06			3.96118
2011.99	3	0.555176	2.33093e-06			4.13605
2012.48	3	0.56485	2.3349e-06			4.11682
2012.97	3	0.574127	2.35229e-06			4.0387
2013.46	3	0.58371	2.25372e-06			4.09729
2013.95	3	0.593842	2.19727e-06			4.15558
2014.43	3	0.603577	2.23969e-06			4.19495
2014.92	3	0.613068	2.19635e-06			4.05853
2015.41	3	0.622864	2.12952e-06			3.96118
2015.9	3	0.632721	2.17377e-06			4.03839
2016.39	3	0.642426	2.18872e-06			3.9798
2016.88	3	0.651947	2.09381e-06			3.95477
2017.36	3	0.661926	2.07397e-06			3.99963
2017.85	3	0.671234	2.10571e-06			4.0387
2018.34	3	0.681793	2.02637e-06			4.13635
2018.83	3	0.690887	1.96869e-06			4.07745
2019.32	3	0.700531	2.02148e-06			3.99963
2019.81	3	0.71106	1.99219e-06			4.07745
2020.29	3	0.719757	1.92505e-06			4.11652
2020.78	3	0.729553	1.95831e-06			4.15497
2021.27	3	0.740051	1.97784e-06			4.07745
2021.76	3	0.748291	1.88782e-06			4.11682
2022.25	3	0.758057	1.86737e-06			4.03564
2022.73	3	0.768127	1.90002e-06			4.07684
2023.22	3	0.778503	1.81671e-06			4.05762
2023.71	3	0.787048	1.75476e-06			4.03748
2024.2	3	0.797424	1.79718e-06			4.01917
2024.69	3	0.8078	1.75293e-06			4.05731
2025.18	3	0.81665	1.6687e-06			4.15558
2025.66	3	0.827026	1.6861e-06			4.09637
2026.15	3	0.836792	1.68549e-06			4.11621
2026.64	3	0.847168	1.58264e-06			4.03778
2027.13	3	0.855103	1.54938e-06			3.99933
2027.62	3	0.866699	1.56921e-06			4.03778
2028.11	3	0.875854	1.47644e-06			3.90167
2028.59	3	0.885925	1.41754e-06			4.09729
2029.08	3	0.894775	1.46423e-06			4.01855
2029.57	3	0.904236	1.42914e-06			4.03778
2030.06	3	0.913391	1.35986e-06			4.11591
2030.55	3	0.924988	1.39282e-06			3.99872
2031.04	3	0.933838	1.40015e-06			4.07684
2031.52	3	0.944214	1.3089e-06			4.09668
2032.01	3	0.952759	1.29059e-06			4.13635
2032.5	3	0.96283	1.31439e-06			3.97919
2032.99	3	0.974121	1.22223e-06			3.95966
2033.48	3	0.982361	1.17035e-06			4.09729
2033.97	3	0.992432	1.22406e-06			3.96027
2034.45	3	0.988159	1.05927e-06			4.03809
2034.94	3	0.977783	9.13391e-07			4.03778
2035.43	3	0.968628	9.10339e-07			4.03778
2035.92	3	0.958862	8.67615e-07			4.03809
2036.41	3	0.948792	7.39746e-07			4.01794
2036.89	3	0.939331	7.06482e-07			4.03748
2037.38	3	0.928955	7.04956e-07			4.05762
2037.87	3	0.920105	5.97229e-07			4.07745
2038.36	3	0.908813	5.29175e-07			4.11652
2038.85	3	0.899963	5.61829e-07			4.01886
2039.34	3	0.890198	5.078125E-07			4.11621
2039.82	3	0.880432	4.41284e-07			4.11652
2040.31	3	0.870667	4.88281e-07			4.07715
2040.8	3	0.860596	4.82483e-07			4.05792
2041.29	3	0.850525	4.12292e-07			4.01886
2041.78	3	0.842285	4.18396e-07			4.1748
2042.27	3	0.831299	4.41284e-07			3.96057
2042.75	3	0.822144	3.54004e-07			4.15619
2043.24	3	0.812073	3.07007e-07			4.07684
2043.73	3	0.802612	3.56445e-07			4.09729
2044.22	3	0.793457	3.15857e-07			4.01855
2044.71	3	0.783081	2.66113e-07			4.05762
2045.2	3	0.7724	3.23792e-07			4.07684
2045.68	3	0.76416	3.28674e-07			4.07715
2046.17	3	0.753784	2.63062e-07			3.90137
2046.66	3	0.743713	2.74353e-07			4.09698
2047.15	3	0.73526	3.07922e-07			4.15558
2047.64	3	0.725464	2.24304e-07			4.03839
2048.13	3	0.714935	1.86462e-07			4.11682
2048.61	3	0.70575	2.44751e-07			3.94196
2049.1	3	0.696289	2.1637e-07			4.09729
2049.59	3	0.68634	1.66626e-07			4.09668
2050.08	3	0.676086	2.23083e-07			3.94043
2050.57	3	0.666565	2.49939e-07			4.01886
2051.06	3	0.657257	1.7395e-07			4.07745
2051.54	3	0.647034	1.75476e-07			4.03839
2052.03	3	0.63739	2.20947e-07			3.96057
2052.52	3	0.628082	1.43433e-07			4.07745
2053.01	3	0.617981	1.05286e-07			4.07806
2053.5	3	0.608856	1.70288e-07			4.15527
2053.98	3	0.598358	1.55029e-07			4.07745
2054.47	3	0.589355	1.01318e-07			4.13635
2054.96	3	0.579071	1.48315e-07			4.13635
2055.45	3	0.569977	1.80359e-07			4.11682
2055.94	3	0.559265	1.03149e-07			4.09698
2056.43	3	0.550049	8.75854e-08			4.13635
2056.91	3	0.540314	1.36719e-07			4.07745
2057.4	3	0.530762	9.0332e-08			4.01825
2057.89	3	0.520599	4.3335e-08			3.9798
2058.38	3	0.51123	1.06201e-07			4.01947
2058.87	3	0.501007	1.32751e-07			3.96057
2059.36	3	0.491852	5.70679e-08			4.07776
2059.84	3	0.482513	5.88989e-08			4.03839
2060.33	3	0.472534	1.00403e-07			3.99902
2060.82	3	0.462433	2.96021e-08			3.99963
2061.31	3	0.452484	-1.5686e-08			4.01917
2061.8	3	0.44278	5.2002e-08			4.11713
2062.29	3	0.434021	4.56543e-08			4.01917
2062.77	3	0.424042	-6.89697e-09			4.05823
2063.26	3	0.41449	1.18713e-08			4.13666
2063.75	3	0.403839	4.64172e-08			4.05792
2064.24	3	0.395081	-3.4668e-08			4.09729
2064.73	3	0.384735	-8.5907e-08			4.13666
2065.22	3	0.375275	-2.09961e-08			4.05792
2065.7	3	0.365601	-4.33655e-08			4.09698
2066.19	3	0.355377	-1.05713e-07			4.05792
2066.68	3	0.34552	-7.94983e-08			3.92212
2067.17	3	0.336609	-5.40771e-08			4.07806
2067.66	3	0.326233	-1.51062e-07			4.05823
2068.14	3	0.316986	-2.20123e-07			3.94135
2068.63	3	0.306793	-1.84265e-07			4.05884
2069.12	3	0.296906	-2.21527e-07			4.05823
2069.61	3	0.28775	-3.06458e-07			4.09821
2070.1	3	0.278076	-3.05481e-07			4.13696
2070.59	3	0.268158	-3.14331e-07			4.15558
2071.07	3	0.258698	-4.37317e-07			4.05823
2071.56	3	0.249146	-5.31006e-07			3.96057
2072.05	3	0.238708	-5.41077e-07			4.07715
2072.54	3	0.228638	-6.36597e-07			4.05853
2073.03	3	0.219391	-7.85217e-07			4.05762
2073.52	3	0.209412	-8.45337e-07			3.96118
2074	3	0.19986	-9.57947e-07			3.96149
2074.49	3	0.190765	-1.24878e-06			3.86353
2074.98	3	0.180237	-1.54877e-06			3.99963
2075.47	3	0.170715	-1.91284e-06			4.01917
2075.96	3	0.160736	-2.5116e-06			4.05762
2076.45	3	0.151428	-3.31116e-06			4.07776
2076.93	3	0.141083	-4.20837e-06			4.11713
2077.42	3	0.131378	-5.36499e-06			4.09821
2077.91	3	0.122314	-6.89697e-06			4.0976
2078.4	3	0.112976	-8.61206e-06			4.09729
2078.89	3	0.102356	-1.05042e-05			4.01947
2079.38	3	0.0931091	-1.27716e-05			4.0387
2079.86	3	0.0837097	-1.52649e-05			4.0976
2080.35	3	0.0740967	-1.78192e-05			4.01917
2080.84	3	0.0643616	-2.05963e-05			4.11743
2081.33	3	0.0541382	-2.3645e-05			4.02008
2081.82	3	0.0477142	-2.6767e-05			3.98071
2082.3	3	0.0379059	-2.99652e-05			4.039
2082.79	3	0.027475	-3.35327e-05			4.0976
2083.28	3	0.0181396	-3.71124e-05			4.01978
2083.77	3	0.00882568	-4.06311e-05			4.00024
2084.26	3	-0.00114136	-4.43359e-05			3.92242
2084.75	3	-0.0113708	-4.81384e-05			4.03961
2085.23	3	-0.0206543	-5.19104e-05			4.03931
2085.72	3	-0.0305603	-5.56946e-05			4.05914
2086.21	3	-0.0399902	-5.96313e-05			3.98102
2086.7	3	-0.0496857	-6.35376e-05			3.98102
2087.19	3	-0.0621948	-6.73218e-05			3.88275
2087.68	3	-0.0723877	-7.1167e-05			3.90259
2088.16	3	-0.0828247	-7.48596e-05			4.03961
2088.65	3	-0.0924988	-7.8125E-05			4.11774
2089.14	3	-0.101654	-8.11768e-05			3.92242
2089.63	3	-0.110992	-8.39539e-05			3.92212
2090.12	3	-0.120941	-8.61511e-05			3.94226
2090.61	3	-0.130524	-8.80432e-05			3.98132
2091.09	3	-0.140717	-8.96606e-05			3.96149
2091.58	3	-0.150604	-9.07288e-05			3.98071
2092.07	3	-0.160553	-9.13391e-05			3.98132
2092.56	3	-0.16925	-9.16748e-05			3.96118
2093.05	3	-0.179413	-9.16138e-05			3.90167
2093.54	3	-0.189148	-9.1095e-05			3.90198
2094.02	3	-0.199432	-9.04846e-05			3.88245
2094.51	3	-0.208344	-8.97522e-05			3.86322
2095	3	-0.217865	-8.87756e-05			3.8446
2095.49	3	-0.227966	-8.78601e-05			3.88306
2095.98	3	-0.238403	-8.71277e-05			3.92273
2096.47	3	-0.246857	-8.63037e-05			3.8446
2096.95	3	-0.257629	-8.56018e-05			3.74176
2097.44	3	-0.267212	-8.51746e-05			3.82507
2097.93	3	-0.276825	-8.48083e-05			3.72223
2098.42	3	-0.286285	-8.45032e-05			3.74176
2098.91	3	-0.296539	-8.45032e-05			3.7616
2099.39	3	-0.305511	-8.46252e-05			3.90259
2099.88	3	-0.315796	-8.47778e-05			3.78571
2100.37	3	-0.325684	-8.5083e-05			3.84491
2100.86	3	-0.335052	-8.56323e-05			3.7027
2101.35	3	-0.345184	-8.62122e-05			3.8443
2101.84	3	-0.354187	-8.69446e-05			3.68347
2102.32	3	-0.3638	-8.80127e-05			3.64471
2102.81	3	-0.374054	-8.91724e-05			3.64441
2103.3	3	-0.38385	-9.03931e-05			3.68378
2103.79	3	-0.393402	-9.198e-05			3.56628
2104.28	3	-0.402893	-9.3689e-05			3.70239
2104.77	3	-0.413147	-9.53979e-05			3.66394
2105.25	3	-0.422607	-9.74121e-05			3.703
2105.74	3	-0.432068	-9.96094e-05			3.70361
2106.23	3	-0.442657	-0.000101776			3.64502
2106.72	3	-0.452301	-0.000104095			3.703
2107.21	3	-0.461151	-0.000106659			3.60504
2107.7	3	-0.471924	-0.000109192			3.60504
2108.18	3	-0.480682	-0.000111755			3.62518
2108.67	3	-0.490845	-0.000114563			3.52753
2109.16	3	-0.500854	-0.000117432			3.58551
2109.65	3	-0.510681	-0.000120239			3.48755
2110.14	3	-0.519958	-0.000123322			3.42896
2110.63	3	-0.529785	-0.000126678			3.46802
2111.11	3	-0.539368	-0.000130035			3.46832
2111.6	3	-0.549194	-0.000133698			3.44818
2112.09	3	-0.559143	-0.000137695			3.42834
2112.58	3	-0.569031	-0.000141876			3.37067
2113.07	3	-0.578796	-0.00014621			3.42957
2113.55	3	-0.58847	-0.00015097			3.35114
2114.04	3	-0.598297	-0.000155975			3.31146
2114.53	3	-0.608063	-0.000161102			3.42865
2115.02	3	-0.616791	-0.000166565			3.31177
2115.51	3	-0.626892	-0.000172333			3.42865
2116	3	-0.636871	-0.000178131			3.31207
2116.48	3	-0.646759	-0.000184174			3.29163
2116.97	3	-0.656525	-0.000190521			3.29193
2117.46	3	-0.665375	-0.000196838			3.25287
2117.95	3	-0.676086	-0.000203247			3.27148
2118.44	3	-0.685852	-0.000209961			3.17505
2118.93	3	-0.695404	-0.000216644			3.21381
2119.41	3	-0.704773	-0.000223236			3.03833
2119.9	3	-0.714905	-0.00022998			3.11646
2120.39	3	-0.724701	-0.000236786			3.11584
2120.88	3	-0.734375	-0.000243408			3.15582
2121.37	3	-0.744141	-0.000250092			3.11646
2121.86	3	-0.757446	-0.000256897			3.17535
2122.34	3	-0.766907	-0.000263611			3.01941
2122.83	3	-0.776367	-0.000270294			3.07739
2123.32	3	-0.786743	-0.000277161			3.05786
2123.81	3	-0.795288	-0.000284027			3.01941
2124.3	3	-0.805664	-0.000290833			3.0188
2124.79	3	-0.796814	-0.000252625			2.98004
2125.27	3	-0.786438	-0.000221039			2.94067
2125.76	3	-0.776978	-0.000193176			2.92114
2126.25	3	-0.767822	-0.000168243			2.97974
2126.74	3	-0.757446	-0.000145691			3.01971
2127.23	3	-0.743988	-0.000124969			2.96051
2127.72	3	-0.734314	-0.000105865			2.96021
2128.2	3	-0.724304	-8.84094e-05			2.901
2128.69	3	-0.714569	-7.21741e-05			3.07678
2129.18	3	-0.705017	-5.70679e-05			3.00018
2129.67	3	-0.694916	-4.31274e-05			2.95959
2130.16	3	-0.685242	-3.02368e-05			2.96021
2130.64	3	-0.675873	-1.80908e-05			3.03894
2131.13	3	-0.665588	-6.82373e-06			2.94067
2131.62	3	-0.656281	3.63922e-06			2.90161
2132.11	3	-0.646484	1.33636e-05			2.97943
2132.6	3	-0.6362	2.25525e-05			3.05725
2133.09	3	-0.627136	3.09814e-05			2.92114
2133.57	3	-0.617554	3.87726e-05			3.03894
2134.06	3	-0.607239	4.62585e-05			3.09662
2134.55	3	-0.597443	5.32227e-05			3.09662
2135.04	3	-0.58844	5.95703e-05			3.09723
2135.53	3	-0.578156	6.55823e-05			3.15552
2136.02	3	-0.568054	7.12891e-05			3.13538
2136.5	3	-0.558197	7.64771e-05			3.09662
2136.99	3	-0.549011	8.12378e-05			3.15552
2137.48	3	-0.538849	8.58154e-05			3.13538
2137.97	3	-0.529236	8.99963e-05			3.15521
2138.46	3	-0.519501	9.3689e-05			3.11584
2138.95	3	-0.510223	9.70459e-05			3.23334
2139.43	3	-0.500763	0.000100189			3.2135
2139.92	3	-0.491119	0.000102936			3.27179
2140.41	3	-0.480652	0.000105347			3.27209
2140.9	3	-0.470917	0.000107697			3.31146
2141.39	3	-0.461578	0.000109833			3.27209
2141.88	3	-0.451996	0.000111603			3.37006
2142.36	3	-0.442139	0.00011322			3.38928
2142.85	3	-0.432465	0.000114777			3.29102
2143.34	3	-0.422455	0.000116089			3.34991
2143.83	3	-0.412659	0.000117126			3.52692
2144.32	3	-0.403656	0.000118164			3.44788
2144.8	3	-0.394012	0.000118958			3.44818
2145.29	3	-0.383453	0.000119354			3.37006
2145.78	3	-0.373871	0.000119537			3.52661
2146.27	3	-0.363953	0.000119568			3.40881
2146.76	3	-0.354767	0.000119293			3.44849
2147.25	3	-0.345245	0.000118622			3.56628
2147.73	3	-0.335449	0.000117706			3.58521
2148.22	3	-0.325134	0.000116699			3.6441
2148.71	3	-0.315399	0.000115295			3.56628
2149.2	3	-0.305725	0.000113708			3.48816
2149.69	3	-0.295807	0.000112			3.6441
2150.18	3	-0.286499	0.000110199			3.68317
2150.66	3	-0.277161	0.000108154			3.66425
2151.15	3	-0.266785	0.000106079			3.62549
2151.64	3	-0.257751	0.000104248			3.72192
2152.13	3	-0.247711	0.000102509			3.703
2152.62	3	-0.238281	0.000100769			3.60504
2153.11	3	-0.227875	9.93347e-05			3.7854
2153.59	3	-0.217926	9.8175e-05			3.703
2154.08	3	-0.208008	9.71375e-05			3.703
2154.57	3	-0.19931	9.6283e-05			3.78571
2155.06	3	-0.189117	9.57947e-05			3.64441
2155.55	3	-0.179932	9.5459e-05			3.76038
2156.04	3	-0.169617	9.51233e-05			3.76068
2156.52	3	-0.159729	9.48486e-05			3.80493
2157.01	3	-0.150726	9.48181e-05			3.86353
2157.5	3	-0.140015	9.48181e-05			3.84399
2157.99	3	-0.130493	9.47876e-05			3.86322
2158.48	3	-0.121216	9.49707e-05			3.8446
2158.96	3	-0.11084	9.52148e-05			3.82446
2159.45	3	-0.101044	9.53674e-05			3.84399
2159.94	3	-0.0921021	9.55811e-05			3.88306
2160.43	3	-0.0820618	9.59473e-05			3.90259
2160.92	3	-0.0729675	9.6283e-05			3.96118
2161.41	3	-0.0631714	9.64966e-05			3.90228
2161.89	3	-0.0496643	9.66797e-05			3.88336
2162.38	3	-0.040683	9.68018e-05			3.78571
2162.87	3	-0.030899	9.67102e-05			3.8443
2163.36	3	-0.0213074	9.64355e-05			3.92273
2163.85	3	-0.0114685	9.61609e-05			3.88245
2164.34	3	-0.000958252	9.57642e-05			3.92181
2164.82	3	0.00884094	9.51233e-05			3.84399
2165.31	3	0.0176147	9.43604e-05			3.98102
2165.8	3	0.0276367	9.36584e-05			3.96179
2166.29	3	0.0379974	9.27124e-05			3.84399
2166.78	3	0.0477264	9.12476e-05			3.94226
2167.27	3	0.053772	8.92639e-05			3.9209
2167.75	3	0.0633545	8.65173e-05			3.96179
2168.24	3	0.073761	8.25806e-05			4.039
2168.73	3	0.0829773	7.74231e-05			3.90198
2169.22	3	0.0933228	7.1106e-05			3.94135
2169.71	3	0.102295	6.34766e-05			4.03931
2170.2	3	0.111847	5.44739e-05			4.13727
2170.68	3	0.122284	4.47693e-05			3.98071
2170.81	3	0.124176	4.24194e-05			4.15619