File: Edgar/20240515/20240515/EC_measurements/Sample_20240502_B/CV/data/CV_5
Time (s)	Scan	WE(1).Potential (V)	WE(1).Current (A)	Q+	Q-	External(1).External 2 (V)
2171.07	1	0.127594	3.29041e-05			3.96118
2171.56	1	0.13208	2.03369e-05			4.0387
2172.05	1	0.122467	3.56018e-06			4.13635
2172.54	1	0.113098	-3.09235e-06			4.07806
2173.03	1	0.102234	-7.30896e-06			3.99994
2173.52	1	0.0935364	-1.06567e-05			3.90198
2174	1	0.083374	-1.38458e-05			4.03931
2174.49	1	0.0732422	-1.7157e-05			4.07745
2174.98	1	0.0641785	-2.04407e-05			4.07867
2175.47	1	0.0541687	-2.37335e-05			4.01917
2175.96	1	0.0474731	-2.72034e-05			4.02039
2176.45	1	0.0371826	-3.0722e-05			3.96179
2176.93	1	0.0281982	-3.43079e-05			4.01978
2177.42	1	0.0182465	-3.78326e-05			4.01917
2177.91	1	0.00873718	-4.15344e-05			4.01947
2178.4	1	-0.00140381	-4.52332e-05			3.94226
2178.89	1	-0.0108826	-4.88495e-05			4.00024
2179.38	1	-0.0211578	-5.25513e-05			4.01978
2179.86	1	-0.0307922	-5.63049e-05			3.96179
2180.35	1	-0.0398285	-5.9967e-05			4.01978
2180.84	1	-0.050354	-6.35071e-05			3.96118
2181.33	1	-0.0632019	-6.71082e-05			3.96179
2181.82	1	-0.0722351	-7.04956e-05			3.86414
2182.31	1	-0.0816956	-7.35168e-05			3.98071
2182.79	1	-0.0922852	-7.62024e-05			3.90228
2183.28	1	-0.102051	-7.87964e-05			3.88306
2183.77	1	-0.111603	-8.10242e-05			3.90198
2184.26	1	-0.120758	-8.28247e-05			4.0979
2184.75	1	-0.130402	-8.44116e-05			3.94135
2185.24	1	-0.140045	-8.57849e-05			3.88367
2185.72	1	-0.150482	-8.66699e-05			3.96118
2186.21	1	-0.160187	-8.71887e-05			3.9624
2186.7	1	-0.169983	-8.75549e-05			3.88306
2187.19	1	-0.179169	-8.7616e-05			3.94135
2187.68	1	-0.189758	-8.72498e-05			3.88275
2188.16	1	-0.198395	-8.66699e-05			3.86414
2188.65	1	-0.208801	-8.61511e-05			3.92212
2189.14	1	-0.218018	-8.55713e-05			3.94196
2189.63	1	-0.227692	-8.48389e-05			3.76038
2190.12	1	-0.237885	-8.42896e-05			3.78601
2190.61	1	-0.247833	-8.38318e-05			3.74176
2191.09	1	-0.257751	-8.33435e-05			3.82507
2191.58	1	-0.267548	-8.29468e-05			3.86322
2192.07	1	-0.276276	-8.27942e-05			3.82507
2192.56	1	-0.286987	-8.28247e-05			3.94196
2193.05	1	-0.296326	-8.28247e-05			3.7027
2193.54	1	-0.306091	-8.29468e-05			3.72192
2194.02	1	-0.31543	-8.34045e-05			3.72162
2194.51	1	-0.325195	-8.37402e-05			3.78632
2195	1	-0.335205	-8.4259e-05			3.82446
2195.49	1	-0.345154	-8.50525e-05			3.76038
2195.98	1	-0.354156	-8.59985e-05			3.60565
2196.47	1	-0.364136	-8.69446e-05			3.7616
2196.95	1	-0.373779	-8.81653e-05			3.76068
2197.44	1	-0.383636	-8.95691e-05			3.68408
2197.93	1	-0.393494	-9.1156e-05			3.66425
2198.42	1	-0.403656	-9.27124e-05			3.70331
2198.91	1	-0.412689	-9.4635e-05			3.7027
2199.4	1	-0.422485	-9.67102e-05			3.52692
2199.88	1	-0.432434	-9.87549e-05			3.52692
2200.37	1	-0.44165	-0.000100922			3.54645
2200.86	1	-0.451782	-0.000103363			3.62518
2201.35	1	-0.461945	-0.000105835			3.62518
2201.84	1	-0.471069	-0.000108276			3.56659
2202.32	1	-0.48114	-0.000110962			3.54675
2202.81	1	-0.49118	-0.00011377			3.42865
2203.3	1	-0.500854	-0.000116486			3.56628
2203.79	1	-0.510376	-0.000119354			3.56598
2204.28	1	-0.520294	-0.000122498			3.58612
2204.77	1	-0.529907	-0.000125763			3.56659
2205.25	1	-0.539215	-0.00012915			3.50708
2205.74	1	-0.549164	-0.000132904			3.4491
2206.23	1	-0.558594	-0.000136871			3.48785
2206.72	1	-0.568115	-0.000140961			3.36975
2207.21	1	-0.577972	-0.000145294			3.44818
2207.7	1	-0.588257	-0.000149963			3.35022
2208.18	1	-0.598358	-0.000154816			3.40942
2208.67	1	-0.608002	-0.00015979			3.37067
2209.16	1	-0.616699	-0.000165161			3.21381
2209.65	1	-0.626373	-0.000170715			3.27209
2210.14	1	-0.636414	-0.000176239			3.37036
2210.63	1	-0.64621	-0.000182037			3.27209
2211.11	1	-0.656281	-0.000188019			3.25226
2211.6	1	-0.666321	-0.00019397			3.23303
2212.09	1	-0.676147	-0.000200012			3.27179
2212.58	1	-0.685181	-0.000206238			3.27209
2213.07	1	-0.69516	-0.000212494			3.17535
2213.56	1	-0.704254	-0.000218658			3.15613
2214.04	1	-0.714539	-0.000224854			3.13599
2214.53	1	-0.723999	-0.000231171			3.17505
2215.02	1	-0.733368	-0.000237396			3.11615
2215.51	1	-0.743317	-0.000243591			3.21381
2216	1	-0.753204	-0.00025			3.13507
2216.48	1	-0.765991	-0.000256409			3.11615
2216.97	1	-0.776978	-0.000262756			3.05817
2217.46	1	-0.786133	-0.000269226			3.05786
2217.95	1	-0.795288	-0.000275818			3.01971
2218.44	1	-0.806274	-0.00028241			2.88208
2218.93	1	-0.815735	-0.0002890625			2.95929
2219.41	1	-0.82489	-0.00029599			2.97943
2219.9	1	-0.834961	-0.000303497			2.92053
2220.39	1	-0.843506	-0.000310608			2.94128
2220.88	1	-0.854797	-0.000317902			2.90131
2221.37	1	-0.863953	-0.00032547			2.82288
2221.86	1	-0.873108	-0.000332977			2.86194
2222.34	1	-0.883484	-0.000340668			2.86255
2222.83	1	-0.892944	-0.000348602			2.80334
2223.32	1	-0.90271	-0.000356628			2.86316
2223.81	1	-0.898132	-0.000329529			2.88208
2224.3	1	-0.888062	-0.000296234			2.84302
2224.79	1	-0.879211	-0.00026651			2.76489
2225.27	1	-0.869446	-0.000239166			2.80365
2225.76	1	-0.859375	-0.000213898			2.7652
2226.25	1	-0.848694	-0.000190491			2.80365
2226.74	1	-0.838623	-0.000168518			2.72614
2227.23	1	-0.829163	-0.000147919			2.78442
2227.72	1	-0.819397	-0.000128723			2.86224
2228.2	1	-0.810242	-0.000110718			2.74536
2228.69	1	-0.801086	-9.36584e-05			2.7652
2229.18	1	-0.791626	-7.724e-05			2.76459
2229.67	1	-0.779724	-6.23169e-05			2.70691
2230.16	1	-0.771179	-4.81812e-05			2.84302
2230.65	1	-0.760803	-3.48267e-05			2.82318
2231.13	1	-0.748993	-2.24701e-05			2.82288
2231.62	1	-0.739227	-1.08643e-05			2.88177
2232.11	1	-0.728424	2.63367e-07			2.84332
2232.6	1	-0.719635	1.07452e-05			2.80365
2233.09	1	-0.710052	2.0462e-05			2.78473
2233.57	1	-0.700317	2.9776e-05			2.90161
2234.06	1	-0.690399	3.85284e-05			2.84271
2234.55	1	-0.680115	4.67621e-05			2.90131
2235.04	1	-0.67038	5.45349e-05			2.80334
2235.53	1	-0.66037	6.20422e-05			2.82349
2236.02	1	-0.651581	6.91528e-05			2.88177
2236.5	1	-0.641022	7.58667e-05			2.92114
2236.99	1	-0.631409	8.23669e-05			2.86194
2237.48	1	-0.621735	8.8623e-05			2.92114
2237.97	1	-0.611847	9.43909e-05			2.94037
2238.46	1	-0.602081	9.99146e-05			3.03894
2238.95	1	-0.592255	0.000105225			3.0191
2239.43	1	-0.582672	0.000110138			2.99957
2239.92	1	-0.572754	0.000114746			3.03864
2240.41	1	-0.563629	0.000119171			3.11584
2240.9	1	-0.55426	0.00012326			2.98004
2241.39	1	-0.543854	0.000126923			3.01971
2241.88	1	-0.534698	0.000130341			3.15491
2242.36	1	-0.525177	0.000133514			3.17474
2242.85	1	-0.51535	0.00013623			3.15613
2243.34	1	-0.505737	0.000138519			3.15521
2243.83	1	-0.496002	0.000140686			3.17505
2244.32	1	-0.485565	0.000142456			3.23334
2244.81	1	-0.475769	0.000143768			3.25195
2245.29	1	-0.466064	0.000144928			3.29132
2245.78	1	-0.456116	0.000145874			3.29132
2246.27	1	-0.446594	0.000146362			3.37006
2246.76	1	-0.436584	0.000146667			3.29193
2247.25	1	-0.426849	0.000146851			3.3316
2247.73	1	-0.418091	0.000146729			3.3313
2248.22	1	-0.408325	0.000146393			3.40912
2248.71	1	-0.39801	0.000146027			3.44757
2249.2	1	-0.388947	0.000145508			3.46832
2249.69	1	-0.378662	0.000144684			3.46832
2250.18	1	-0.369141	0.000143707			3.48816
2250.66	1	-0.35968	0.00014267			3.54675
2251.15	1	-0.35025	0.000141235			3.50677
2251.64	1	-0.339752	0.000139648			3.56659
2252.13	1	-0.330078	0.000138062			3.62518
2252.62	1	-0.320435	0.000136353			3.62488
2253.11	1	-0.310577	0.000134552			3.58612
2253.59	1	-0.300659	0.000132782			3.46771
2254.08	1	-0.291656	0.000131134			3.62518
2254.57	1	-0.281219	0.000129395			3.62518
2255.06	1	-0.272369	0.000127777			3.703
2255.55	1	-0.26181	0.000126617			3.58582
2256.04	1	-0.252625	0.000125549			3.62549
2256.52	1	-0.243073	0.000124603			3.60443
2257.01	1	-0.233337	0.000123993			3.66455
2257.5	1	-0.222687	0.000123657			3.72253
2257.99	1	-0.213654	0.000123352			3.72192
2258.48	1	-0.204193	0.00012323			3.7027
2258.97	1	-0.194458	0.000123383			3.72253
2259.45	1	-0.184021	0.000123657			3.78601
2259.94	1	-0.174194	0.000123871			3.74176
2260.43	1	-0.164825	0.000124268			3.74207
2260.92	1	-0.155609	0.000124634			3.78571
2261.41	1	-0.145691	0.000124847			3.82477
2261.9	1	-0.135193	0.000125031			3.8443
2262.38	1	-0.126404	0.000125275			3.76099
2262.87	1	-0.116455	0.000125305			3.88306
2263.36	1	-0.106995	0.000125244			3.90228
2263.85	1	-0.0972595	0.000125275			3.80524
2264.34	1	-0.086792	0.000125153			3.78632
2264.82	1	-0.0768433	0.000124847			3.88306
2265.31	1	-0.0675659	0.000124542			3.84399
2265.8	1	-0.0582581	0.000124176			3.80524
2266.29	1	-0.0453247	0.000123505			3.82599
2266.78	1	-0.0350739	0.000122711			3.76099
2267.27	1	-0.0252686	0.000121979			3.84491
2267.75	1	-0.0161438	0.000120911			3.9032
2268.24	1	-0.00657043	0.00011969			3.94165
2268.73	1	0.00350342	0.00011853			3.90259
2269.22	1	0.0130432	0.000117126			3.82477
2269.71	1	0.0227234	0.00011554			3.84399
2270.2	1	0.0323853	0.000113983			3.98071
2270.68	1	0.0430237	0.000112183			3.90228
2271.17	1	0.0497742	0.000110016			3.82416
2271.66	1	0.0592651	0.000107483			3.94196
2272.15	1	0.0682068	0.000104218			3.96118
2272.64	1	0.0778503	9.97925e-05			4.11621
2273.13	1	0.087616	9.42688e-05			3.96118
2273.61	1	0.0972595	8.74939e-05			4.01947
2274.1	1	0.107483	7.91321e-05			3.86322
2274.59	1	0.117218	6.93665e-05			4.01947
2275.08	2	0.126556	5.86548e-05			4.0387
2275.57	2	0.136566	4.74854e-05			3.91571
2276.06	2	0.146912	3.6969e-05			4.0387
2276.54	2	0.15567	2.84058e-05			3.99963
2277.03	2	0.165863	2.20856e-05			4.05823
2277.52	2	0.176025	1.76483e-05			4.11713
2278.01	2	0.18576	1.47186e-05			4.03931
2278.5	2	0.194855	1.26923e-05			4.05853
2278.98	2	0.205048	1.11298e-05			3.82446
2279.47	2	0.214783	1.00677e-05			3.90259
2279.96	2	0.224304	9.29565e-06			3.90198
2280.45	2	0.233643	8.66699e-06			3.98102
2280.94	2	0.243317	8.13904e-06			3.96118
2281.43	2	0.253876	7.74841e-06			4.01886
2281.91	2	0.263153	7.2998e-06			3.98102
2282.4	2	0.27243	6.93054e-06			4.07745
2282.89	2	0.282166	6.71387e-06			4.039
2283.38	2	0.29184	6.43616e-06			4.11713
2283.87	2	0.301544	6.1554e-06			4.07806
2284.36	2	0.312103	6.01807e-06			4.01855
2284.84	2	0.321198	5.82275e-06			3.98041
2285.33	2	0.331238	5.57861e-06			3.9798
2285.82	2	0.340729	5.46875E-06			4.05823
2286.31	2	0.35025	5.34363e-06			4.0387
2286.8	2	0.360291	5.11169e-06			4.01947
2287.29	2	0.370544	4.97131e-06			3.96027
2287.77	2	0.37973	4.88892e-06			3.96118
2288.26	2	0.389282	4.69666e-06			3.90137
2288.75	2	0.399017	4.55627e-06			3.88275
2289.24	2	0.408722	4.53186e-06			4.13696
2289.73	2	0.418427	4.41589e-06			4.0387
2290.22	2	0.428528	4.29382e-06			4.01947
2290.7	2	0.437836	4.30298e-06			4.07745
2291.19	2	0.448486	4.23584e-06			4.07776
2291.68	2	0.457947	4.11987e-06			4.03809
2292.17	2	0.467224	4.12598e-06			4.15558
2292.66	2	0.477356	4.11377e-06			3.86322
2293.14	2	0.486481	4.00085e-06			3.92151
2293.63	2	0.497009	3.97034e-06			4.05762
2294.12	2	0.506134	3.98865e-06			3.9801
2294.61	2	0.516266	3.8855e-06			4.11682
2295.1	2	0.525726	3.81744e-06			3.98041
2295.59	2	0.535095	3.86292e-06			4.05792
2296.07	2	0.545685	3.79578e-06			4.0387
2296.56	2	0.554474	3.72528e-06			4.05762
2297.05	2	0.565155	3.77228e-06			3.98102
2297.54	2	0.574036	3.74115e-06			4.05823
2298.03	2	0.584564	3.66211e-06			4.05792
2298.52	2	0.593323	3.69263e-06			4.11682
2299	2	0.603699	3.70087e-06			3.92181
2299.49	2	0.612915	3.60687e-06			3.99933
2299.98	2	0.622559	3.5907e-06			4.01978
2300.47	2	0.63266	3.61237e-06			4.07837
2300.96	2	0.642548	3.51105e-06			4.09668
2301.45	2	0.652466	3.46344e-06			4.039
2301.93	2	0.662231	3.50708e-06			3.94073
2302.42	2	0.671082	3.42651e-06			4.13666
2302.91	2	0.681732	3.36121e-06			4.09698
2303.4	2	0.691559	3.40271e-06			4.11682
2303.89	2	0.701263	3.35388e-06			4.09729
2304.38	2	0.710205	3.2843e-06			4.15588
2304.86	2	0.720062	3.32336e-06			3.94135
2305.35	2	0.729645	3.32489e-06			3.92151
2305.84	2	0.739349	3.23151e-06			3.94073
2306.33	2	0.749207	3.22662e-06			4.07745
2306.82	2	0.758362	3.24158e-06			4.07715
2307.31	2	0.769653	3.1427e-06			4.03809
2307.79	2	0.778809	3.1131e-06			4.03778
2308.28	2	0.787048	3.13934e-06			4.05731
2308.77	2	0.798645	3.0481e-06			3.94135
2309.26	2	0.807495	2.98706e-06			3.96057
2309.75	2	0.816345	3.02643e-06			4.05731
2310.23	2	0.826416	2.97272e-06			4.11682
2310.72	2	0.836792	2.89917e-06			4.05792
2311.21	2	0.846558	2.93213e-06			4.03778
2311.7	2	0.856323	2.92755e-06			4.09668
2312.19	2	0.865173	2.82654e-06			3.88184
2312.68	2	0.875854	2.81067e-06			3.9798
2313.16	2	0.884399	2.81799e-06			4.07745
2313.65	2	0.894775	2.71271e-06			4.01855
2314.14	2	0.905151	2.64984e-06			3.90167
2314.63	2	0.915527	2.68158e-06			3.96027
2315.12	2	0.924683	2.62482e-06			3.99963
2315.61	2	0.935059	2.5528e-06			4.05701
2316.09	2	0.943604	2.57538e-06			4.07684
2316.58	2	0.95459	2.56897e-06			3.97949
2317.07	2	0.963135	2.45605e-06			4.19495
2317.56	2	0.974121	2.39563e-06			4.07684
2318.05	2	0.982971	2.39532e-06			3.94104
2318.54	2	0.993652	2.30469e-06			3.97949
2319.02	2	0.988159	2.06604e-06			3.97949
2319.51	2	0.977478	1.97906e-06			4.15527
2320	2	0.968018	1.88324e-06			4.01855
2320.49	2	0.958252	1.70959e-06			4.03809
2320.98	2	0.948792	1.6217e-06			3.97949
2321.47	2	0.938416	1.57959e-06			4.05701
2321.95	2	0.928955	1.44409e-06			3.9801
2322.44	2	0.919189	1.33942e-06			4.09668
2322.93	2	0.910339	1.34186e-06			3.94073
2323.42	2	0.901184	1.27808e-06			4.01794
2323.91	2	0.890503	1.17249e-06			4.11682
2324.39	2	0.881042	1.15448e-06			4.01855
2324.88	2	0.870361	1.14075e-06			4.01825
2325.37	2	0.860901	1.02234e-06			4.03809
2325.86	2	0.851135	9.47571e-07			3.99963
2326.35	2	0.840759	9.6344e-07			3.99933
2326.84	2	0.832214	9.1095e-07			4.09668
2327.32	2	0.822449	8.35571e-07			3.9798
2327.81	2	0.812378	8.75854e-07			4.03778
2328.3	2	0.802612	8.61206e-07			4.03717
2328.79	2	0.792542	7.78198e-07			3.97949
2329.28	2	0.782776	7.7179e-07			4.05731
2329.77	2	0.773621	7.86133e-07			4.07776
2330.25	2	0.76416	6.92139e-07			4.13574
2330.74	2	0.753784	6.39038e-07			4.19464
2331.23	2	0.744324	6.81763e-07			3.9801
2331.72	2	0.735077	6.26831e-07			3.9798
2332.21	2	0.724854	5.65491e-07			3.92181
2332.7	2	0.715027	6.09131e-07			4.03809
2333.18	2	0.705933	5.89905e-07			3.9209
2333.67	2	0.695648	5.15442e-07			4.05762
2334.16	2	0.68576	5.34973e-07			4.19434
2334.65	2	0.6763	5.57556e-07			3.88245
2335.14	2	0.666626	4.6875E-07			4.01917
2335.63	2	0.657288	4.40674e-07			4.03809
2336.11	2	0.647705	4.85535e-07			4.07745
2336.6	2	0.637634	4.20837e-07			3.97949
2337.09	2	0.62738	3.65601e-07			4.01886
2337.58	2	0.618652	4.23279e-07			4.01947
2338.07	2	0.608826	4.10461e-07			3.88214
2338.55	2	0.599213	3.47595e-07			3.92181
2339.04	2	0.58844	3.80554e-07			4.15558
2339.53	2	0.578705	4.08936e-07			4.0387
2340.02	2	0.569305	3.24402e-07			3.9212
2340.51	2	0.559906	3.00293e-07			3.94073
2341	2	0.549774	3.49426e-07			4.13605
2341.48	2	0.540436	2.89307e-07			4.01886
2341.97	2	0.531067	2.38342e-07			4.05792
2342.46	2	0.52066	3.01208e-07			3.90198
2342.95	2	0.511475	2.83813e-07			3.9801
2343.44	2	0.501617	2.23694e-07			4.07806
2343.93	2	0.491577	2.61841e-07			4.01917
2344.41	2	0.481873	2.90833e-07			4.00024
2344.9	2	0.472076	2.06604e-07			4.05731
2345.39	2	0.462646	1.92566e-07			3.98041
2345.88	2	0.453247	2.38953e-07			3.92151
2346.37	2	0.443085	1.69983e-07			4.03839
2346.86	2	0.433105	1.17493e-07			4.0387
2347.34	2	0.423615	1.83105e-07			4.01886
2347.83	2	0.414459	1.65405e-07			4.01855
2348.32	2	0.404236	1.01013e-07			4.0979
2348.81	2	0.394257	1.38855e-07			4.15558
2349.3	2	0.384796	1.651e-07			4.03931
2349.79	2	0.374603	7.90405e-08			4.01947
2350.27	2	0.365814	5.24902e-08			4.07745
2350.76	2	0.35614	9.64355e-08			3.94073
2351.25	2	0.345795	2.07825e-08			3.96118
2351.74	2	0.335785	-3.79944e-08			3.9801
2352.23	2	0.326294	7.72095e-09			4.17542
2352.72	2	0.317291	-1.91956e-08			4.05731
2353.2	2	0.307281	-1.0144e-07			3.96088
2353.69	2	0.297882	-9.62219e-08			3.82446
2354.18	2	0.287781	-8.66089e-08			3.98041
2354.67	2	0.277344	-2.01111e-07			3.99994
2355.16	2	0.267914	-2.65808e-07			4.05731
2355.64	2	0.258728	-2.55737e-07			4.05823
2356.13	2	0.248962	-3.64685e-07			4.09821
2356.62	2	0.23941	-4.81567e-07			3.96088
2357.11	2	0.228851	-4.86145e-07			3.9801
2357.6	2	0.21994	-5.76782e-07			4.05853
2358.09	2	0.209808	-7.60803e-07			3.99994
2358.57	2	0.199524	-9.00574e-07			4.01886
2359.06	2	0.190826	-1.07758e-06			4.01947
2359.55	2	0.180511	-1.46301e-06			4.07806
2360.04	2	0.170715	-1.93634e-06			3.88275
2360.53	2	0.161133	-2.46216e-06			4.01947
2361.02	2	0.15152	-3.26019e-06			3.96088
2361.5	2	0.141418	-4.31824e-06			4.11682
2361.99	2	0.136353	-5.51147e-06			0.48587
2362.48	2	0.122681	-6.9458e-06			4.01947
2362.97	2	0.11261	-8.7616e-06			4.039
2363.46	2	0.103333	-1.07605e-05			3.99994
2363.95	2	0.0932922	-1.29242e-05			4.13635
2364.43	2	0.0831299	-1.54175e-05			4.0976
2364.92	2	0.0741272	-1.81274e-05			3.96118
2365.41	2	0.063446	-2.0874e-05			3.98071
2365.9	2	0.0535889	-2.38281e-05			4.03961
2366.39	2	0.0478821	-2.70386e-05			3.98132
2366.88	2	0.0381378	-3.02765e-05			4.01917
2367.36	2	0.028302	-3.36792e-05			3.96118
2367.85	2	0.0178253	-3.72803e-05			3.96149
2368.34	2	0.00869446	-4.09424e-05			4.01947
2368.83	2	-0.00123291	-4.45404e-05			3.98102
2369.32	2	-0.0107391	-4.82574e-05			4.01947
2369.8	2	-0.0213959	-5.21851e-05			3.96179
2370.29	2	-0.0311737	-5.59692e-05			4.01917
2370.78	2	-0.0408142	-5.97229e-05			3.98132
2371.27	2	-0.0499298	-6.37207e-05			3.94226
2371.76	2	-0.0628052	-6.76575e-05			4.07776
2372.25	2	-0.0728149	-7.13501e-05			3.88275
2372.73	2	-0.0816345	-7.49817e-05			4.01978
2373.22	2	-0.0923767	-7.83997e-05			3.9801
2373.71	2	-0.101807	-8.13599e-05			3.90228
2374.2	2	-0.111816	-8.39539e-05			4.00024
2374.69	2	-0.121368	-8.63037e-05			3.90198
2375.18	2	-0.130859	-8.82263e-05			3.88336
2375.66	2	-0.140961	-8.96912e-05			3.94196
2376.15	2	-0.149628	-9.08203e-05			3.82477
2376.64	2	-0.159485	-9.15527e-05			3.7854
2377.13	2	-0.170074	-9.17358e-05			3.90259
2377.62	2	-0.179291	-9.15833e-05			4.07837
2378.11	2	-0.189575	-9.1217e-05			3.92273
2378.59	2	-0.19931	-9.05762e-05			3.96149
2379.08	2	-0.208344	-8.96912e-05			3.88275
2379.57	2	-0.217834	-8.88672e-05			3.92181
2380.06	2	-0.227661	-8.81042e-05			3.78571
2380.55	2	-0.237488	-8.71887e-05			3.72192
2381.04	2	-0.247467	-8.64258e-05			3.78601
2381.52	2	-0.257629	-8.58765e-05			3.86383
2382.01	2	-0.26709	-8.53882e-05			3.82416
2382.5	2	-0.276306	-8.49304e-05			3.76099
2382.99	2	-0.286804	-8.47778e-05			3.76099
2383.48	2	-0.296234	-8.48083e-05			3.703
2383.97	2	-0.305573	-8.48083e-05			3.68347
2384.45	2	-0.31604	-8.5022e-05			3.78601
2384.94	2	-0.3255	-8.53882e-05			3.66425
2385.43	2	-0.335327	-8.5907e-05			3.68317
2385.92	2	-0.344696	-8.64563e-05			3.66425
2386.41	2	-0.354797	-8.72803e-05			3.68347
2386.89	2	-0.364746	-8.83484e-05			3.60535
2387.38	2	-0.374237	-8.9447e-05			3.60504
2387.87	2	-0.383575	-9.06677e-05			3.78632
2388.36	2	-0.394073	-9.21936e-05			3.74207
2388.85	2	-0.403534	-9.38416e-05			3.66455
2389.34	2	-0.4133	-9.55505e-05			3.60535
2389.82	2	-0.422546	-9.74731e-05			3.62518
2390.31	2	-0.432343	-9.96094e-05			3.52661
2390.8	2	-0.44223	-0.000101776			3.42865
2391.29	2	-0.451294	-0.000104034			3.54645
2391.78	2	-0.461121	-0.000106537			3.64502
2392.27	2	-0.471191	-0.0001091			3.54675
2392.75	2	-0.480682	-0.000111603			3.58521
2393.24	2	-0.491119	-0.000114288			3.46832
2393.73	2	-0.500854	-0.000117126			3.54675
2394.22	2	-0.510834	-0.000119995			3.48816
2394.71	2	-0.520294	-0.000122986			3.56628
2395.2	2	-0.530273	-0.000126343			3.50739
2395.68	2	-0.539124	-0.000129883			3.56659
2396.17	2	-0.54895	-0.000133575			3.46893
2396.66	2	-0.558228	-0.000137512			3.29132
2397.15	2	-0.568817	-0.000141846			3.38989
2397.64	2	-0.577972	-0.000146362			3.44788
2398.13	2	-0.587952	-0.000151031			3.44818
2398.61	2	-0.597351	-0.000156128			3.38989
2399.1	2	-0.607788	-0.00016156			3.31207
2399.59	2	-0.617096	-0.000167023			3.31207
2400.08	2	-0.627228	-0.000172791			3.29163
2400.57	2	-0.637085	-0.000178864			3.25287
2401.05	2	-0.646393	-0.000184998			3.31146
2401.54	2	-0.656311	-0.000191223			3.31146
2402.03	2	-0.665619	-0.000197754			3.31177
2402.52	2	-0.675262	-0.000204315			3.27179
2403.01	2	-0.685425	-0.000210815			3.17535
2403.5	2	-0.695435	-0.000217468			3.21442
2403.98	2	-0.705322	-0.000224152			3.19489
2404.47	2	-0.714081	-0.000230652			3.11615
2404.96	2	-0.72467	-0.000237213			3.13568
2405.45	2	-0.734161	-0.000243835			3.13538
2405.94	2	-0.743378	-0.000250305			3.13599
2406.43	2	-0.756226	-0.000256714			3.09631
2406.91	2	-0.767212	-0.000263336			3.0188
2407.4	2	-0.776672	-0.000269867			3.02002
2407.89	2	-0.785828	-0.000276306			3.0777
2408.38	2	-0.796204	-0.000282867			3.05817
2408.87	2	-0.805359	-0.00028949			2.90161
2409.36	2	-0.815735	-0.000295959			3.01971
2409.84	2	-0.825806	-0.000302979			2.96021
2410.33	2	-0.834351	-0.000309723			2.88208
2410.82	2	-0.845337	-0.000316437			2.92145
2411.31	2	-0.854492	-0.000323151			2.96051
2411.8	2	-0.863647	-0.000330109			2.98035
2412.29	2	-0.873413	-0.000337128			2.80365
2412.77	2	-0.883484	-0.000344086			2.92084
2413.26	2	-0.893555	-0.000351318			2.96021
2413.75	2	-0.902405	-0.000358612			2.88239
2414.24	2	-0.898743	-0.000331055			2.88177
2414.73	2	-0.887451	-0.000297424			2.72614
2415.21	2	-0.878906	-0.000267578			2.86255
2415.7	2	-0.868225	-0.000240295			2.78412
2416.19	2	-0.85968	-0.000214996			2.80396
2416.68	2	-0.849304	-0.00019165			2.76489
2417.17	2	-0.840454	-0.000169922			2.84271
2417.66	2	-0.828552	-0.000149445			2.76489
2418.14	2	-0.820618	-0.000130341			2.74536
2418.63	2	-0.809937	-0.000112549			2.64862
2419.12	2	-0.800171	-9.57336e-05			2.74597
2419.61	2	-0.789185	-7.94983e-05			2.64771
2420.1	2	-0.78125	-6.48193e-05			2.72644
2420.59	2	-0.771484	-5.09949e-05			2.66693
2421.07	2	-0.761414	-3.78265e-05			2.84332
2421.56	2	-0.748138	-2.55554e-05			2.78412
2422.05	2	-0.738861	-1.41174e-05			2.72675
2422.54	2	-0.729004	-3.2608e-06			2.7066
2423.03	2	-0.719391	7.13196e-06			2.82349
2423.52	2	-0.708679	1.66718e-05			2.72614
2424	2	-0.699921	2.57233e-05			2.80426
2424.49	2	-0.689972	3.43628e-05			2.86255
2424.98	2	-0.680328	4.25903e-05			2.72705
2425.47	2	-0.670807	5.02625e-05			2.88177
2425.96	2	-0.661407	5.75867e-05			2.86224
2426.45	2	-0.65097	6.46973e-05			2.82349
2426.93	2	-0.640808	7.13501e-05			2.92084
2427.42	2	-0.6315	7.76367e-05			2.90192
2427.91	2	-0.622406	8.38318e-05			2.84271
2428.4	2	-0.612122	8.96912e-05			2.94037
2428.89	2	-0.602386	9.51538e-05			3.01941
2429.38	2	-0.592896	0.000100372			2.94067
2429.86	2	-0.582947	0.000105316			3.0191
2430.35	2	-0.572815	0.000109924			3.07739
2430.84	2	-0.563751	0.000114166			3.01971
2431.33	2	-0.553284	0.000118256			3.05725
2431.82	2	-0.544373	0.00012207			3.05817
2432.3	2	-0.534973	0.000125397			3.15552
2432.79	2	-0.524261	0.000128479			3.19458
2433.28	2	-0.515045	0.000131317			3.15552
2433.77	2	-0.505524	0.000133606			3.15491
2434.26	2	-0.496002	0.00013562			3.21381
2434.75	2	-0.486328	0.000137421			3.19397
2435.23	2	-0.475616	0.000138855			3.15521
2435.72	2	-0.46582	0.000139923			3.2724
2436.21	2	-0.457001	0.000140747			3.33038
2436.7	2	-0.446686	0.000141449			3.27209
2437.19	2	-0.43689	0.000141724			3.31116
2437.68	2	-0.427673	0.000141785			3.25195
2438.16	2	-0.417664	0.000141876			3.38959
2438.65	2	-0.408081	0.000141724			3.29132
2439.14	2	-0.397919	0.000141266			3.31085
2439.63	2	-0.388947	0.000140808			3.42896
2440.12	2	-0.379242	0.000140198			3.48785
2440.61	2	-0.369354	0.000139252			3.44818
2441.09	2	-0.35907	0.000138123			3.54645
2441.58	2	-0.349762	0.000136932			3.44849
2442.07	2	-0.340302	0.000135529			3.56567
2442.56	2	-0.329834	0.000133911			3.52692
2443.05	2	-0.320618	0.000132324			3.56598
2443.54	2	-0.311188	0.000130829			3.56659
2444.02	2	-0.30127	0.000129089			3.56598
2444.51	2	-0.290802	0.000127441			3.60504
2445	2	-0.281036	0.000126007			3.64441
2445.49	2	-0.27179	0.000124634			3.72192
2445.98	2	-0.262329	0.000123383			3.76129
2446.46	2	-0.252258	0.000122467			3.76099
2446.95	2	-0.243195	0.000121796			3.80554
2447.44	2	-0.233368	0.000121094			3.62488
2447.93	2	-0.222931	0.000120728			3.64502
2448.42	2	-0.212952	0.000120605			3.68408
2448.91	2	-0.203217	0.000120514			3.76099
2449.39	2	-0.193665	0.000120544			3.703
2449.88	2	-0.184601	0.00012085			3.66455
2450.37	2	-0.174042	0.000121185			3.78571
2450.86	2	-0.164429	0.000121429			3.7027
2451.35	2	-0.155029	0.000121735			3.86353
2451.84	2	-0.145508	0.000122101			3.80554
2452.32	2	-0.135162	0.000122192			3.76038
2452.81	2	-0.125549	0.000122253			3.74176
2453.3	2	-0.116669	0.000122406			3.84399
2453.79	2	-0.10614	0.000122406			3.88275
2454.28	2	-0.0965271	0.000122284			3.88306
2454.77	2	-0.0866699	0.000122162			3.72223
2455.25	2	-0.07724	0.00012204			3.86353
2455.74	2	-0.0678406	0.000121613			3.86292
2456.23	2	-0.0579529	0.000121185			3.88336
2456.72	2	-0.0448334	0.000120697			3.88275
2457.21	2	-0.0351013	0.000119965			3.8446
2457.7	2	-0.0261963	0.00011908			3.86353
2458.18	2	-0.0161835	0.000118195			3.88336
2458.67	2	-0.00605774	0.000117065			3.94165
2459.16	2	0.0030365	0.000115753			3.98102
2459.65	2	0.0129669	0.000114349			3.94226
2460.14	2	0.0233154	0.000112946			4.09882
2460.62	2	0.0330811	0.000111237			3.86322
2461.11	2	0.0420593	0.000109375			4.01947
2461.6	2	0.0497742	0.00010733			3.86322
2462.09	2	0.0583801	0.000104736			3.94196
2462.58	2	0.0684509	0.000101257			3.90259
2463.07	2	0.07901	9.69238e-05			3.90198
2463.55	2	0.0885925	9.14001e-05			3.88245
2464.04	2	0.0978394	8.43201e-05			4.01917
2464.53	2	0.108124	7.58972e-05			3.92212
2465.02	2	0.117615	6.61926e-05			3.96088
2465.51	3	0.126984	5.53589e-05			4.05853
2466	3	0.137268	4.43298e-05			4.0387
2466.48	3	0.146698	3.43597e-05			4.05823
2466.97	3	0.155762	2.62482e-05			4.07837
2467.46	3	0.165527	2.03217e-05			3.90198
2467.95	3	0.175964	1.63788e-05			3.9801
2468.44	3	0.184937	1.37115e-05			4.07837
2468.93	3	0.195374	1.1731e-05			3.98071
2469.41	3	0.205261	1.03668e-05			4.01855
2469.9	3	0.2146	9.42383e-06			3.96149
2470.39	3	0.224762	8.68225e-06			4.07715
2470.88	3	0.234406	8.02917e-06			3.97949
2471.37	3	0.244049	7.59888e-06			4.039
2471.86	3	0.253967	7.15332e-06			3.99963
2472.34	3	0.262787	6.73218e-06			4.01886
2472.83	3	0.273468	6.49109e-06			4.07745
2473.32	3	0.285614	6.25E-06			3.82355
2473.81	3	0.292664	5.94788e-06			4.05762
2474.3	3	0.301544	5.74341e-06			4.13605
2474.79	3	0.31189	5.59998e-06			4.05792
2475.27	3	0.321594	5.35278e-06			4.01886
2475.76	3	0.330811	5.14832e-06			4.01947
2476.25	3	0.341431	5.05676e-06			4.01947
2476.74	3	0.35022	4.89502e-06			4.11713
2477.23	3	0.360077	4.69666e-06			3.96088
2477.71	3	0.369629	4.61426e-06			4.01917
2478.2	3	0.380096	4.52576e-06			4.01917
2478.69	3	0.390015	4.3396e-06			4.03839
2479.18	3	0.399689	4.23889e-06			4.05884
2479.67	3	0.409363	4.20837e-06			4.05762
2480.16	3	0.418365	4.07715e-06			4.0976
2480.64	3	0.429077	3.96423e-06			4.01886
2481.13	3	0.438568	3.98254e-06			3.88306
2481.62	3	0.447662	3.93982e-06			3.98041
2482.11	3	0.457367	3.83606e-06			4.01917
2482.6	3	0.467957	3.81134e-06			3.9801
2483.09	3	0.477631	3.8205e-06			4.0387
2483.57	3	0.487427	3.70361e-06			3.99994
2484.06	3	0.49707	3.63129e-06			3.96088
2484.55	3	0.506653	3.66028e-06			3.96088
2485.04	3	0.516632	3.60107e-06			3.88245
2485.53	3	0.525269	3.52051e-06			4.01886
2486.02	3	0.535736	3.5556e-06			4.05792
2486.5	3	0.545715	3.55682e-06			3.96027
2486.99	3	0.554718	3.45825e-06			3.88184
2487.48	3	0.564606	3.43262e-06			4.01917
2487.97	3	0.574768	3.45337e-06			4.05792
2488.46	3	0.585602	3.35785e-06			3.8028
2488.95	3	0.593414	3.29285e-06			4.03839
2489.43	3	0.603455	3.33618e-06			4.01825
2489.92	3	0.613647	3.29865e-06			3.90167
2490.41	3	0.622803	3.21808e-06			3.99902
2490.9	3	0.633148	3.25256e-06			4.21478
2491.39	3	0.642914	3.2666e-06			4.01917
2491.87	3	0.651764	3.16681e-06			3.94073
2492.36	3	0.662354	3.14636e-06			4.07745
2492.85	3	0.672058	3.17383e-06			4.09668
2493.34	3	0.680969	3.07953e-06			4.03809
2493.83	3	0.690643	3.0191e-06			4.0976
2494.32	3	0.701263	3.06763e-06			4.07715
2494.8	3	0.710541	3.02063e-06			4.05762
2495.29	3	0.71991	2.95197e-06			4.01917
2495.78	3	0.730133	3.00232e-06			4.05731
2496.27	3	0.740082	3.00323e-06			4.01825
2496.76	3	0.749512	2.91504e-06			4.11652
2497.25	3	0.759583	2.90619e-06			3.99872
2497.73	3	0.767822	2.92908e-06			4.09698
2498.22	3	0.778503	2.87201e-06			4.15497
2498.71	3	0.787964	2.80426e-06			4.03778
2499.2	3	0.797119	2.82532e-06			4.01855
2499.69	3	0.808411	2.76611e-06			4.05731
2500.18	3	0.817261	2.68646e-06			3.9798
2500.66	3	0.827332	2.7179e-06			4.07745
2501.15	3	0.837402	2.7179e-06			4.05731
2501.64	3	0.845947	2.61841e-06			3.99963
2502.13	3	0.856323	2.58789e-06			3.86292
2502.62	3	0.866089	2.59644e-06			4.03809
2503.11	3	0.875244	2.49268e-06			4.15558
2503.59	3	0.88501	2.41119e-06			4.05731
2504.08	3	0.895081	2.42737e-06			4.03717
2504.57	3	0.904236	2.37732e-06			3.97919
2505.06	3	0.914917	2.28271e-06			3.90076
2505.55	3	0.923767	2.28241e-06			4.03778
2506.04	3	0.933228	2.27966e-06			4.19403
2506.52	3	0.944519	2.17041e-06			3.97919
2507.01	3	0.95459	2.11151e-06			4.13544
2507.5	3	0.96405	2.12616e-06			3.88184
2507.99	3	0.973206	2.0639e-06			4.01855
2508.48	3	0.982666	1.98425e-06			4.09668
2508.96	3	0.992126	2.01294e-06			3.99933
2509.45	3	0.987549	1.8457e-06			4.11621
2509.94	3	0.978394	1.6272e-06			4.03809
2510.43	3	0.968018	1.51489e-06			4.01764
2510.92	3	0.959167	1.45569e-06			3.90167
2511.41	3	0.949707	1.30585e-06			4.13574
2511.89	3	0.939026	1.19537e-06			4.03778
2512.38	3	0.928955	1.1969e-06			3.95996
2512.87	3	0.919495	1.1203e-06			4.05762
2513.36	3	0.910034	1.02203e-06			4.05762
2513.85	3	0.899658	1.01929e-06			3.94104
2514.34	3	0.889587	1.00555e-06			3.99933
2514.82	3	0.879822	8.84094e-07			4.01855
2515.31	3	0.870972	8.41064e-07			4.05731
2515.8	3	0.861816	8.48389e-07			3.96027
2516.29	3	0.852051	7.62939e-07			3.97949
2516.78	3	0.84137	6.93665e-07			4.01855
2517.27	3	0.831604	7.32117e-07			3.95966
2517.75	3	0.821533	7.05872e-07			3.9801
2518.24	3	0.812378	6.37207e-07			4.09668
2518.73	3	0.802917	6.47888e-07			4.03778
2519.22	3	0.792542	6.64673e-07			3.97949
2519.71	3	0.783386	5.69458e-07			4.07715
2520.2	3	0.77301	5.25208e-07			4.01855
2520.68	3	0.763245	5.63354e-07			4.07745
2521.17	3	0.753784	5.13306e-07			4.05762
2521.66	3	0.744324	4.55322e-07			4.03809
2522.15	3	0.73468	5.078125E-07			4.07745
2522.64	3	0.725281	5.17273e-07			4.01855
2523.12	3	0.715912	4.44946e-07			3.9801
2523.61	3	0.70517	4.47083e-07			4.07806
2524.1	3	0.695587	4.80652e-07			3.99963
2524.59	3	0.686646	3.95508e-07			4.01947
2525.08	3	0.676331	3.50952e-07			4.03839
2525.57	3	0.666595	4.05579e-07			3.98041
2526.05	3	0.65744	3.80859e-07			3.99933
2526.54	3	0.647583	3.25317e-07			3.99963
2527.03	3	0.638153	3.69873e-07			3.88214
2527.52	3	0.627563	3.97034e-07			3.99994
2528.01	3	0.618408	3.14026e-07			3.96088
2528.5	3	0.608765	2.86865e-07			4.03931
2528.98	3	0.598419	3.27759e-07			4.07715
2529.47	3	0.588593	2.8656e-07			4.13635
2529.96	3	0.578796	2.35291e-07			4.07745
2530.45	3	0.569244	2.96021e-07			3.99963
2530.94	3	0.560303	3.17383e-07			3.99963
2531.43	3	0.550537	2.45667e-07			3.94104
2531.91	3	0.540009	2.34375E-07			4.13696
2532.4	3	0.531128	2.78931e-07			3.82324
2532.89	3	0.520538	2.09656e-07			4.0976
2533.38	3	0.510742	1.68762e-07			4.11652
2533.87	3	0.501831	2.31323e-07			3.96057
2534.36	3	0.491272	2.49329e-07			4.11713
2534.84	3	0.48172	1.76392e-07			3.96088
2535.33	3	0.472046	1.80664e-07			4.13605
2535.82	3	0.462738	2.15759e-07			4.01917
2536.31	3	0.453217	1.40991e-07			3.96118
2536.8	3	0.443298	9.46045e-08			4.01886
2537.28	3	0.433777	1.58081e-07			4.21478
2537.77	3	0.424042	1.61438e-07			4.01978
2538.26	3	0.414429	1.0437e-07			4.0387
2538.75	3	0.404816	1.0498e-07			4.11713
2539.24	3	0.394043	1.37939e-07			4.05823
2539.73	3	0.384491	6.31714e-08			4.0387
2540.21	3	0.374634	1.15967e-08			3.94104
2540.7	3	0.365387	7.08923e-08			4.03839
2541.19	3	0.355896	8.32214e-08			4.01978
2541.68	3	0.345673	-3.96729e-10			4.13666
2542.17	3	0.336121	-1.51062e-08			4.07715
2542.66	3	0.325928	5.64575e-09			4.01917
2543.14	3	0.316803	-8.05359e-08			4.01855
2543.63	3	0.306915	-1.52649e-07			4.07837
2544.12	3	0.297394	-1.11115e-07			4.01917
2544.61	3	0.286652	-1.2149e-07			4.13696
2545.1	3	0.278412	-2.22778e-07			3.96027
2545.59	3	0.268616	-2.60834e-07			3.96057
2546.07	3	0.258575	-2.63062e-07			4.0387
2546.56	3	0.248688	-3.88489e-07			3.88245
2547.05	3	0.239044	-4.9469e-07			4.01947
2547.54	3	0.22876	-5.00183e-07			4.01917
2548.03	3	0.219177	-5.84717e-07			4.07776
2548.52	3	0.209534	-7.60803e-07			3.92212
2549	3	0.2005	-9.08813e-07			4.09851
2549.49	3	0.190216	-1.08032e-06			4.15619
2549.98	3	0.180908	-1.44958e-06			4.03931
2550.47	3	0.170441	-1.93176e-06			3.90228
2550.96	3	0.161652	-2.43713e-06			4.03931
2551.45	3	0.151367	-3.20343e-06			4.07806
2551.93	3	0.141174	-4.2572e-06			3.99933
2552.42	3	0.131317	-5.44739e-06			4.17572
2552.91	3	0.122162	-6.86951e-06			4.07806
2553.4	3	0.112213	-8.65479e-06			4.05823
2553.89	3	0.102692	-1.06781e-05			3.92151
2554.37	3	0.0926514	-1.28326e-05			4.0387
2554.86	3	0.0829468	-1.52344e-05			4.07806
2555.35	3	0.0734253	-1.79352e-05			4.07806
2555.84	3	0.0638428	-2.06604e-05			4.01978
2556.33	3	0.0544128	-2.35596e-05			3.92181
2556.82	3	0.0473541	-2.67548e-05			3.90228
2557.3	3	0.0373505	-3.00293e-05			3.96088
2557.79	3	0.0275238	-3.34198e-05			4.01917
2558.28	3	0.0182312	-3.69476e-05			4.05914
2558.77	3	0.0086792	-4.06036e-05			4.00024
2559.26	3	-0.00135803	-4.42047e-05			3.88275
2559.75	3	-0.0109589	-4.78577e-05			3.92242
2560.23	3	-0.0212646	-5.17578e-05			3.96149
2560.72	3	-0.0303619	-5.56335e-05			3.88275
2561.21	3	-0.0407013	-5.94177e-05			3.90198
2561.7	3	-0.0503143	-6.3385e-05			4.05853
2562.19	3	-0.0624695	-6.73523e-05			3.98071
2562.68	3	-0.0727844	-7.10754e-05			3.92181
2563.16	3	-0.0824585	-7.4707e-05			3.90259
2563.65	3	-0.0917664	-7.8186e-05			3.8443
2564.14	3	-0.101898	-8.12683e-05			3.92181
2564.63	3	-0.111145	-8.39233e-05			3.98041
2565.12	3	-0.121094	-8.63342e-05			4.05853
2565.61	3	-0.130676	-8.83484e-05			3.90289
2566.09	3	-0.14035	-8.984375E-05			3.88367
2566.58	3	-0.15033	-9.10034e-05			4.00024
2567.07	3	-0.159973	-9.17664e-05			3.92242
2567.56	3	-0.169525	-9.20105e-05			3.92212
2568.05	3	-0.178986	-9.18579e-05			3.80493
2568.53	3	-0.188812	-9.15222e-05			3.94226
2569.02	3	-0.198761	-9.09119e-05			3.7854
2569.51	3	-0.208679	-9.00269e-05			3.86414
2570	3	-0.218384	-8.92029e-05			3.92212
2570.49	3	-0.227936	-8.84094e-05			3.86353
2570.98	3	-0.238129	-8.75244e-05			3.90259
2571.46	3	-0.247253	-8.67004e-05			3.84491
2571.95	3	-0.257263	-8.61816e-05			3.74146
2572.44	3	-0.267334	-8.57239e-05			3.82477
2572.93	3	-0.27652	-8.52966e-05			3.84338
2573.42	3	-0.286774	-8.50525e-05			3.80554
2573.91	3	-0.296082	-8.5083e-05			3.78571
2574.39	3	-0.305511	-8.5083e-05			3.7616
2574.88	3	-0.315521	-8.52661e-05			3.66425
2575.37	3	-0.325134	-8.56323e-05			3.74146
2575.86	3	-0.335419	-8.61816e-05			3.72284
2576.35	3	-0.344757	-8.67004e-05			3.70392
2576.84	3	-0.354156	-8.74634e-05			3.62579
2577.32	3	-0.364288	-8.84705e-05			3.62549
2577.81	3	-0.374207	-8.95691e-05			3.66486
2578.3	3	-0.384033	-9.07593e-05			3.72223
2578.79	3	-0.393768	-9.22241e-05			3.66394
2579.28	3	-0.403473	-9.38416e-05			3.68439
2579.77	3	-0.413147	-9.54895e-05			3.74237
2580.25	3	-0.422791	-9.729e-05			3.74176
2580.74	3	-0.432434	-9.93652e-05			3.54584
2581.23	3	-0.441925	-0.000101532			3.52661
2581.72	3	-0.451416	-0.00010376			3.60443
2582.21	3	-0.4617	-0.000106171			3.68439
2582.69	3	-0.470886	-0.000108734			3.62579
2583.18	3	-0.480774	-0.000111237			3.64471
2583.67	3	-0.490936	-0.000113831			3.50769
2584.16	3	-0.500275	-0.000116699			3.58612
2584.65	3	-0.510803	-0.000119629			3.60535
2585.14	3	-0.520081	-0.00012265			3.52692
2585.62	3	-0.529755	-0.000125916			3.56628
2586.11	3	-0.539032	-0.000129486			3.54645
2586.6	3	-0.54895	-0.000133179			3.58612
2587.09	3	-0.558868	-0.000137115			3.40912
2587.58	3	-0.569336	-0.00014151			3.48846
2588.07	3	-0.578125	-0.000146149			3.37006
2588.55	3	-0.588074	-0.000150879			3.38989
2589.04	3	-0.59729	-0.000155975			3.42926
2589.53	3	-0.607269	-0.000161469			3.27179
2590.02	3	-0.617584	-0.000167053			3.35022
2590.51	3	-0.626862	-0.000172852			3.31207
2591	3	-0.636902	-0.000178986			3.31177
2591.48	3	-0.646729	-0.000185364			3.23273
2591.97	3	-0.656128	-0.000191681			3.27209
2592.46	3	-0.666107	-0.000198151			3.27271
2592.95	3	-0.675232	-0.000204803			3.13599
2593.44	3	-0.685211	-0.000211426			3.17444
2593.93	3	-0.695404	-0.000217987			3.13568
2594.41	3	-0.704498	-0.000224701			3.17566
2594.9	3	-0.714722	-0.000231354			3.19427
2595.39	3	-0.723663	-0.000237823			3.05756
2595.88	3	-0.734467	-0.000244324			3.15582
2596.37	3	-0.74411	-0.000250824			3.11676
2596.86	3	-0.756226	-0.000257233			3.11584
2597.34	3	-0.767212	-0.000263519			3.03864
2597.83	3	-0.776062	-0.00027002			3.01941
2598.32	3	-0.786438	-0.000276398			2.94098
2598.81	3	-0.795898	-0.000282654			3.01849
2599.3	3	-0.805054	-0.000289001			2.94128
2599.78	3	-0.815125	-0.000295441			2.94037
2600.27	3	-0.826111	-0.000302246			2.96082
2600.76	3	-0.834961	-0.000308594			2.99957
2601.25	3	-0.845032	-0.000315155			3.00018
2601.74	3	-0.853577	-0.000321686			2.901
2602.23	3	-0.864258	-0.000328217			2.90161
2602.71	3	-0.872803	-0.000334961			2.88208
2603.2	3	-0.882874	-0.000341797			2.78473
2603.69	3	-0.892944	-0.000348602			2.901
2604.18	3	-0.903931	-0.000355499			2.7652
2604.67	3	-0.898743	-0.000327911			2.78473
2605.16	3	-0.888672	-0.00029425			2.82379
2605.64	3	-0.879211	-0.000264221			2.84302
2606.13	3	-0.86792	-0.000237			2.78442
2606.62	3	-0.858459	-0.000211884			2.78412
2607.11	3	-0.848389	-0.000188538			2.72644
2607.6	3	-0.840454	-0.000166809			2.86224
2608.09	3	-0.830383	-0.000146667			2.76489
2608.57	3	-0.820923	-0.000127777			2.84302
2609.06	3	-0.810242	-0.000110016			2.80365
2609.55	3	-0.800781	-9.34753e-05			2.7652
2610.04	3	-0.7901	-7.75452e-05			2.74567
2610.53	3	-0.78125	-6.29272e-05			2.78473
2611.02	3	-0.771179	-4.91943e-05			2.74536
2611.5	3	-0.761108	-3.64105e-05			2.7652
2611.99	3	-0.747955	-2.43744e-05			2.76428
2612.48	3	-0.738983	-1.30035e-05			2.78442
2612.97	3	-0.729004	-2.43011e-06			2.86224
2613.46	3	-0.719391	7.59888e-06			2.84363
2613.94	3	-0.709137	1.7099e-05			2.7652
2614.43	3	-0.699951	2.60498e-05			2.80365
2614.92	3	-0.690247	3.43567e-05			2.90161
2615.41	3	-0.680786	4.23798e-05			2.86194
2615.9	3	-0.669922	5.00183e-05			2.82318
2616.39	3	-0.660553	5.70679e-05			2.82288
2616.87	3	-0.651031	6.38733e-05			2.74536
2617.36	3	-0.641815	7.04956e-05			2.96051
2617.85	3	-0.631927	7.67517e-05			2.9599
2618.34	3	-0.621674	8.26111e-05			2.82257
2618.83	3	-0.612427	8.83484e-05			2.97974
2619.32	3	-0.6026	9.3811e-05			3.05878
2619.8	3	-0.593201	9.88464e-05			3.0188
2620.29	3	-0.582947	0.000103577			3.0191
2620.78	3	-0.573456	0.000108185			3.15552
2621.27	3	-0.564087	0.000112457			3.05817
2621.76	3	-0.553314	0.000116302			2.97974
2622.25	3	-0.544342	0.000120026			3.05817
2622.73	3	-0.534851	0.000123444			3.07709
2623.22	3	-0.52417	0.000126343			3.17444
2623.71	3	-0.514404	0.000128967			3.17505
2624.2	3	-0.505829	0.000131348			3.23303
2624.69	3	-0.495728	0.000133362			3.23273
2625.18	3	-0.485565	0.000134979			3.23303
2625.66	3	-0.476532	0.000136383			3.19366
2626.15	3	-0.466705	0.000137543			3.25195
2626.64	3	-0.456055	0.000138275			3.35083
2627.13	3	-0.446594	0.000138733			3.29163
2627.62	3	-0.437531	0.000139191			3.2724
2628.11	3	-0.42804	0.000139343			3.40881
2628.59	3	-0.417358	0.000139252			3.33069
2629.08	3	-0.408661	0.000139008			3.50739
2629.57	3	-0.398773	0.000138763			3.38959
2630.06	3	-0.388428	0.000138153			3.35052
2630.55	3	-0.378204	0.000137421			3.3902
2631.03	3	-0.369049	0.000136627			3.48755
2631.52	3	-0.359314	0.000135651			3.56659
2632.01	3	-0.349945	0.000134338			3.56598
2632.5	3	-0.34021	0.000132874			3.56567
2632.99	3	-0.330566	0.0001315			3.52661
2633.48	3	-0.320984	0.000129944			3.52692
2633.96	3	-0.310638	0.000128357			3.50739
2634.45	3	-0.3013	0.000126862			3.56628
2634.94	3	-0.290771	0.000125458			3.60535
2635.43	3	-0.282043	0.000123993			3.68347
2635.92	3	-0.272217	0.00012265			3.66425
2636.41	3	-0.262238	0.000121674			3.64441
2636.89	3	-0.252716	0.00012088			3.78632
2637.38	3	-0.243286	0.000120117			3.78571
2637.87	3	-0.233002	0.000119629			3.58551
2638.36	3	-0.22345	0.000119385			3.70331
2638.85	3	-0.213257	0.000119202			3.68347
2639.34	3	-0.203278	0.000119141			3.74176
2639.82	3	-0.194458	0.000119354			3.74207
2640.31	3	-0.184052	0.000119659			3.74237
2640.8	3	-0.174683	0.000119873			3.82477
2641.29	3	-0.164825	0.000120178			3.82507
2641.78	3	-0.154755	0.000120514			3.8443
2642.27	3	-0.14502	0.000120728			3.78662
2642.75	3	-0.136078	0.000120819			3.78601
2643.24	3	-0.125366	0.000121002			3.76129
2643.73	3	-0.115631	0.000121094			3.80554
2644.22	3	-0.106964	0.000121002			3.88306
2644.71	3	-0.0963745	0.000120911			3.84399
2645.19	3	-0.0867004	0.00012085			3.90228
2645.68	3	-0.0775757	0.000120544			3.92212
2646.17	3	-0.0672607	0.000120148			3.98132
2646.66	3	-0.0583801	0.000119812			3.88275
2647.15	3	-0.0449921	0.000119293			3.88306
2647.64	3	-0.0357147	0.0001185			3.84399
2648.12	3	-0.0256256	0.000117706			3.90259
2648.61	3	-0.01604	0.000116791			3.92181
2649.1	3	-0.00603027	0.00011557			3.92212
2649.59	3	0.00371399	0.000114197			3.96118
2650.08	3	0.0135803	0.000112854			3.94226
2650.57	3	0.0230743	0.000111328			3.99994
2651.05	3	0.0327515	0.000109589			3.94226
2651.54	3	0.0426971	0.000107819			3.99994
2652.03	3	0.0487671	0.000105804			4.00024
2652.52	3	0.0585022	0.000103058			3.88275
2653.01	3	0.0684509	9.95789e-05			4.07806
2653.5	3	0.0788879	9.52454e-05			3.96118
2653.98	3	0.0886536	8.95691e-05			3.94165
2654.47	3	0.0975342	8.2489e-05			3.84369
2654.96	3	0.10733	7.40967e-05			3.9798
2655.45	3	0.116852	6.44226e-05			4.09821
2655.81	3	0.125061	5.64575e-05			4.05884