File: Edgar/20240515/20240515/EC_measurements/Sample_20240502_B/CV/data/OCP_0
Time (s)	WE(1).Potential (V)	External(1).External 2 (V)
2.38175	1.54999	4.33685
3.38175	1.5567	4.27856
4.38175	1.56403	4.23981
5.38175	1.57104	4.33685
6.38175	1.57471	4.31732
7.38175	1.58417	4.25934
8.38175	1.59088	4.33624
9.38175	1.59729	4.35577
10.3817	1.60461	4.39423
11.3817	1.60217	4.27856
12.3817	1.60156	4.31702
13.3817	1.60461	4.31671
14.3817	1.59821	4.1806
15.3817	1.59332	4.27795
16.3817	1.59332	4.25964
17.3817	1.59668	4.45282
18.3817	1.604	4.39423
19.3817	1.60492	4.31671
20.3817	1.60461	4.2981
21.3817	1.60461	4.37439
22.3817	1.60339	4.29749
23.3817	1.60522	4.29779
24.3817	1.61041	4.25934
25.3817	1.61133	4.31641
26.3817	1.61133	4.37469
27.3817	1.61224	4.37561
28.3817	1.14777	4.35577
29.3817	0.899658	4.2984
30.3817	0.90271	4.41406
31.3817	0.957336	4.27887
32.3817	1.01501	4.2981
33.3817	1.0733	4.29779
34.3817	1.12793	4.41437
35.3817	1.17279	4.41437
36.3817	1.22284	4.39423
37.3817	1.25458	4.296875
38.3817	1.28571	4.375
39.3817	1.30829	4.45251
40.3817	1.32996	4.31671
41.3817	1.35162	4.31671
42.3817	1.36993	4.25903
43.3817	1.38458	4.18091
44.3817	1.39771	4.2395
45.3817	1.40961	4.35608
46.3817	1.41846	4.31732
47.3817	1.42212	4.4342
48.3817	1.4267	4.27795
49.3817	1.43158	4.35547
50.3817	1.43677	4.29749
51.3817	1.43738	4.35486
52.3817	1.43829	4.31702
53.3817	1.44226	4.25934
54.3817	1.44073	4.35577
55.3817	1.43646	4.31549
56.3817	1.42426	4.29749
57.3817	1.42181	4.37469
58.3817	1.41815	4.25842
59.3817	1.4151	4.21967
60.3817	1.41876	4.43329
61.3817	1.41205	4.29718
62.3817	1.41571	4.27887
63.3817	1.41632	4.27795
64.3817	1.41083	4.18091
65.3817	1.96869	4.23889
66.3817	2.09015	4.25873
67.3817	2.06024	4.35577
68.3817	1.6626	0.407776
69.3817	1.44318	0.329712
70.3817	1.37756	0.349548
71.3817	1.33209	0.270813
72.3817	1.17676	0.349457
73.3817	1.03241	0.368866
74.3817	0.92865	0.30957
75.3817	0.84137	2.0401
76.3817	0.831909	4.39423
77.3817	0.897522	4.29749
78.3817	0.976257	4.35516
79.3817	1.04919	4.27826
80.3817	1.1145	4.33563
81.3817	1.14929	4.33655
82.3817	1.21155	4.23981
83.3817	1.25214	4.33563
84.3817	1.27563	4.29749
85.3817	1.3028	4.2984
86.3817	1.32965	4.1214
87.3817	1.33698	4.21844
88.3817	1.35193	4.12231
89.3817	1.38184	4.25964
90.3817	0.917358	4.31641
91.3817	1.47278	4.29718
92.3817	1.4682	4.27826
93.3817	1.46729	4.31702
94.3817	1.47491	4.27856
95.3817	1.48254	4.35577
96.3817	1.49811	4.33594
97.3817	1.57135	4.29779
98.3817	1.81915	4.27795
99.3817	1.71387	4.2392
100.382	1.24908	4.29779
101.382	1.16852	4.21936
102.382	1.6452	4.25903
103.382	2.11548	4.2392
104.382	2.27722	4.25934
105.382	2.13562	4.27826
106.382	1.3678	4.31671
107.382	1.01776	4.33594
108.382	1.51733	4.31732
109.382	1.69281	4.16046
110.382	2.33856	4.21936
111.382	1.24786	4.21967
112.382	1.12274	4.00482
113.382	1.55945	4.33685
114.382	1.66351	4.25903
115.382	2.17438	4.21967
116.382	2.46613	4.21967
117.382	1.35742	4.10248
118.382	3.40424	4.10187
119.382	0.882874	4.25934
120.382	0.794678	4.1806
121.382	1.4502	3.8678
122.382	0.799561	4.06342
123.382	2.70142	3.80951
124.382	2.18048	3.78998
125.382	2.53693	3.96637
126.382	8.13843	3.98407
127.382	2.30133	3.88702
128.382	2.16003	3.82843
129.382	2.07825	3.88763
130.382	10	3.84583
131.382	9.13544	3.90503
132.382	6.72791	4.06189
133.382	5.53375	4.06219
134.382	4.76013	4.04327
135.382	4.20471	3.96515
136.382	3.78693	3.88672
137.382	3.45703	3.86749
138.382	3.1897	4.00391
139.382	2.96722	4.02374
140.382	2.7829	4.02405
141.382	2.62878	3.90686
142.382	2.49817	3.98499
143.382	2.38708	3.96606
144.382	2.29431	3.94562
145.382	2.21161	3.98468
146.382	2.1463	3.92639
147.382	2.12036	3.92578
148.382	2.0285	3.84857
149.382	1.97266	3.8089
150.382	1.9278	4.02435
151.382	1.88141	3.90656
152.382	1.83777	3.90717
153.382	1.81	3.94653
154.382	1.77551	3.86749
155.382	1.74896	4.00452
156.382	1.72607	3.88702
157.382	1.70563	3.82874
158.382	1.68884	4.02405
159.382	1.66748	3.8681
160.382	1.6507	4.08325
161.382	1.63818	4.04327
162.382	1.6275	4.02466
163.382	1.61774	3.92639
164.382	1.61041	3.94623
165.382	1.60004	3.84766
166.382	1.59332	3.80951
167.382	1.5863	3.96576
168.382	1.58112	3.86749
169.382	1.58752	3.9267
170.382	1.56708	4.00482
171.382	1.57074	3.82874
172.382	1.57623	3.96606
173.382	1.58478	3.76526
174.382	1.5921	3.84827
175.382	1.58997	3.76556
176.382	1.63452	3.94623
177.382	1.63361	3.90594
178.382	1.63849	3.8681
179.382	1.64337	3.92609
180.382	1.61652	3.88733
181.382	1.64948	4.02374
182.382	1.651	3.88794
183.382	1.64764	3.84888
184.382	1.67023	3.84827
185.382	1.55365	3.927
186.382	1.63086	3.78998
187.382	1.62903	3.9267
188.382	1.6333	3.96545
189.382	1.65161	3.84857
190.382	1.21887	3.92639
191.382	0.751038	3.88763
192.382	1.92017	3.98499
193.382	-2.8064	3.90747
194.382	-2.39044	4.04449
195.382	-1.34552	3.88763
196.382	-0.23584	3.96637
197.382	0.112915	4.12201
198.382	-0.136566	4.00452
199.382	0.0521545	3.96606
200.382	0.534363	3.96515
201.382	6.28204	3.92548
202.382	4.01825	3.90625
203.382	3.22083	3.86719
204.382	2.76733	3.90686
205.382	2.53693	3.94623
206.382	2.3761	3.90686
207.382	1.05927	4.04388
208.382	1.34491	3.90686
209.382	1.57318	3.98499
210.382	1.54388	3.92639
211.382	1.54114	3.98529
212.382	1.5451	4.04327
213.382	1.5506	4.02405
214.382	1.56403	4.0625
215.382	1.54236	3.98468
216.382	2.13043	4.02435
217.382	-0.0519104	3.96637
218.382	-2.23846	4.06403
219.382	-0.679626	4.02466
220.382	-1.68396	4.14185
221.382	-1.33911	4.08295
222.382	-0.47699	3.88763
223.382	0.48584	3.90656
224.382	1.34033	3.94562
225.382	0.598755	3.8681
226.382	-0.12677	3.98529
227.382	7.09686	3.94501
228.382	6.30829	3.92517
229.382	2.8717	3.9267
230.382	2.8949	3.92609
231.382	2.68494	3.90686
232.382	2.43622	3.96545
233.382	2.2348	4.00482
234.382	2.08893	3.94592
235.382	1.97906	3.92609
236.382	1.90155	3.94623
237.382	1.82495	4.04327
238.382	1.76727	3.9267
239.382	1.71692	3.96545
240.382	1.67847	3.9267
241.382	1.6449	4.0625
242.382	1.61469	3.94592
243.382	1.58356	4.04297
244.382	1.55975	3.90656
245.382	1.5387	3.98499
246.382	1.53534	3.84857
247.382	1.51093	3.92639
248.382	1.49261	3.94623
249.382	1.48987	4.02405
250.382	1.51917	3.9267
251.382	1.52313	3.96576
252.382	1.45782	4.06311
253.382	1.40717	4.00543
254.382	1.31744	3.82904
255.382	1.409	3.98499
256.382	2.99652	4.00421
257.382	2.23938	4.12201
258.382	1.65894	4.02405
259.382	0.142212	3.9267
260.382	-2.97729	4.0448
261.382	-1.42883	3.90778
262.382	-0.558777	4.04388
263.382	0.00640869	4.14185
264.382	0.289917	4.27826
265.382	0.45105	4.08325
266.382	0.500183	4.2395
267.382	0.617676	4.06281
268.382	0.603027	4.12231
269.382	0.631104	4.02466
270.382	0.514832	4.12231
271.382	0.507202	4.17999
272.382	1.10077	4.14093
273.382	8.16162	4.14001
274.382	5.42786	4.10126
275.382	4.45831	4.21783
276.382	3.86871	4.12109
277.382	3.3844	4.12079
278.382	2.85248	4.06311
279.382	1.63544	4.10187
280.382	1.89087	0.586853
281.382	1.66077	4.06281
282.382	0.117096	4.12201
283.382	0.117157	4.06281
284.382	0.1171875	4.06311
285.382	0.117218	4.06311
286.382	0.117249	4.1806
287.382	0.11731	4.06342
288.382	0.117371	4.10248
289.382	0.117401	4.04358
290.382	0.117462	3.96637
291.382	0.117493	4.16046
292.382	0.117554	3.98529
293.382	0.117584	4.08234
294.382	0.117645	4.00482
295.382	0.117706	4.10278
296.382	0.117737	4.08325
297.382	0.117798	4.04297
298.382	0.117859	4.00421
299.382	0.117889	4.16138
300.382	0.11792	4.00452
301.382	0.118011	4.08264
302.382	0.118042	4.02405
303.382	0.118073	4.02405
304.382	0.118134	4.16107
305.382	0.118164	4.14124
306.382	0.118225	4.12231
307.382	0.118286	4.12292
308.382	0.118317	4.12231
309.382	0.118378	4.00482
310.382	0.118408	3.98499
311.382	0.118469	4.04327
312.382	0.1185	4.02374
313.382	0.118561	4.08173
314.382	0.118622	4.04358
315.382	0.118652	3.9856
316.382	0.118713	4.20013
317.382	0.118774	4.04449
318.382	0.118835	4.16107
319.382	0.118866	4.12231
320.382	0.118896	4.08264
321.382	0.118958	4.06281
322.382	0.118988	4.02405
323.382	0.119049	4.08234
324.382	0.11908	0.470581
325.382	0.119141	4.04388
326.382	0.119202	4.04388
327.382	0.119232	4.1214
328.382	0.119293	4.16107
329.382	0.119324	4.10309
330.382	0.119385	4.02405
331.382	0.119385	4.12231
332.382	0.119446	4.10278
333.382	0.119476	3.94623
334.382	0.119537	4.00421
335.382	0.119598	4.10278
336.382	0.119629	3.96545
337.382	0.11969	4.08295
338.382	0.11972	4.08264
339.382	0.119751	4.06311
340.382	0.119812	3.94684
341.382	0.119843	3.96576
342.382	0.119904	4.00482
343.382	0.119965	4.06311
344.382	0.119995	4.02466
345.382	0.120056	4.14154
346.382	0.120117	4.10278
347.382	0.120148	3.94684
348.382	0.120209	4.04358
349.382	0.120239	4.04327
350.382	0.12027	4.10248
351.382	0.120331	4.02466
352.382	0.120392	4.06311
353.382	0.120422	4.14154
354.382	0.120483	4.04388
355.382	0.120544	3.96606
356.382	0.120575	4.04388
357.382	0.120636	4.06311
358.382	0.120697	4.06281
359.382	0.120728	0.492981
360.382	0.120789	4.06342
361.382	0.12085	4.12231
362.382	0.12088	4.10278
363.382	0.120941	4.02466
364.382	0.120972	4.00421
365.382	0.121002	4.08295
366.382	0.121063	4.02466
367.382	0.121094	4.10217
368.382	0.121155	4.02405
369.382	0.121185	4.10248
370.382	0.121246	3.96606
371.382	0.121277	4.17999
372.382	0.121338	4.21967
373.382	0.121368	4.06372
374.382	0.121429	4.14154
375.382	0.12146	4.04388
376.382	0.121521	4.14093
377.382	0.121552	4.12231
378.382	0.121613	4.06281
379.382	0.121643	4.08356
380.382	0.121674	4.12231
381.382	0.121704	4.02405
382.382	0.121765	3.96606
383.382	0.121796	4.1217
384.382	0.121857	4.14124
385.382	0.121887	3.94684
386.382	0.121918	4.02496
387.382	0.121979	3.96576
388.382	0.12204	4.08295
389.382	0.12207	3.94714
390.382	0.122101	4.00452
391.382	0.122162	3.96637
392.382	0.122223	3.96545
393.382	0.122284	3.98529
394.382	0.122314	4.04388
395.382	0.122375	4.14154
396.382	0.122406	3.98499
397.382	0.122467	4.02466
398.382	0.122498	4.04327
399.382	0.122528	4.06219
400.382	0.12262	4.04419
401.382	0.12265	4.1217