File: Edgar/20230821/20230821/electrochromic_setup_test/test_1_0p5_0p5_OCP/CV_1.txt
Time (s)	WE(1).Potential (V)	WE(1).Current (A)
37.9992	0.170959	2.59399e-08
38.0969	0.173492	3.84521e-08
38.1945	0.176514	4.57764e-08
38.2922	0.178223	5.40161e-08
38.3899	0.180695	4.63562e-08
38.4875	0.183502	5.06287e-08
38.5852	0.18512	5.69153e-08
38.6828	0.188019	5.30701e-08
38.7805	0.190643	5.99365e-08
38.8781	0.19281	6.11572e-08
38.9758	0.197052	6.54297e-08
39.0734	0.197845	6.15234e-08
39.1711	0.200806	6.68945e-08
39.2688	0.202515	6.604e-08
39.3664	0.204132	6.47888e-08
39.4641	0.21048	7.96204e-08
39.5617	0.210205	6.38733e-08
39.6594	0.212738	7.37e-08
39.757	0.216858	7.50427e-08
39.8547	0.216919	6.95801e-08
39.9524	0.218994	7.43408e-08
40.05	0.220673	7.06482e-08
40.1477	0.225006	7.18384e-08
40.2453	0.227264	7.91321e-08
40.343	0.230621	8.30078e-08
40.4406	0.231781	7.49512e-08
40.5383	0.234009	7.4646e-08
40.6359	0.236969	8.12073e-08
40.7336	0.237366	6.58875e-08
40.8313	0.241638	7.95898e-08
40.9289	0.243988	8.38318e-08
41.0266	0.246613	8.27026e-08
41.1242	0.250275	8.26111e-08
41.2219	0.248505	7.52563e-08
41.3195	0.25354	8.64563e-08
41.4172	0.25412	7.66907e-08
41.5148	0.256592	8.17261e-08
41.6125	0.261688	8.89587e-08
41.7102	0.264526	8.5968e-08
41.8078	0.268463	9.73511e-08
41.9055	0.268311	8.5144e-08
42.0031	0.270813	8.12378e-08
42.1008	0.271942	8.60291e-08
42.1984	0.275452	8.23669e-08
42.2961	0.278595	9.27124e-08
42.3938	0.280334	8.7677e-08
42.4914	0.285431	9.61609e-08
42.5891	0.28595	1.02295e-07
42.6867	0.288666	9.52454e-08
42.7844	0.2901	9.04541e-08
42.882	0.291382	8.82263e-08
42.9797	0.297699	1.0025e-07
43.0773	0.297974	9.375E-08
43.175	0.301147	9.84802e-08
43.2727	0.303619	1.01593e-07
43.3703	0.305359	1.00922e-07
43.468	0.307129	9.81445e-08
43.5656	0.308777	9.40247e-08
43.6633	0.312866	9.92126e-08
43.7609	0.315002	9.63745e-08
43.8586	0.317902	1.09467e-07
43.9562	0.320862	1.00647e-07
44.0539	0.319611	9.29565e-08
44.1516	0.324799	9.87549e-08
44.2492	0.325165	9.56421e-08
44.3469	0.328033	1.0025e-07
44.4445	0.331207	1.01898e-07
44.5422	0.33493	1.06659e-07
44.6398	0.337585	1.10565e-07
44.7375	0.337738	9.7168e-08
44.8352	0.341278	1.07452e-07
44.9328	0.342224	1.00189e-07
45.0305	0.346832	1.05133e-07
45.1281	0.349152	1.06781e-07
45.2258	0.351196	1.06934e-07
45.3234	0.355011	1.10352e-07
45.4211	0.356506	1.10687e-07
45.5187	0.358643	1.10535e-07
45.6164	0.360077	1.04675e-07
45.7141	0.362091	9.94873e-08
45.8117	0.368469	1.1795e-07
45.9094	0.368988	1.10382e-07
46.007	0.371979	1.15784e-07
46.1047	0.373627	1.08246e-07
46.2023	0.376312	1.13037e-07
46.3	0.378265	1.12427e-07
46.3976	0.379364	1.07697e-07
46.4953	0.383453	1.15753e-07
46.593	0.384888	1.13739e-07
46.6906	0.388092	1.2146e-07
46.7883	0.391205	1.2027e-07
46.8859	0.389923	1.09711e-07
46.9836	0.395111	1.12183e-07
47.0812	0.396271	1.12671e-07
47.1789	0.399323	1.20209e-07
47.2766	0.402466	1.14044e-07
47.3742	0.405426	1.17584e-07
47.4719	0.4086	1.24878e-07
47.5695	0.40979	1.18835e-07
47.6672	0.412079	1.24451e-07
47.7648	0.414215	1.17432e-07
47.8625	0.415802	1.18286e-07
47.9601	0.422516	1.25702e-07
48.0578	0.421692	1.24054e-07
48.1555	0.425018	1.2616e-07
48.2531	0.427551	1.22528e-07
48.3508	0.429077	1.25885e-07
48.4484	0.431213	1.23413e-07
48.5461	0.433289	1.23627e-07
48.6437	0.436951	1.28632e-07
48.7414	0.439453	1.29669e-07
48.839	0.442474	1.28784e-07
48.9367	0.444336	1.32843e-07
49.0344	0.444214	1.23596e-07
49.132	0.449371	1.32568e-07
49.2297	0.449707	1.2442e-07
49.3273	0.45224	1.28754e-07
49.425	0.456451	1.4151e-07
49.5226	0.458832	1.30951e-07
49.6203	0.463257	1.39832e-07
49.718	0.463928	1.36597e-07
49.8156	0.465851	1.3623e-07
49.9133	0.466766	1.35773e-07
50.0109	0.470032	1.35101e-07
50.1086	0.472961	1.42853e-07
50.2062	0.47583	1.45996e-07
50.3039	0.480072	1.4682e-07
50.4015	0.480743	1.43951e-07
50.4992	0.483093	1.39587e-07
50.5969	0.485382	1.42883e-07
50.6945	0.486115	1.43463e-07
50.7922	0.493042	1.52649e-07
50.8898	0.493042	1.43707e-07
50.9875	0.496185	1.53778e-07
51.0851	0.498047	1.45264e-07
51.1828	0.499908	1.48346e-07
51.2804	0.502533	1.47675e-07
51.3781	0.503784	1.49323e-07
51.4758	0.507874	1.49597e-07
51.5734	0.509949	1.51855e-07
51.6711	0.512543	1.56403e-07
51.7687	0.516174	1.57135e-07
51.8664	0.514191	1.51825e-07
51.964	0.519073	1.56067e-07
52.0617	0.519867	1.53381e-07
52.1594	0.522217	1.55182e-07
52.257	0.526764	1.62354e-07
52.3547	0.530029	1.5979e-07
52.4523	0.533173	1.651e-07
52.55	0.533813	1.61774e-07
52.6476	0.537018	1.63666e-07
52.7453	0.538513	1.64368e-07
52.8429	0.54007	1.63086e-07
52.9406	0.546356	1.77429e-07
53.0383	0.546356	1.74744e-07
53.1359	0.5495	1.70868e-07
53.2336	0.553162	1.74286e-07
53.3312	0.553345	1.76147e-07
53.4289	0.55542	1.78894e-07
53.5265	0.557159	1.71844e-07
53.6242	0.561249	1.68884e-07
53.7218	0.563416	1.85883e-07
53.8195	0.566467	1.84601e-07
53.9172	0.568451	1.85486e-07
54.0148	0.570099	1.77826e-07
54.1125	0.572968	1.84387e-07
54.2101	0.573517	1.80511e-07
54.3078	0.577026	1.81641e-07
54.4054	0.579926	1.93146e-07
54.5031	0.583923	1.95526e-07
54.6008	0.586029	2.02057e-07
54.6984	0.585785	1.91223e-07
54.7961	0.590424	1.95831e-07
54.8937	0.591492	1.95801e-07
54.9914	0.594452	1.98212e-07
55.089	0.598297	2.02454e-07
55.1867	0.600281	2.10083e-07
55.2843	0.604523	2.12158e-07
55.382	0.605286	2.1405e-07
55.4797	0.606995	2.11823e-07
55.5773	0.608246	2.09564e-07
55.675	0.610718	2.11395e-07
55.7726	0.616333	2.29431e-07
55.8703	0.616821	2.20093e-07
55.9679	0.620911	2.25525e-07
56.0656	0.623047	2.2821e-07
56.1632	0.624878	2.23297e-07
56.2609	0.626221	2.30774e-07
56.3586	0.627319	2.25739e-07
56.4562	0.631683	2.27631e-07
56.5539	0.634125	2.26868e-07
56.6515	0.637329	2.36176e-07
56.7492	0.639191	2.39471e-07
56.8468	0.641693	2.35107e-07
56.9445	0.643524	2.39594e-07
57.0422	0.644623	2.37366e-07
57.1398	0.648071	2.42279e-07
57.2375	0.65094	2.47833e-07
57.3351	0.653381	2.56897e-07
57.4328	0.657806	2.61688e-07
57.5304	0.65741	2.55066e-07
57.6281	0.660553	2.58453e-07
57.7257	0.661591	2.60681e-07
57.8234	0.664948	2.65076e-07
57.9211	0.667938	2.67548e-07
58.0187	0.666168	2.19818e-07
58.1164	0.665466	1.9101e-07
58.214	0.661255	1.61835e-07
58.3117	0.658447	1.44836e-07
58.4093	0.655762	1.25275e-07
58.507	0.652222	1.11145e-07
58.6046	0.653351	1.08032e-07
58.7023	0.648376	9.48181e-08
58.8	0.647614	9.15833e-08
58.8976	0.644806	8.10242e-08
58.9953	0.642212	7.8125E-08
59.0929	0.63858	6.35071e-08
59.1906	0.63623	5.62439e-08
59.2882	0.634216	5.10254e-08
59.3859	0.632416	5.52063e-08
59.4836	0.630432	4.97131e-08
59.5812	0.627106	5.34363e-08
59.6789	0.622223	3.09143e-08
59.7765	0.622681	3.41492e-08
59.8742	0.618652	3.08838e-08
59.9718	0.615936	2.99683e-08
60.0695	0.61554	2.86865e-08
60.1671	0.612427	2.64893e-08
60.2648	0.612244	2.47803e-08
60.3625	0.607941	2.13318e-08
60.4601	0.605164	1.30615e-08
60.5578	0.601349	1.24817e-08
60.6554	0.599152	5.76782e-09
60.7531	0.598816	1.57471e-08
60.8507	0.59613	1.29089e-08
60.9484	0.594666	1.1261e-08
61.046	0.591309	6.073e-09
61.1437	0.588135	8.23975e-10
61.2414	0.585205	2.38037e-09
61.339	0.582062	-4.08936e-09
61.4367	0.582489	-1.2207e-10
61.5343	0.578094	-6.71387e-09
61.632	0.576447	2.92969e-09
61.7296	0.573944	-5.49316e-09
61.8273	0.570984	-6.71387e-09
61.925	0.568359	-9.06372e-09
62.0226	0.565033	-8.08716e-09
62.1203	0.563324	-1.33972e-08
62.2179	0.561371	-1.22681e-08
62.3156	0.559845	-1.51672e-08
62.4132	0.556915	-4.91333e-09
62.5109	0.551239	-2.11792e-08
62.6085	0.551422	-1.30615e-08
62.7062	0.548248	-2.78625e-08
62.8039	0.546509	-1.69983e-08
62.9015	0.544952	-1.828e-08
62.9992	0.542511	-1.37329e-08
63.0968	0.541229	-1.88293e-08
63.1945	0.536926	-2.005e-08
63.2921	0.534973	-2.05688e-08
63.3898	0.53183	-2.48413e-08
63.4874	0.528473	-3.00903e-08
63.5851	0.529785	-1.72729e-08
63.6828	0.52475	-2.28271e-08
63.7804	0.5242	-2.17285e-08
63.8781	0.521667	-2.37732e-08
63.9757	0.51828	-2.6062e-08
64.0734	0.515045	-2.98157e-08
64.171	0.511017	-3.50647e-08
64.2687	0.51062	-2.82593e-08
64.3664	0.50824	-3.35999e-08
64.464	0.506531	-2.34985e-08
64.5617	0.503052	-3.01208e-08
64.6593	0.500397	-3.61938e-08
64.757	0.497559	-3.46985e-08
64.8546	0.49408	-4.06494e-08
64.9523	0.493195	-3.68958e-08
65.0499	0.491028	-3.49121e-08
65.1476	0.489105	-3.83606e-08
65.2453	0.486237	-3.43933e-08
65.3429	0.480713	-4.94385e-08
65.4406	0.481567	-3.62854e-08
65.5382	0.477325	-4.47388e-08
65.6359	0.475189	-3.85132e-08
65.7335	0.474426	-3.67432e-08
65.8312	0.471008	-3.48816e-08
65.9288	0.470703	-3.72314e-08
66.0265	0.466492	-4.16565e-08
66.1242	0.464172	-4.80957e-08
66.2218	0.460693	-4.61731e-08
66.3195	0.45755	-5.40161e-08
66.4171	0.459137	-3.53088e-08
66.5148	0.454712	-4.31213e-08
66.6124	0.452942	-4.16565e-08
66.7101	0.451202	-4.63867e-08
66.8078	0.447388	-4.17786e-08
66.9054	0.443817	-5.00488e-08
67.0031	0.440338	-5.20325e-08
67.1007	0.44043	-4.296875E-08
67.1984	0.436707	-4.92859e-08
67.296	0.435272	-4.94385e-08
67.3937	0.432617	-4.74854e-08
67.4913	0.428528	-5.87158e-08
67.589	0.427521	-5.72205e-08
67.6867	0.422455	-5.87158e-08
67.7843	0.421722	-6.06079e-08
67.882	0.419281	-5.26123e-08
67.9796	0.417755	-5.54199e-08
68.0773	0.416504	-4.03137e-08
68.1749	0.41095	-5.50842e-08
68.2726	0.409912	-5.22461e-08
68.3702	0.40564	-5.81665e-08
68.4679	0.405701	-5.60303e-08
68.5656	0.402863	-5.12695e-08
68.6632	0.400696	-5.95703e-08
68.7609	0.399323	-5.57556e-08
68.8585	0.395477	-5.79834e-08
68.9562	0.393646	-5.53284e-08
69.0538	0.390686	-5.88379e-08
69.1515	0.386414	-6.26526e-08
69.2492	0.38855	-5.14526e-08
69.3468	0.383545	-5.74646e-08
69.4445	0.381714	-5.51147e-08
69.5421	0.380707	-5.3009e-08
69.6398	0.375793	-6.11877e-08
69.7374	0.372955	-6.52466e-08
69.8351	0.370453	-6.7688e-08
69.9327	0.369263	-6.44531e-08
70.0304	0.366425	-6.72607e-08
70.1281	0.364532	-6.45752e-08
70.2257	0.361298	-6.70776e-08
70.3234	0.358917	-6.57959e-08
70.421	0.35672	-6.46973e-08
70.5187	0.353088	-7.20215e-08
70.6163	0.351715	-7.08313e-08
70.714	0.349274	-6.81152e-08
70.8116	0.347626	-6.40259e-08
70.9093	0.345306	-6.43616e-08
71.007	0.33905	-8.00171e-08
71.1046	0.339081	-7.11365e-08
71.2023	0.335266	-7.35779e-08
71.2999	0.333099	-6.84509e-08
71.3976	0.332947	-7.45544e-08
71.4952	0.330444	-7.11975e-08
71.5929	0.32962	-6.87256e-08
71.6906	0.324524	-7.1228e-08
71.7882	0.32309	-6.9397e-08
71.8859	0.319977	-7.48291e-08
71.9835	0.31604	-8.2489e-08
72.0812	0.316711	-6.41174e-08
72.1788	0.313293	-7.26318e-08
72.2765	0.312805	-7.34863e-08
72.3741	0.309204	-6.93359e-08
72.4718	0.305817	-7.09839e-08
72.5695	0.302582	-8.17566e-08
72.6671	0.299713	-8.29163e-08
72.7648	0.300323	-7.60803e-08
72.8624	0.295135	-8.28247e-08
72.9601	0.294098	-7.40051e-08
73.0577	0.291809	-7.6416e-08
73.1554	0.287842	-7.7179e-08
73.253	0.285431	-8.4259e-08
73.3507	0.282288	-8.11462e-08
73.4484	0.281158	-7.901e-08
73.546	0.277985	-8.5083e-08
73.6437	0.27713	-8.1604e-08
73.7413	0.275055	-8.15735e-08
73.839	0.26947	-9.17358e-08
73.9366	0.268707	-8.54492e-08
74.0343	0.264191	-9.65576e-08
74.132	0.263153	-9.00574e-08
74.2296	0.261658	-8.60596e-08
74.3273	0.259857	-8.70972e-08
74.4249	0.257446	-8.07495e-08
74.5226	0.251038	-9.60999e-08
74.6202	0.25235	-8.69141e-08
74.7179	0.24765	-9.78088e-08
74.8155	0.244781	-9.6405e-08
74.9132	0.244202	-9.05457e-08
75.0109	0.242249	-9.17664e-08
75.1085	0.241791	-8.27026e-08
75.2062	0.236664	-8.81653e-08
75.3038	0.234772	-8.68225e-08
75.4015	0.230927	-1.00616e-07
75.4991	0.229584	-9.89685e-08
75.5968	0.227173	-9.40247e-08
75.6944	0.225372	-8.98132e-08
75.7921	0.223938	-8.5083e-08
75.8898	0.219818	-9.64661e-08
75.9874	0.217407	-8.97217e-08
76.0851	0.214355	-9.72595e-08
76.1827	0.21106	-1.01532e-07
76.2804	0.212433	-8.35571e-08
76.378	0.208832	-9.83582e-08
76.4757	0.207611	-9.60388e-08
76.5734	0.204468	-9.74121e-08
76.671	0.200684	-9.60388e-08
76.7687	0.197601	-9.89685e-08
76.8663	0.194275	-1.09894e-07
76.964	0.195068	-9.94873e-08
77.0616	0.190308	-1.01959e-07
77.1593	0.189514	-9.87854e-08
77.2569	0.186798	-1.07361e-07
77.3546	0.183136	-1.06628e-07
77.4523	0.180786	-1.09863e-07
77.5499	0.177948	-1.08856e-07
77.6476	0.176056	-1.05469e-07
77.7452	0.173462	-1.07971e-07
77.8429	0.172333	-1.05316e-07
77.9405	0.170654	-1.02417e-07
78.0382	0.1651	-1.1319e-07
78.1358	0.164124	-1.05225e-07
78.2335	0.159851	-1.19598e-07
78.3312	0.158112	-1.13647e-07
78.4288	0.156067	-1.10443e-07
78.5265	0.155457	-1.04126e-07
78.6241	0.153503	-1.05682e-07
78.7218	0.14679	-1.2085e-07
78.8194	0.146606	-1.14227e-07
78.9171	0.142792	-1.15387e-07
79.0148	0.141815	-1.10962e-07
79.1124	0.139771	-1.05286e-07
79.2101	0.137146	-1.1319e-07
79.3077	0.136902	-1.09009e-07
79.4054	0.132416	-1.1203e-07
79.503	0.129608	-1.12823e-07
79.6007	0.126587	-1.15784e-07
79.6983	0.125031	-1.17737e-07
79.796	0.122375	-1.11694e-07
79.8937	0.120422	-1.11786e-07
79.9913	0.119995	-1.05103e-07
80.089	0.115295	-1.12671e-07
80.1866	0.11261	-1.14777e-07
80.2843	0.109833	-1.2149e-07
80.3819	0.10733	-1.23016e-07
80.4796	0.108063	-1.09497e-07
80.5772	0.102692	-1.18347e-07
80.6749	0.102112	-1.20422e-07
80.7726	0.100281	-1.15173e-07
80.8702	0.0957947	-1.23932e-07
80.9679	0.092926	-1.2265e-07
81.0655	0.0899963	-1.26892e-07
81.1632	0.0899963	-1.1673e-07
81.2608	0.0854492	-1.29242e-07
81.3585	0.085083	-1.2207e-07
81.4562	0.0816345	-1.24146e-07
81.5538	0.0783386	-1.22498e-07
81.6515	0.0753784	-1.24298e-07
81.7491	0.072937	-1.30646e-07
81.8468	0.0719604	-1.19385e-07
81.9444	0.0683594	-1.24573e-07
82.0421	0.0672913	-1.2674e-07
82.1397	0.0658875	-1.21307e-07
82.2374	0.0584106	-1.36536e-07
82.3351	0.0587769	-1.31897e-07
82.4327	0.0547791	-1.29761e-07
82.5304	0.0531921	-1.35834e-07
82.628	0.0512085	-1.27045e-07
82.7257	0.0497131	-1.27563e-07
82.8233	0.0492554	-1.25153e-07
82.921	0.0451416	-1.31073e-07
83.0186	0.0419373	-1.28601e-07
83.1163	0.0402374	-1.35071e-07
83.214	0.0372925	-1.34369e-07
83.3116	0.0351013	-1.32935e-07
83.4093	0.0322723	-1.2439e-07
83.5069	0.0305573	-1.31256e-07
83.6046	0.0281708	-1.23993e-07
83.7022	0.0249847	-1.31195e-07
83.7999	0.0222656	-1.40564e-07
83.8976	0.020462	-1.45599e-07
83.9952	0.0177643	-1.31897e-07
84.0929	0.0151215	-1.38092e-07
84.1905	0.0125916	-1.35803e-07
84.2882	0.0102692	-1.40411e-07
84.3858	0.00838318	-1.45111e-07
84.4835	0.00544434	-1.42609e-07
84.5811	0.00354919	-1.46545e-07
84.6788	0.000845337	-1.40747e-07
84.7765	-0.00193787	-1.40533e-07
84.8741	-0.0040802	-1.41418e-07
84.9718	-0.00636292	-1.42273e-07
85.0694	-0.00917969	-1.49933e-07
85.1671	-0.0120789	-1.45081e-07
85.2647	-0.0140106	-1.52618e-07
85.3624	-0.0165405	-1.51215e-07
85.46	-0.0185364	-1.51642e-07
85.5577	-0.0212585	-1.47766e-07
85.6554	-0.0232727	-1.46088e-07
85.753	-0.0262726	-1.56311e-07
85.8507	-0.0285492	-1.52466e-07
85.9483	-0.0314911	-1.54663e-07
86.046	-0.0333618	-1.5802e-07
86.1436	-0.0362488	-1.55701e-07
86.2413	-0.0382355	-1.57959e-07
86.339	-0.0406586	-1.55975e-07
86.4366	-0.0433258	-1.65405e-07
86.5343	-0.0456879	-1.62354e-07
86.6319	-0.0490723	-1.67694e-07
86.7296	-0.0515747	-1.68762e-07
86.8272	-0.0523682	-1.64246e-07
86.9249	-0.0548401	-1.6275e-07
87.0225	-0.0556335	-1.66107e-07
87.1202	-0.0598755	-1.61865e-07
87.2179	-0.0622559	-1.70197e-07
87.3155	-0.0654907	-1.81671e-07
87.4132	-0.0682068	-1.81335e-07
87.5108	-0.0681152	-1.75201e-07
87.6085	-0.0722656	-1.87378e-07
87.7061	-0.073822	-1.78345e-07
87.8038	-0.0764771	-1.83655e-07
87.9014	-0.0802612	-1.89362e-07
87.9991	-0.0821533	-1.92047e-07
88.0968	-0.0861511	-1.93634e-07
88.1944	-0.0869446	-1.97235e-07
88.2921	-0.0892334	-2.03491e-07
88.3897	-0.0902405	-1.93909e-07
88.4874	-0.0932312	-2.03705e-07
88.585	-0.0990906	-2.20093e-07
88.6827	-0.098877	-2.0752e-07
88.7804	-0.104462	-2.265625E-07
88.878	-0.105621	-2.34039e-07
88.9757	-0.106628	-2.27051e-07
89.0733	-0.107758	-2.29431e-07
89.171	-0.10968	-2.30835e-07
89.2686	-0.114899	-2.36664e-07
89.3663	-0.115662	-2.46582e-07
89.4639	-0.119476	-2.54333e-07
89.5616	-0.121277	-2.56104e-07
89.6593	-0.123322	-2.65747e-07
89.7569	-0.124542	-2.69501e-07
89.8546	-0.126251	-2.69073e-07
89.9522	-0.130219	-2.74689e-07
90.0499	-0.1328125	-2.88635e-07
90.1475	-0.135925	-3.03986e-07
90.2452	-0.139404	-3.95203e-07
90.3428	-0.140503	-3.96729e-07
90.4405	-0.143219	-4.10461e-07
90.5382	-0.145538	-4.23889e-07
90.6358	-0.148071	-4.48608e-07
90.7335	-0.151428	-4.51965e-07
90.8311	-0.153046	-4.73633e-07
90.9288	-0.155945	-4.89197e-07
91.0264	-0.157806	-5.12085e-07
91.1241	-0.161011	-5.3009e-07
91.2218	-0.163177	-5.44434e-07
91.3194	-0.164886	-5.7373e-07
91.4171	-0.167816	-6.20422e-07
91.5147	-0.170319	-6.21948e-07
91.6124	-0.172363	-6.53076e-07
91.71	-0.174957	-6.87256e-07
91.8077	-0.176971	-7.06787e-07
91.9053	-0.180237	-7.37305e-07
92.003	-0.18161	-7.60193e-07
92.1007	-0.184418	-8.05054e-07
92.1983	-0.187714	-8.44116e-07
92.296	-0.190155	-8.88977e-07
92.3936	-0.191772	-9.33838e-07
92.4913	-0.194794	-9.75342e-07
92.5889	-0.197388	-1.01837e-06
92.6866	-0.198517	-1.06049e-06
92.7842	-0.202026	-1.11847e-06
92.8819	-0.204468	-1.17645e-06
92.9796	-0.207123	-1.24268e-06
93.0772	-0.208984	-1.30249e-06
93.1749	-0.211273	-1.362e-06
93.2725	-0.214081	-1.44226e-06
93.3702	-0.216675	-1.51123e-06
93.4678	-0.219055	-1.59149e-06
93.5655	-0.221802	-1.67633e-06
93.6632	-0.223999	-1.7691e-06
93.7608	-0.226624	-1.85944e-06
93.8585	-0.228851	-1.95465e-06
93.9561	-0.231201	-2.06177e-06
94.0538	-0.232971	-2.16431e-06
94.1514	-0.235901	-2.28302e-06
94.2491	-0.239197	-2.41821e-06
94.3467	-0.240479	-2.53143e-06
94.4444	-0.243256	-2.67517e-06
94.5421	-0.246124	-2.80487e-06
94.6397	-0.247101	-2.95258e-06
94.7374	-0.249756	-3.11127e-06
94.835	-0.252686	-3.29895e-06
94.9327	-0.256073	-3.46985e-06
95.0303	-0.258118	-3.65601e-06
95.128	-0.26001	-3.84521e-06
95.2256	-0.263519	-4.05273e-06
95.3233	-0.265167	-4.23889e-06
95.421	-0.267456	-4.48914e-06
95.5186	-0.270081	-4.72412e-06
95.6163	-0.272614	-4.94995e-06
95.7139	-0.275482	-5.21545e-06
95.8116	-0.277344	-5.49011e-06
95.9092	-0.280304	-5.78003e-06
96.0069	-0.282166	-6.0791e-06
96.1046	-0.285187	-6.39954e-06
96.2022	-0.287262	-6.72913e-06
96.2999	-0.28952	-7.08618e-06
96.3975	-0.291718	-7.47681e-06
96.4952	-0.294525	-7.86133e-06
96.5928	-0.296814	-8.27942e-06
96.6905	-0.299194	-8.70361e-06
96.7881	-0.301392	-9.15527e-06
96.8858	-0.304718	-9.64355e-06
96.9835	-0.30661	-1.0144e-05
97.0811	-0.308716	-1.07025e-05
97.1788	-0.312042	-1.12579e-05
97.2764	-0.314392	-1.18744e-05
97.3741	-0.316376	-1.24969e-05
97.4717	-0.31955	-1.31378e-05
97.5694	-0.320862	-1.38367e-05
97.667	-0.324402	-1.4566e-05
97.7647	-0.326416	-1.53564e-05
97.8624	-0.329163	-1.61652e-05
97.96	-0.331421	-1.70349e-05
98.0577	-0.328217	-1.43707e-05
98.1553	-0.326263	-1.24878e-05
98.253	-0.32428	-1.10046e-05
98.3506	-0.321655	-9.7229e-06
98.4483	-0.318848	-8.66089e-06
98.546	-0.316925	-7.69958e-06
98.6436	-0.314728	-6.85425e-06
98.7413	-0.312195	-6.08215e-06
98.8389	-0.309021	-5.3833e-06
98.9366	-0.307465	-4.79126e-06
99.0342	-0.304901	-4.22363e-06
99.1319	-0.30188	-3.72009e-06
99.2295	-0.299866	-3.26233e-06
99.3272	-0.297699	-2.84119e-06
99.4249	-0.294403	-2.46277e-06
99.5225	-0.292175	-2.10266e-06
99.6202	-0.289978	-1.76392e-06
99.7178	-0.287842	-1.47705e-06
99.8155	-0.284851	-1.20544e-06
99.9131	-0.282776	-9.8877e-07
100.011	-0.28064	-7.62939e-07
100.108	-0.27832	-5.7373e-07
100.206	-0.275452	-3.84521e-07
100.304	-0.273346	-2.2583e-07
100.401	-0.270844	-6.7749e-08
100.499	-0.268341	7.38525e-08
100.597	-0.265472	1.84021e-07
100.694	-0.262787	2.95715e-07
100.792	-0.261353	3.88489e-07
100.89	-0.258118	4.8645e-07
100.987	-0.256287	5.61829e-07
101.085	-0.253906	6.39648e-07
101.183	-0.251434	7.10144e-07
101.28	-0.248993	7.59277e-07
101.378	-0.245697	8.05969e-07
101.476	-0.243988	8.48389e-07
101.573	-0.240875	8.88977e-07
101.671	-0.238556	9.4635e-07
101.769	-0.235992	9.56726e-07
101.866	-0.234161	9.8114e-07
101.964	-0.231842	1.00677e-06
102.062	-0.229492	1.02234e-06
102.159	-0.227173	1.03241e-06
102.257	-0.224915	1.03516e-06
102.355	-0.22226	1.0498e-06
102.452	-0.219757	1.06018e-06
102.55	-0.216827	1.06934e-06
102.648	-0.21405	1.06781e-06
102.745	-0.211456	1.06781e-06
102.843	-0.209442	1.06628e-06
102.94	-0.207092	1.05286e-06
103.038	-0.204254	1.05896e-06
103.136	-0.201935	1.05194e-06
103.233	-0.199402	1.04828e-06
103.331	-0.197906	1.03912e-06
103.429	-0.195618	1.00433e-06
103.526	-0.192017	1.01624e-06
103.624	-0.18988	1.00128e-06
103.722	-0.187531	9.92432e-07
103.819	-0.184998	9.8938e-07
103.917	-0.18219	9.79004e-07
104.015	-0.179596	9.765625E-07
104.112	-0.177826	9.59167e-07
104.21	-0.175659	9.42688e-07
104.308	-0.172607	9.26819e-07
104.405	-0.170013	9.21936e-07
104.503	-0.167938	9.06982e-07
104.601	-0.165985	8.96301e-07
104.698	-0.162811	8.91418e-07
104.796	-0.160431	8.75244e-07
104.894	-0.157715	8.63342e-07
104.991	-0.155487	8.45642e-07
105.089	-0.15332	8.3313e-07
105.187	-0.149872	8.45337e-07
105.284	-0.148773	8.12073e-07
105.382	-0.146149	8.06274e-07
105.48	-0.143738	7.94678e-07
105.577	-0.140778	7.77283e-07
105.675	-0.139069	7.65076e-07
105.772	-0.136932	7.51343e-07
105.87	-0.134338	7.48291e-07
105.968	-0.131866	7.33948e-07
106.065	-0.129333	7.31201e-07
106.163	-0.126892	7.19299e-07
106.261	-0.125	6.7749e-07
106.358	-0.121246	6.92139e-07
106.456	-0.118927	6.78406e-07
106.554	-0.116516	6.64368e-07
106.651	-0.113861	6.604e-07
106.749	-0.111633	6.56738e-07
106.847	-0.109406	6.50635e-07
106.944	-0.107208	6.39648e-07
107.042	-0.105011	6.29272e-07
107.14	-0.102631	6.18286e-07
107.237	-0.0994263	5.99365e-07
107.335	-0.0977173	6.28662e-07
107.433	-0.0949097	5.97839e-07
107.53	-0.09198	5.92041e-07
107.628	-0.0892639	5.859375E-07
107.726	-0.0871277	5.70068e-07
107.823	-0.0851746	5.63049e-07
107.921	-0.0830994	5.51758e-07
108.019	-0.0805664	5.53284e-07
108.116	-0.0775757	5.42908e-07
108.214	-0.0750427	5.42297e-07
108.312	-0.0733032	5.40161e-07
108.409	-0.070282	5.20935e-07
108.507	-0.0680847	5.20935e-07
108.605	-0.0656433	5.02319e-07
108.702	-0.0628967	5.07202e-07
108.8	-0.0608215	5.0354e-07
108.897	-0.0586853	5.00793e-07
108.995	-0.0557861	4.96521e-07
109.093	-0.0539246	4.75159e-07
109.19	-0.0507202	4.79431e-07
109.288	-0.0482941	4.72412e-07
109.386	-0.045816	4.7821e-07
109.483	-0.0432892	4.65393e-07
109.581	-0.0412903	4.63257e-07
109.679	-0.0387329	4.62952e-07
109.776	-0.0363678	4.55017e-07
109.874	-0.0334839	4.48914e-07
109.972	-0.0305695	4.40674e-07
110.069	-0.0289551	4.40979e-07
110.167	-0.0257141	4.61426e-07
110.265	-0.0243164	4.33655e-07
110.362	-0.0217438	4.30908e-07
110.46	-0.019278	4.31824e-07
110.558	-0.0168793	4.17786e-07
110.655	-0.0139984	4.22363e-07
110.753	-0.011203	4.15344e-07
110.851	-0.00910034	4.12598e-07
110.948	-0.00631409	4.07104e-07
111.046	-0.00419006	4.09851e-07
111.144	-0.00200195	4.06494e-07
111.241	0.000839233	3.83606e-07
111.339	0.00349731	4.01001e-07
111.437	0.00540161	3.86353e-07
111.534	0.00751648	3.93677e-07
111.632	0.0101593	3.87268e-07
111.73	0.0132477	3.88489e-07
111.827	0.0155792	3.95203e-07
111.925	0.0181122	3.83606e-07
112.022	0.0197906	3.79028e-07
112.12	0.0223511	3.74756e-07
112.218	0.025061	3.70178e-07
112.315	0.0274506	3.79639e-07
112.413	0.0302612	3.67432e-07
112.511	0.0325836	3.74146e-07
112.608	0.0344269	3.64685e-07
112.706	0.0373413	3.66211e-07
112.804	0.0401031	3.57056e-07
112.901	0.0427063	3.52783e-07
112.999	0.0450928	3.54614e-07
113.097	0.0475128	3.53088e-07
113.194	0.0491852	3.54309e-07
113.292	0.0516968	3.46375e-07
113.39	0.0534058	3.33862e-07
113.487	0.056427	3.46375e-07
113.585	0.0586853	3.34473e-07
113.683	0.0607605	3.37219e-07
113.78	0.0641479	3.42712e-07
113.878	0.0666504	3.41797e-07
113.976	0.0685425	3.49731e-07
114.073	0.0715332	3.32947e-07
114.171	0.0738525	3.32642e-07
114.269	0.0755005	3.28064e-07
114.366	0.0784912	3.19214e-07
114.464	0.0803833	3.45764e-07
114.562	0.0835571	3.28064e-07
114.659	0.0862732	3.32947e-07
114.757	0.0884094	3.29895e-07
114.855	0.0903625	3.25928e-07
114.952	0.0932617	3.15247e-07
115.05	0.0960693	3.10669e-07
115.147	0.0983582	3.16467e-07
115.245	0.100922	3.17078e-07
115.343	0.102875	3.22876e-07
115.44	0.104614	3.11584e-07
115.538	0.107361	3.10364e-07
115.636	0.110565	3.09143e-07
115.733	0.113037	3.00598e-07
115.831	0.11554	3.06396e-07
115.929	0.117218	3.02124e-07
116.026	0.119659	3.07007e-07
116.124	0.122009	3.06396e-07
116.222	0.124329	2.91443e-07
116.319	0.127563	2.99072e-07
116.417	0.129608	2.93274e-07
116.515	0.131592	2.94189e-07
116.612	0.134949	3.01514e-07
116.71	0.137451	2.98462e-07
116.808	0.139465	2.98157e-07
116.905	0.142365	2.948e-07
117.003	0.143768	2.92053e-07
117.101	0.146301	2.89001e-07
117.198	0.149384	2.85339e-07
117.296	0.15213	3.16772e-07
117.394	0.154114	2.90527e-07
117.491	0.156586	2.8717e-07
117.589	0.158691	2.92358e-07
117.687	0.161346	2.82288e-07
117.784	0.164185	2.79541e-07
117.882	0.166565	2.75269e-07
117.979	0.168884	2.79236e-07